Sample:	'1
File name:	W2025090904-—Úπµ∫”…œ.FD3
Run date:	'10:09:06, 09/11/2025
Operator:	Administrator
Comment:	'

Instrument
Model:	F-2700 FL Spectrophotometer
Serial number:	23C7-004
ROM Version:	4J14000 07

Instrument parameters
Measurement type:	3-D scan
Data mode:	Fluorescence
EX  Start WL:	220.0 nm
EX  End WL:	600.0 nm
EX Sampling interval:	5.0 nm
EM  Start WL:	230.0 nm
EM  End WL:	650.0 nm
EM Sampling interval:	5.0 nm
Scan speed:	12000 nm/min
EX Slit:	5.0 nm
EM Slit:	5.0 nm
PMT Voltage:	700 V
Response:	Auto 
Corrected spectra:	Off
Contour interval:	50.000

Peak integration
Integration method:	Rectangular
Sensitivity:	1
Threshold:	1.000

Peaks
No.	ApexEX/EM(nm)	Height(Data)
1	225.0/340.0	2062
2	225.0/605.0	86.20
3	240.0/390.0	1678
4	245.0/400.0	1663
5	250.0/415.0	1649
6	250.0/450.0	1842
7	265.0/585.0	134.4
8	270.0/600.0	127.2
9	275.0/310.0	1742
10	275.0/615.0	121.6
11	280.0/340.0	1994
12	280.0/625.0	108.9
13	285.0/635.0	86.42
14	565.0/340.0	10.13
15	570.0/320.0	10.15
16	580.0/325.0	9.514

Data points
	220.0	225.0	230.0	235.0	240.0	245.0	250.0	255.0	260.0	265.0	270.0	275.0	280.0	285.0	290.0	295.0	300.0	305.0	310.0	315.0	320.0	325.0	330.0	335.0	340.0	345.0	350.0	355.0	360.0	365.0	370.0	375.0	380.0	385.0	390.0	395.0	400.0	405.0	410.0	415.0	420.0	425.0	430.0	435.0	440.0	445.0	450.0	455.0	460.0	465.0	470.0	475.0	480.0	485.0	490.0	495.0	500.0	505.0	510.0	515.0	520.0	525.0	530.0	535.0	540.0	545.0	550.0	555.0	560.0	565.0	570.0	575.0	580.0	585.0	590.0	595.0	600.0
230.0	502.1	8571	9999.9	1469	30.40	13.69	11.80	10.54	9.183	9.391	10.28	9.834	9.896	8.934	8.206	7.857	7.577	7.067	6.672	6.178	5.735	5.255	5.027	4.646	4.248	3.811	3.508	3.213	3.253	2.974	2.934	2.797	2.562	2.340	2.006	1.683	1.572	1.407	1.266	1.216	1.182	1.260	1.119	1.006	1.001	1.434	10.00	32.85	40.04	18.72	4.624	1.006	0.589	0.567	0.534	0.508	0.504	0.486	0.432	0.394	0.364	0.348	0.290	0.286	0.283	0.305	0.296	0.273	0.251	0.252	0.225	0.238	0.232	0.178	0.223	0.189	0.185
235.0	188.5	2488	9999.9	9999.9	527.5	42.30	16.01	12.93	11.05	10.72	11.00	11.37	10.14	10.19	8.832	9.007	7.778	7.449	7.324	6.520	6.222	5.506	5.216	4.802	4.369	3.936	3.951	3.403	3.370	3.310	2.740	2.703	2.612	2.484	2.154	1.821	1.495	1.490	1.360	1.121	1.158	1.074	1.094	1.066	1.141	1.105	3.105	9.208	20.10	33.77	43.79	21.76	10.53	1.512	0.674	0.598	0.578	0.514	0.463	0.409	0.430	0.316	0.334	0.329	0.341	0.298	0.281	0.248	0.302	0.271	0.226	0.287	0.266	0.188	0.222	0.218	0.211
240.0	180.6	622.1	3537	9999.9	9999.9	425.8	27.37	15.90	14.49	14.02	12.65	12.49	11.85	11.03	10.03	9.328	8.433	7.901	7.555	6.837	6.137	5.907	5.339	5.097	4.449	4.464	3.927	3.578	3.327	3.287	2.892	2.906	2.510	2.306	2.120	2.006	1.599	1.531	1.376	1.329	1.082	0.987	1.014	1.137	1.275	1.125	1.450	2.726	5.254	11.77	31.85	64.01	65.72	20.82	7.638	0.836	0.549	0.525	0.485	0.401	0.420	0.358	0.325	0.337	0.353	0.325	0.317	0.367	0.268	0.207	0.244	0.274	0.287	0.238	0.222	0.191	0.214
245.0	166.3	266.3	858.6	5133	9999.9	9999.9	314.7	26.55	19.36	16.84	16.32	15.24	13.88	12.27	11.65	10.01	8.974	8.178	7.314	6.759	6.782	5.761	5.355	5.144	4.731	4.737	3.999	4.025	3.444	3.436	3.108	2.870	2.477	2.253	2.113	1.941	1.796	1.729	1.419	1.293	1.189	1.099	1.011	1.046	1.190	1.224	1.263	1.350	1.861	3.243	8.483	27.56	65.06	91.42	73.19	18.08	4.328	0.656	0.613	0.472	0.440	0.426	0.372	0.393	0.366	0.345	0.297	0.390	0.259	0.265	0.229	0.293	0.224	0.238	0.203	0.240	0.202
250.0	89.46	188.0	350.5	1249	5265	9999.9	9999.9	4861	88.57	26.22	22.66	19.82	16.50	14.09	13.21	10.96	10.21	9.288	8.099	7.444	6.993	6.099	5.829	5.366	5.080	4.842	4.429	4.143	3.650	3.608	3.080	2.904	2.591	2.339	2.303	2.058	1.855	1.753	1.517	1.405	1.197	1.144	1.114	1.138	1.100	1.074	1.099	1.249	1.388	1.646	2.520	6.780	17.15	36.93	64.44	91.27	81.94	75.71	13.09	5.281	0.751	0.515	0.479	0.432	0.429	0.386	0.305	0.358	0.325	0.301	0.353	0.310	0.254	0.290	0.244	0.294	0.226
255.0	65.62	85.23	229.6	470.4	1246	3052	9999.9	9999.9	2073	105.6	35.93	27.58	21.26	18.85	15.99	12.45	11.78	10.75	8.859	8.051	7.500	6.892	6.318	5.711	5.553	5.435	4.902	4.286	3.894	3.524	3.147	3.034	2.612	2.395	2.334	1.988	1.845	1.737	1.620	1.468	1.327	1.317	1.138	1.249	1.097	1.096	0.941	0.886	1.011	1.348	1.503	2.391	4.429	8.872	15.04	23.53	50.88	133.5	188.6	141.0	20.68	5.188	0.727	0.583	0.520	0.536	0.422	0.490	0.342	0.373	0.349	0.307	0.302	0.278	0.288	0.327	0.223
260.0	61.57	69.74	114.2	302.6	429.6	749.4	4441	9999.9	9999.9	1673	72.81	39.61	28.20	23.61	18.86	14.95	13.19	11.46	9.978	9.064	7.915	7.529	6.464	6.379	5.495	5.514	4.898	4.453	4.459	4.104	3.550	2.905	2.716	2.525	2.423	2.028	1.965	1.835	1.462	1.576	1.357	1.280	1.162	1.197	1.137	1.080	0.855	0.898	0.925	1.008	1.189	2.052	2.142	2.763	4.047	5.870	12.54	39.58	111.6	222.0	209.5	125.0	16.01	1.966	0.703	0.618	0.623	0.514	0.492	0.400	0.449	0.431	0.419	0.319	0.331	0.270	0.340
265.0	66.47	61.39	69.96	163.7	334.9	290.1	1084	7668	9999.9	9999.9	220.7	59.31	39.62	28.96	21.97	17.98	15.05	13.02	10.73	10.18	9.074	8.399	7.162	6.726	5.972	5.760	5.144	4.560	4.591	4.161	3.985	3.502	2.968	2.598	2.507	2.314	1.964	1.878	1.707	1.774	1.554	1.285	1.292	1.274	1.168	1.093	1.036	0.948	0.958	0.842	0.851	1.340	1.959	1.990	1.890	2.056	3.480	9.573	27.50	78.76	186.2	307.9	201.2	26.12	9.397	0.877	0.720	0.631	0.607	0.472	0.467	0.456	0.487	0.341	0.341	0.382	0.423
270.0	102.4	94.51	79.82	84.07	197.9	325.7	399.9	1864	8301	9999.9	9999.9	5146	96.87	47.83	32.09	24.65	19.61	17.20	13.47	12.13	10.41	9.394	8.287	7.529	6.601	6.183	5.816	5.200	4.575	4.656	4.367	4.125	3.364	2.935	2.709	2.424	2.194	1.921	1.774	1.742	1.680	1.517	1.489	1.348	1.345	1.226	1.179	1.168	1.000	0.849	0.868	0.983	1.122	1.514	1.856	2.145	2.068	3.043	6.937	18.50	46.34	106.9	184.2	266.2	274.4	122.5	15.98	7.738	1.255	0.816	0.698	0.618	0.566	0.522	0.537	0.427	0.425
275.0	225.4	209.2	139.0	86.22	95.43	197.3	434.5	595.3	1959	3657	9999.9	9999.9	7688	111.0	52.71	35.05	27.18	22.33	17.48	15.32	12.61	10.13	9.620	8.468	7.529	7.029	6.209	5.700	5.240	5.194	4.862	4.213	3.773	3.584	3.153	2.890	2.366	2.140	1.899	1.913	1.793	1.691	1.714	1.455	1.606	1.505	1.516	1.412	1.207	1.075	0.894	0.903	0.903	0.960	1.194	1.691	2.379	2.740	3.105	4.992	11.24	24.89	42.13	65.32	127.6	305.1	482.0	215.2	25.11	8.598	1.234	1.014	0.846	0.747	0.698	0.606	0.733
280.0	351.1	314.7	212.2	110.7	85.25	111.7	323.2	441.0	596.6	980.0	5586	9999.9	9999.9	1063	91.89	50.21	36.97	27.57	20.71	18.12	14.00	12.31	10.87	9.130	8.655	7.616	7.097	6.250	6.007	5.420	4.864	4.673	4.096	3.663	3.443	3.108	2.712	2.309	2.145	2.065	1.988	1.965	1.915	1.800	1.947	1.811	1.726	1.737	1.459	1.314	1.158	1.042	1.025	0.956	0.923	1.218	1.548	2.482	3.300	2.851	3.643	6.517	10.39	15.81	30.30	83.90	246.7	486.5	550.8	189.4	19.46	3.125	1.182	0.856	0.880	0.798	0.881
285.0	493.4	433.9	300.6	151.9	90.86	98.13	183.2	485.0	394.1	415.9	1504	9999.9	9999.9	9999.9	811.1	77.17	49.60	35.84	25.47	21.04	17.47	14.06	12.22	10.78	9.378	8.434	7.741	7.082	6.246	5.836	5.283	5.036	4.070	4.071	3.611	3.641	3.239	2.687	2.398	2.303	2.096	2.154	2.241	2.067	2.001	2.223	1.965	1.933	1.682	1.497	1.233	1.246	1.169	0.912	1.019	1.069	1.261	1.473	2.405	3.116	3.288	2.970	3.601	4.765	8.136	20.41	59.09	155.2	396.8	640.7	245.6	29.86	12.94	1.863	1.180	1.002	1.000
290.0	674.2	647.2	456.1	234.4	142.0	132.9	170.0	314.0	567.7	612.8	722.7	2695	9999.9	9999.9	9999.9	3274	80.87	55.81	38.16	28.29	21.85	17.45	14.62	12.82	11.01	9.530	8.665	7.317	6.984	6.586	5.720	5.374	4.633	4.482	4.294	4.178	4.007	3.372	2.955	2.875	2.569	2.357	2.557	2.407	2.529	2.656	2.626	2.509	2.149	1.873	1.544	1.518	1.280	1.200	1.205	1.274	1.408	1.467	1.732	2.258	3.053	3.805	3.898	3.634	3.855	6.613	15.41	37.06	95.46	203.3	303.1	485.0	445.3	369.8	19.01	10.11	2.126
295.0	854.6	841.7	630.4	346.9	213.7	198.1	228.3	308.6	464.8	866.8	966.7	1224	2792	3777	9999.9	9999.9	4929	236.2	61.17	42.32	29.95	22.45	18.30	16.58	13.23	11.64	9.974	8.506	8.075	7.205	6.791	5.970	5.233	4.767	5.071	4.509	4.456	3.884	3.515	3.450	3.026	2.839	2.808	2.696	2.975	3.194	3.198	3.040	2.742	2.166	1.886	1.975	1.667	1.693	1.608	1.626	1.644	1.819	1.853	2.141	2.538	3.151	4.105	5.422	5.330	5.016	6.400	11.44	24.52	48.33	70.65	115.4	185.0	503.5	793.6	260.8	31.01
300.0	946.6	1002	768.9	438.1	280.2	253.4	296.9	362.2	505.4	811.4	1329	1187	1353	1417	5458	9999.9	9999.9	3846	126.3	58.92	39.27	28.30	23.06	19.33	16.21	12.83	11.59	10.29	9.241	8.374	7.576	6.579	5.559	5.597	5.415	4.848	4.977	4.379	4.270	3.697	3.155	2.980	3.163	3.103	3.138	3.251	3.435	3.600	3.102	2.471	2.219	2.209	1.949	1.762	1.991	2.051	1.979	2.205	2.261	2.300	2.511	3.125	3.516	4.735	6.102	6.591	5.909	6.230	9.089	14.77	19.61	28.90	44.96	128.9	349.0	706.7	914.9
305.0	1070	1116	869.9	534.1	340.5	311.1	370.7	460.5	608.7	845.2	1362	1608	1267	1024	1732	9999.9	9999.9	9999.9	543.3	85.59	53.80	37.61	28.01	22.37	18.50	15.22	13.06	11.38	10.08	9.299	7.966	7.187	6.211	5.427	5.512	5.091	5.108	4.657	4.548	4.251	3.501	3.465	3.386	3.371	3.518	3.711	3.769	3.897	3.560	2.854	2.506	2.552	2.097	2.159	2.091	2.330	2.191	2.572	2.555	2.736	3.066	3.654	4.060	4.824	5.779	7.308	7.913	7.398	7.218	8.094	8.597	10.47	13.49	31.94	82.61	206.5	559.1
310.0	1178	1220	1010	621.3	419.9	387.5	466.5	581.3	743.0	999.2	1346	1742	1719	1165	1006	2656	9999.9	9999.9	9999.9	9999.9	191.6	57.41	40.58	29.49	23.44	19.14	15.40	13.28	11.68	10.64	9.298	8.118	7.197	6.278	5.984	5.798	5.508	5.137	4.740	4.376	4.148	3.883	3.638	3.927	4.027	4.070	4.010	4.274	3.935	3.239	2.752	2.874	2.501	2.420	2.402	2.590	2.695	2.969	3.188	3.294	3.846	4.370	4.804	5.271	5.982	6.676	7.761	8.746	9.097	8.888	7.686	6.993	7.368	10.69	21.44	48.98	131.4
315.0	1297	1342	1103	697.8	478.8	456.4	539.5	678.7	869.7	1139	1457	1705	1843	1628	1015	1044	2536	3188	9999.9	9999.9	9999.9	215.5	58.49	42.76	29.87	23.66	18.94	15.72	13.57	12.13	11.05	8.780	7.926	7.228	6.743	6.251	5.790	5.344	5.092	4.712	4.442	4.220	4.410	4.180	4.401	4.286	4.347	4.612	4.273	3.467	2.998	3.193	2.917	2.716	2.659	2.852	3.167	3.298	3.847	3.826	4.321	4.921	5.616	6.224	6.752	7.000	7.510	8.411	8.656	9.396	9.929	8.113	6.788	6.582	8.134	13.93	32.03
320.0	1403	1520	1223	762.9	538.7	509.0	607.7	756.1	952.2	1224	1547	1762	1827	1804	1282	765.5	915.3	971.2	4426	9999.9	9999.9	3224	126.7	55.69	40.64	28.66	22.60	17.81	16.23	13.51	11.74	10.16	8.718	7.888	7.121	6.113	6.324	5.657	5.284	4.972	4.149	4.724	4.522	4.370	4.521	4.706	4.699	4.963	4.512	3.718	3.289	3.503	3.165	2.947	2.834	2.998	3.344	3.500	3.828	4.187	4.567	5.130	5.826	6.440	7.127	7.266	7.983	8.435	8.756	9.193	10.15	9.701	8.360	6.622	5.995	6.580	10.44
325.0	1551	1732	1440	874.6	593.1	555.6	640.3	811.9	1020	1308	1618	1860	1857	1732	1533	862.2	612.7	496.0	1213	7816	9999.9	9999.9	432.0	80.74	52.57	35.86	27.16	21.43	18.23	15.64	13.26	10.79	9.929	8.420	7.491	6.562	6.658	6.128	5.249	4.968	4.763	4.599	4.656	4.662	4.673	5.408	5.183	5.562	5.164	4.228	3.841	3.952	3.404	3.062	3.104	2.971	3.325	3.624	3.908	4.695	4.766	5.444	6.184	6.552	7.116	7.572	8.436	8.711	9.206	9.119	9.309	9.159	9.514	8.627	6.508	5.353	5.839
330.0	1688	1925	1689	1112	730.0	630.2	702.0	873.8	1086	1373	1688	1919	1939	1741	1493	1141	701.4	456.7	515.2	1967	8027	9999.9	9999.9	9999.9	176.1	53.82	38.17	27.60	21.97	18.21	15.36	12.37	10.67	9.295	8.292	7.265	7.012	6.402	5.909	5.434	5.103	4.921	4.900	5.021	5.214	5.862	5.812	6.176	6.088	4.879	4.428	4.509	3.859	3.783	3.398	3.580	3.973	3.956	4.370	4.997	5.135	5.983	6.602	7.245	7.602	8.221	9.002	9.035	9.336	9.555	9.175	8.966	8.858	8.318	7.817	7.222	6.424
335.0	1756	2020	1849	1297	890.3	747.1	777.1	933.8	1154	1424	1725	1952	1989	1795	1488	1148	976.4	604.2	426.7	672.7	1984	2900	9999.9	9999.9	9999.9	205.4	56.51	39.34	28.81	22.64	18.58	14.56	12.00	10.19	8.998	7.747	7.321	6.951	6.209	5.774	5.645	5.266	5.117	5.116	5.501	6.146	6.191	6.793	6.522	5.385	5.046	5.216	4.492	4.581	3.871	4.002	4.142	4.455	4.755	5.064	5.772	6.338	6.782	7.369	8.157	8.188	8.817	9.386	9.420	9.834	9.405	9.501	8.880	8.215	7.426	7.415	7.707
340.0	1768	2062	1939	1413	1015	820.4	838.3	974.2	1170	1441	1735	1949	1994	1824	1518	1139	987.8	813.7	485.2	428.3	665.7	841.4	3906	9999.9	9999.9	2828	128.3	51.32	36.93	28.01	21.41	16.46	14.06	11.70	9.850	8.823	7.671	7.331	6.463	5.960	5.604	5.543	5.169	5.451	5.628	6.250	6.475	6.864	6.599	5.872	5.352	5.401	4.772	4.599	4.254	4.471	4.275	4.603	5.008	5.286	5.721	6.348	6.914	7.455	7.977	8.128	8.828	8.971	9.486	10.13	9.725	9.190	8.985	8.558	7.430	7.151	7.141
345.0	1739	2030	1963	1485	1074	896.0	896.9	996.7	1186	1444	1713	1914	1963	1816	1541	1175	942.9	893.1	620.3	432.2	408.3	401.5	1069	6668	9999.9	9999.9	2329	73.61	47.12	34.38	25.37	19.29	15.83	12.69	10.74	9.145	8.212	7.086	6.625	6.288	5.899	5.826	5.527	5.400	5.897	6.062	6.350	7.318	6.799	5.942	5.529	5.850	5.043	4.853	4.459	4.522	4.461	4.834	5.148	5.466	5.844	6.562	6.742	7.489	7.880	8.162	8.915	9.076	9.628	9.777	9.733	9.405	9.062	8.741	7.817	7.064	6.886
350.0	1639	1970	1907	1546	1199	1020	981.5	1065	1218	1434	1678	1839	1893	1784	1546	1227	988.2	864.0	790.6	618.7	447.1	372.6	469.8	1698	7141	9999.9	9999.9	9999.9	160.7	48.07	33.43	24.22	18.83	14.93	12.18	10.25	9.062	7.933	7.212	6.619	5.878	5.641	5.555	5.604	5.777	6.196	6.422	7.192	6.747	5.891	5.643	6.263	5.525	5.463	4.900	4.967	5.138	5.125	5.429	5.558	6.269	6.389	7.050	7.517	7.696	8.018	8.351	8.874	9.142	9.281	9.615	9.431	9.242	8.458	8.006	7.460	7.271
355.0	1545	1878	1835	1580	1327	1165	1119	1177	1294	1465	1657	1794	1838	1759	1566	1291	1089	929.4	827.0	809.0	638.8	462.7	407.8	624.1	1789	2826	9999.9	9999.9	9999.9	189.8	46.90	33.34	23.57	17.45	14.47	11.95	10.50	8.966	8.390	7.112	6.042	5.999	5.818	5.778	5.672	6.391	6.165	7.001	6.571	5.963	5.407	6.437	5.832	5.908	5.388	5.569	5.733	5.576	5.596	6.165	6.689	6.672	7.243	7.322	7.663	7.931	8.101	8.672	9.190	9.280	9.230	9.104	9.152	8.404	8.494	8.169	7.701
360.0	1542	1753	1772	1570	1386	1252	1220	1254	1368	1512	1672	1776	1811	1736	1580	1338	1160	1006	887.3	842.1	808.3	596.6	462.0	438.0	633.2	821.9	3722	9999.9	9999.9	2672	117.5	43.45	30.11	21.18	16.39	13.12	10.98	9.504	8.707	7.399	6.972	6.322	6.093	6.098	6.022	6.164	5.950	6.829	6.513	5.902	5.565	6.594	6.142	6.175	5.545	5.917	6.202	6.057	6.325	6.369	6.846	7.087	7.379	7.824	7.810	7.730	8.104	8.237	9.277	8.976	9.000	8.774	9.233	8.750	8.673	7.973	7.951
365.0	1509	1700	1743	1590	1446	1335	1307	1339	1427	1561	1696	1766	1795	1718	1585	1375	1221	1085	967.0	883.4	871.8	772.1	563.5	456.1	424.1	403.2	1017	6094	9999.9	9999.9	2222	64.06	38.15	26.76	18.68	14.44	11.99	10.31	9.158	7.977	7.267	6.588	6.429	6.147	6.053	6.475	6.164	6.794	6.395	5.786	5.585	6.576	6.575	6.139	6.034	6.158	6.496	6.161	6.404	6.711	6.753	7.594	7.309	7.598	7.961	7.769	7.623	8.312	8.744	8.755	9.033	9.048	8.935	9.121	8.498	8.419	8.492
370.0	1484	1675	1703	1626	1518	1425	1392	1416	1496	1602	1705	1763	1753	1703	1592	1414	1286	1170	1075	976.9	915.0	886.9	763.2	574.7	459.5	371.1	443.7	1547	6798	9999.9	9999.9	9678	137.9	36.97	25.34	17.97	14.12	11.92	10.19	8.828	7.536	7.191	6.656	6.299	6.068	6.409	6.334	6.656	6.496	5.827	5.822	6.826	6.768	6.552	6.580	6.473	6.999	6.679	6.762	7.074	7.224	7.474	7.631	7.648	8.109	8.088	8.228	8.466	8.625	8.823	8.919	8.819	9.067	8.818	8.423	8.628	8.790
375.0	1457	1625	1704	1630	1597	1527	1468	1489	1540	1621	1715	1748	1734	1682	1586	1442	1339	1249	1169	1087	1004	938.1	904.7	770.6	572.7	449.2	379.3	556.3	1679	2802	9999.9	9999.9	9999.9	158.4	35.89	23.84	17.94	13.93	11.25	9.595	8.244	7.924	7.085	6.550	6.156	6.667	6.258	6.668	6.475	5.909	6.029	7.033	6.800	7.282	6.936	6.738	7.315	6.865	7.427	7.266	7.363	7.857	7.848	8.014	8.085	8.012	8.235	8.443	8.394	8.523	8.575	8.536	8.908	8.751	8.848	8.820	8.763
380.0	1443	1593	1688	1641	1634	1587	1515	1546	1577	1631	1730	1734	1724	1662	1573	1446	1366	1290	1227	1155	1081	1000	938.4	891.2	698.5	527.9	414.0	377.2	565.7	780.6	3657	9999.9	9999.9	2254	88.32	30.73	22.33	16.88	13.14	10.42	8.791	8.165	7.465	6.733	6.756	6.971	6.529	6.664	6.490	5.712	5.836	6.979	6.963	7.226	7.340	6.911	7.504	7.221	7.024	7.105	7.596	7.779	7.996	8.055	8.036	7.932	8.488	8.043	8.443	8.671	8.812	8.921	9.080	8.786	8.872	8.644	9.021
385.0	1396	1572	1662	1651	1664	1624	1557	1567	1582	1641	1717	1734	1704	1645	1563	1456	1384	1327	1269	1204	1139	1063	981.0	928.2	826.3	616.9	475.4	377.6	354.0	348.1	965.6	6024	9999.9	9999.9	1732	43.82	27.67	19.94	14.59	11.49	9.502	9.063	7.747	6.966	6.972	7.144	6.502	6.798	6.456	5.611	5.687	6.929	7.046	7.167	6.984	7.038	7.364	7.115	7.047	7.422	7.489	7.792	7.953	8.293	7.991	8.276	7.995	8.196	7.896	8.144	8.852	8.629	8.989	8.731	8.520	8.771	8.974
390.0	1388	1546	1644	1651	1678	1641	1594	1584	1583	1629	1677	1684	1667	1620	1540	1449	1394	1347	1300	1249	1192	1121	1043	957.6	887.6	768.3	583.5	454.3	368.9	303.2	385.8	1489	6042	9999.9	9999.9	7586	107.5	27.11	19.27	14.36	11.07	9.548	8.403	7.652	7.217	6.986	6.704	7.023	6.752	5.891	5.880	6.978	6.862	7.506	7.299	7.155	7.551	7.551	7.173	7.545	7.617	7.583	7.917	7.830	8.020	7.908	7.676	8.054	7.816	8.178	8.201	8.495	8.712	8.495	8.673	8.744	8.857
395.0	1373	1530	1623	1624	1659	1632	1629	1607	1577	1618	1638	1650	1628	1584	1511	1444	1387	1352	1322	1280	1226	1172	1105	1014	922.2	847.0	732.1	556.6	441.9	355.5	303.0	493.3	1468	2668	9999.9	9999.9	9999.9	125.6	26.76	18.54	13.82	11.33	9.705	8.590	7.894	7.736	6.979	7.017	6.722	5.898	5.897	7.152	6.617	7.239	7.262	7.149	7.548	7.775	7.358	7.591	7.404	7.799	7.592	7.820	7.683	7.582	7.979	7.807	7.900	8.307	7.923	8.359	8.359	8.250	8.497	8.753	8.800
400.0	1321	1514	1626	1641	1654	1663	1625	1609	1583	1614	1623	1629	1596	1553	1497	1425	1381	1350	1326	1290	1248	1198	1135	1048	962.3	874.2	804.7	656.5	510.3	412.6	322.9	299.4	469.8	708.9	3362	9999.9	9999.9	1921	34.83	23.36	16.67	13.10	10.49	9.105	8.383	7.819	6.922	6.805	6.428	5.895	5.882	7.087	6.852	6.953	7.187	7.148	7.401	7.313	7.672	7.751	7.556	7.450	7.509	7.655	7.169	7.960	7.520	7.642	7.767	8.179	7.954	7.840	8.309	8.191	8.161	8.781	8.720
405.0	1339	1498	1606	1637	1641	1647	1634	1595	1580	1597	1607	1592	1578	1527	1463	1402	1364	1347	1310	1293	1248	1207	1159	1079	995.8	896.1	830.0	748.8	591.1	466.5	368.5	287.4	268.6	281.8	857.6	4830	9999.9	9999.9	1486	31.52	20.51	15.39	12.02	9.750	8.436	8.209	7.009	7.215	6.576	5.922	5.910	7.084	6.798	6.828	6.749	6.996	7.244	7.456	7.544	7.583	7.236	7.209	7.564	7.701	7.184	7.852	7.540	7.125	7.458	7.918	7.427	8.123	8.077	8.214	8.124	8.429	8.101
410.0	1336	1492	1554	1597	1627	1636	1640	1610	1585	1579	1590	1563	1543	1491	1427	1364	1328	1311	1287	1266	1234	1204	1163	1101	1024	934.6	852.0	787.9	704.7	562.1	438.7	336.6	264.2	216.1	308.3	1179	4956	9999.9	9999.9	6910	92.81	20.52	14.79	11.44	9.344	8.564	7.419	7.534	6.916	5.932	6.034	6.895	6.961	7.186	6.943	7.114	7.578	7.337	7.645	7.423	7.445	7.469	7.446	7.329	7.063	7.032	7.147	7.284	7.283	7.468	7.690	7.798	8.243	7.785	7.884	8.165	8.425
415.0	1308	1446	1536	1578	1604	1645	1649	1632	1582	1558	1569	1546	1505	1443	1376	1311	1280	1265	1249	1231	1211	1180	1148	1105	1041	963.1	884.1	806.2	754.2	671.6	515.5	397.9	305.6	235.9	211.1	368.6	1188	2531	9999.9	9999.9	9999.9	32.65	19.56	14.21	11.83	9.462	8.063	7.668	6.913	5.990	6.081	7.109	6.985	7.111	6.961	7.250	7.655	7.308	7.450	7.503	7.419	7.194	7.576	7.398	6.958	7.059	6.845	6.944	6.983	7.196	7.499	7.626	7.683	7.373	7.701	8.191	8.148
420.0	1272	1408	1492	1538	1612	1624	1642	1632	1583	1562	1545	1508	1463	1403	1329	1267	1233	1224	1218	1202	1181	1152	1128	1093	1039	971.3	895.4	823.5	764.8	717.1	591.6	447.8	343.4	263.2	207.6	202.6	357.4	639.3	2979	9999.9	9999.9	1781	30.07	18.02	13.46	10.85	8.773	8.038	7.257	6.134	6.060	7.052	6.921	7.188	7.120	7.185	7.589	7.928	7.532	7.645	7.292	7.582	7.708	7.373	7.066	7.071	7.118	6.663	7.010	7.522	7.742	7.483	7.623	7.102	7.397	7.535	7.969
425.0	1308	1396	1455	1515	1577	1633	1660	1633	1589	1554	1529	1483	1426	1360	1301	1228	1199	1187	1182	1166	1147	1124	1108	1076	1027	973.0	902.9	843.7	781.6	727.2	648.1	499.0	381.5	296.8	226.0	183.6	183.7	222.3	734.0	4034	9999.9	9999.9	1427	25.71	16.58	12.76	9.804	8.504	7.614	6.297	6.082	7.133	7.119	7.266	7.308	7.087	7.716	7.787	7.709	7.662	7.394	7.448	7.538	7.277	7.249	6.879	6.911	6.939	6.740	6.914	7.298	7.201	7.525	7.046	6.991	7.289	8.087
430.0	1511	1375	1448	1514	1579	1652	1695	1691	1628	1562	1522	1472	1395	1323	1251	1185	1157	1146	1139	1118	1098	1075	1065	1050	1009	970.5	913.8	861.3	810.2	740.5	671.3	575.4	443.9	341.8	266.1	206.5	167.4	143.3	235.7	964.5	3967	9999.9	9999.9	6369	26.83	17.61	12.51	10.27	8.625	7.004	6.499	7.586	7.218	7.693	7.660	7.719	8.227	7.980	8.133	8.058	7.566	7.754	7.697	7.434	7.192	6.853	6.887	6.707	6.817	6.764	6.994	6.693	7.043	6.930	6.861	7.060	7.578
435.0	3055	1360	1411	1496	1566	1701	1757	1760	1667	1573	1526	1451	1366	1290	1213	1156	1122	1108	1099	1077	1055	1033	1029	1017	991.7	958.7	914.6	875.7	833.2	773.3	693.9	613.3	517.4	398.2	308.7	240.4	187.4	144.1	136.9	279.8	936.9	2408	9999.9	9999.9	9999.9	29.71	17.15	13.21	9.954	7.910	7.227	8.120	7.691	7.717	7.836	8.083	8.355	8.689	8.286	8.251	8.068	8.038	7.852	7.409	7.103	7.049	7.095	6.647	6.492	6.880	6.669	6.438	7.018	6.857	6.677	7.088	7.237
440.0	5498	1565	1407	1490	1619	1721	1787	1785	1696	1582	1523	1438	1357	1268	1192	1128	1098	1077	1070	1054	1020	997.1	991.6	990.9	971.1	946.5	914.5	880.9	840.9	792.9	713.8	626.5	549.8	446.6	339.5	265.1	206.7	160.1	127.0	135.0	265.4	587.2	2704	9999.9	9999.9	1678	25.85	16.49	11.64	9.127	7.722	8.516	7.643	8.222	8.037	8.222	8.586	8.630	8.778	8.575	8.616	7.917	7.601	7.479	6.975	6.678	7.233	6.608	6.672	6.619	6.486	6.771	6.635	6.805	6.529	6.887	7.384
445.0	7235	2745	1418	1473	1600	1756	1840	1836	1719	1578	1503	1427	1327	1247	1158	1102	1073	1056	1042	1022	988.2	965.8	956.8	954.7	944.9	928.0	902.9	879.1	845.5	800.1	726.3	633.3	551.3	477.7	372.2	287.0	226.3	173.1	134.2	111.1	121.8	181.0	653.0	3485	9999.9	9999.9	1258	23.24	14.03	10.40	8.604	8.863	8.108	8.420	8.347	8.422	8.788	8.887	8.840	8.601	8.650	8.075	7.677	7.485	6.766	7.081	7.028	6.425	6.838	6.561	6.452	6.706	6.365	6.446	6.625	6.867	6.979
450.0	5205	6680	1811	1439	1579	1718	1842	1831	1701	1551	1472	1385	1292	1200	1112	1053	1023	1006	984.4	967.2	930.3	905.8	900.2	900.8	895.7	886.0	867.4	850.8	831.0	791.3	728.7	638.9	551.2	479.7	406.0	317.3	246.5	192.0	149.5	117.7	99.15	98.06	193.0	824.3	3639	9999.9	9999.9	5751	77.00	13.49	10.39	9.956	8.814	8.903	8.531	8.773	9.073	9.027	8.856	8.544	8.329	8.115	7.607	7.497	7.044	6.802	6.613	6.502	6.548	6.357	6.203	6.260	6.308	6.509	6.199	6.847	6.824
455.0	2223	8546	4564	1392	1499	1662	1796	1780	1651	1500	1395	1318	1224	1127	1047	986.2	961.0	939.0	922.0	900.8	854.2	831.2	831.2	838.7	834.9	829.1	816.8	807.9	795.7	769.2	714.4	635.1	545.5	472.0	407.4	345.8	267.7	207.6	164.5	128.1	102.8	86.32	95.14	226.5	848.9	2372	9460	9999.9	8408	22.49	13.70	11.37	9.996	9.221	8.892	8.962	8.814	8.928	8.558	8.570	8.124	7.702	7.477	6.957	6.867	6.384	6.315	5.983	6.268	6.186	6.008	6.039	5.879	5.914	5.849	6.167	6.611
460.0	1294	6018	8093	1668	1448	1600	1745	1731	1590	1427	1340	1267	1168	1080	989.7	936.0	902.8	886.2	873.1	840.1	801.7	779.4	776.5	781.3	783.9	775.9	777.6	769.1	763.7	743.0	691.7	620.1	536.9	463.2	396.2	349.1	285.7	218.4	173.9	135.6	108.1	88.13	76.57	96.41	228.3	566.1	2412	9999.9	9999.9	1262	20.47	14.02	11.08	10.10	8.983	8.759	8.756	8.932	8.738	8.301	7.865	7.735	7.252	6.858	6.408	6.277	6.544	5.742	6.003	5.718	5.885	5.882	5.687	5.910	5.727	5.752	5.940
465.0	1016	2964	9999.9	3424	1389	1517	1677	1668	1533	1373	1278	1200	1103	1019	943.7	877.3	854.0	832.4	816.5	797.2	752.2	726.8	722.5	726.6	731.1	731.0	733.1	728.4	726.9	706.1	666.8	599.1	524.1	453.6	384.8	334.7	293.0	228.8	179.0	142.0	114.1	92.65	75.63	69.79	90.45	161.4	573.0	3040	9999.9	9999.9	1105	21.08	13.03	10.75	9.773	9.373	9.058	9.057	8.956	8.351	7.866	7.429	7.173	6.702	6.260	5.858	5.910	5.627	5.549	5.698	5.346	5.681	5.698	5.275	5.160	5.433	5.692
470.0	879.2	1427	6705	8107	1863	1421	1534	1538	1405	1275	1181	1109	1019	935.6	858.3	803.4	775.0	758.9	740.1	714.1	674.6	652.7	650.9	655.7	658.4	663.3	660.6	665.0	663.7	654.5	618.5	561.3	494.1	430.8	369.3	316.4	278.3	236.9	187.0	146.8	118.8	96.74	80.16	67.03	63.07	72.85	159.0	710.2	3145	8925	9999.9	5233	21.63	13.54	11.22	10.12	9.622	9.308	8.568	8.085	7.541	7.211	6.738	6.427	6.054	5.819	5.676	5.395	5.320	5.541	5.148	5.524	5.254	5.206	4.943	5.212	5.266
475.0	819.0	981.2	2446	9999.9	4485	1301	1399	1381	1275	1157	1071	1002	929.5	847.8	780.0	725.0	698.8	673.6	656.4	632.5	598.2	573.0	574.3	581.3	585.0	587.6	589.5	594.2	599.0	589.7	562.1	516.8	456.4	401.4	347.0	299.2	255.2	224.8	192.7	150.7	121.7	100.0	82.56	69.12	59.49	53.50	66.29	184.9	724.4	2061	6587	9999.9	7010	25.19	12.84	10.70	9.819	9.018	8.309	7.557	7.132	6.654	6.341	6.053	5.503	5.386	4.989	5.357	4.959	4.869	4.760	4.816	4.674	4.856	4.758	4.697	4.506
480.0	781.1	865.7	1216	6809	9999.9	1626	1288	1282	1186	1083	1004	945.0	856.8	789.5	722.4	674.2	644.4	619.5	606.8	582.9	549.9	526.4	526.0	533.2	536.3	542.3	543.3	548.7	552.0	546.2	523.6	483.0	430.0	381.5	330.7	286.0	244.0	215.1	189.6	156.7	124.7	102.1	85.96	71.83	60.31	51.59	46.92	68.34	184.5	481.5	1614	8625	9999.9	1509	21.81	12.47	10.43	9.309	8.576	7.520	7.095	6.456	6.232	5.870	5.595	5.124	5.013	4.996	4.418	4.766	4.459	4.595	4.383	4.385	4.280	4.318	4.392
485.0	714.5	799.7	895.5	3118	9999.9	3448	1207	1198	1117	1016	942.4	892.2	812.1	743.5	680.0	624.9	599.9	574.9	564.8	543.0	513.5	487.3	486.5	495.3	498.3	501.7	506.3	511.9	516.0	510.9	492.7	453.9	411.3	363.9	317.6	274.1	238.2	205.7	182.1	160.0	129.2	105.4	87.53	73.97	61.95	52.56	44.41	43.08	64.37	128.4	381.0	2322	9999.9	9999.9	1229	18.75	12.41	9.939	8.939	7.787	7.001	6.448	6.079	5.663	5.349	5.321	4.844	4.878	4.526	4.486	4.479	4.188	4.444	3.981	3.890	4.326	4.234
490.0	622.5	755.7	778.6	1348	7335	9999.9	1762	1103	1038	928.8	872.9	825.1	758.9	684.6	620.8	576.8	546.9	526.6	512.2	492.5	463.5	445.8	442.0	447.8	450.7	454.1	459.4	465.9	471.4	468.1	452.6	419.7	380.4	339.1	298.5	261.7	229.1	197.6	173.0	154.3	134.2	109.7	90.19	76.74	64.86	54.90	45.84	39.44	39.13	49.46	103.7	537.3	2774	8679	9999.9	5201	22.06	12.05	9.562	8.449	7.096	6.654	5.961	5.465	5.271	4.980	4.761	4.459	4.480	4.277	4.229	3.958	4.025	3.843	3.842	3.967	4.079
495.0	542.5	677.8	715.5	858.9	2538	9999.9	5831	1020	923.1	851.1	794.8	750.4	685.1	622.5	562.7	516.4	489.2	472.8	460.8	440.9	413.6	398.6	395.8	397.5	401.0	403.7	410.0	417.2	425.2	422.0	410.7	382.1	345.1	308.0	276.2	243.1	214.6	188.1	165.7	143.2	128.9	115.0	92.64	77.69	66.76	57.68	47.23	40.22	34.89	32.79	41.77	137.3	634.4	1980	6424	9999.9	7565	26.12	11.52	9.453	7.499	6.683	6.021	5.242	4.931	4.502	4.665	4.262	4.202	4.274	3.839	3.980	3.931	3.512	3.431	3.648	3.758
500.0	493.0	615.3	681.7	697.5	1147	7446	9999.9	1335	863.8	789.0	735.9	687.5	630.0	569.8	516.9	472.9	448.0	430.6	417.0	400.2	377.0	360.1	358.9	361.3	366.7	368.8	369.9	378.1	387.5	386.7	376.0	349.2	318.0	286.6	258.3	227.4	201.1	177.3	156.6	134.9	121.4	112.4	95.32	78.68	67.27	57.47	48.25	41.17	34.45	29.02	28.11	47.02	157.2	457.4	1566	8543	9999.9	1631	21.44	10.37	7.572	6.645	5.709	5.154	4.509	4.405	4.096	4.092	4.078	3.897	3.528	3.810	3.525	3.241	3.355	3.173	3.343
505.0	448.1	544.6	632.1	625.7	771.4	3244	9999.9	2659	788.2	718.6	674.8	639.6	587.3	522.4	474.6	437.9	409.7	394.5	379.4	367.5	341.1	328.8	325.4	329.6	334.9	332.9	339.0	345.1	354.1	351.5	342.3	319.8	292.9	266.3	238.8	213.4	189.8	167.0	148.4	129.7	115.1	104.2	97.66	80.48	67.07	58.17	48.51	41.50	34.34	28.45	25.03	27.68	50.07	117.0	366.5	2270	9999.9	9999.9	1300	15.82	8.766	7.085	5.840	5.230	4.611	4.228	3.982	3.753	3.699	3.405	3.326	3.251	3.065	3.156	3.001	3.008	2.995
510.0	393.5	464.9	542.8	582.3	614.3	1247	8217	9999.9	1271	644.2	603.1	561.8	513.7	465.6	419.3	382.1	361.0	343.9	332.8	320.5	299.7	288.4	284.4	287.8	288.7	290.5	294.3	299.5	307.1	308.2	299.5	279.6	257.4	235.4	211.5	191.1	171.5	152.8	136.3	119.5	104.7	93.78	89.96	80.70	66.97	55.29	47.17	40.14	34.03	28.20	24.31	22.37	25.96	40.25	95.64	521.4	2689	8332	9999.9	4069	19.37	8.279	6.432	4.990	4.622	4.031	3.712	3.430	3.387	3.118	2.972	2.887	2.843	2.756	2.703	2.672	2.710
515.0	349.8	399.2	428.4	531.8	520.2	695.5	2632	9999.9	5651	573.5	529.0	487.4	444.7	402.5	366.2	329.3	312.6	297.4	288.3	274.5	259.4	247.3	244.5	247.8	248.7	248.8	251.1	257.1	264.1	265.4	258.7	244.8	222.3	205.7	184.1	166.2	151.0	137.0	122.0	106.6	96.08	85.86	78.87	74.66	67.51	54.50	45.00	38.41	33.43	27.56	24.09	21.73	19.78	22.00	33.78	128.5	610.8	1892	5162	9999.9	1728	22.97	7.496	5.718	4.720	3.748	3.403	3.197	3.081	3.082	2.966	2.731	2.697	2.490	2.443	2.258	2.406
520.0	308.6	355.4	366.9	466.2	478.0	526.4	1005	8899	9999.9	917.7	477.7	441.1	399.9	360.2	330.5	300.9	278.5	266.8	254.5	244.2	228.5	220.3	220.6	218.9	219.1	221.4	223.5	230.2	233.9	234.8	228.3	217.6	196.8	186.3	167.0	151.3	137.9	123.2	111.8	100.2	88.91	79.43	72.41	67.08	64.59	53.94	44.09	36.74	32.15	27.65	23.24	20.42	18.32	17.34	19.61	40.29	147.1	432.9	1248	6757	9999.9	1474	16.29	6.240	4.807	3.932	3.601	3.205	3.012	2.619	2.693	2.575	2.464	2.247	2.191	2.011	2.208
525.0	279.5	309.8	331.3	393.9	453.2	438.4	589.8	3780	9999.9	2006	439.4	401.5	368.3	323.6	298.6	270.4	251.3	239.9	229.9	220.2	205.3	199.5	197.5	195.7	196.9	199.5	200.2	203.9	208.4	209.6	203.9	195.5	179.9	166.4	150.5	136.6	124.8	112.6	102.3	92.08	81.64	74.38	66.89	61.80	60.21	54.19	44.43	35.92	30.76	26.27	22.13	20.48	18.09	16.49	15.92	20.28	43.24	107.0	289.9	1778	8426	9957	219.4	9.339	5.260	4.112	3.441	3.060	3.019	2.400	2.376	2.340	2.233	2.076	1.974	1.949	2.136
530.0	237.9	267.5	285.9	324.2	397.2	395.6	429.2	1196	9739	9999.9	908.1	353.4	326.8	287.9	259.5	237.1	221.0	206.1	196.6	189.2	179.9	172.1	170.2	169.7	170.7	171.4	173.9	174.7	179.9	181.1	176.8	169.3	156.3	144.9	131.9	121.2	109.9	100.6	91.05	82.13	73.91	67.05	61.39	55.72	51.70	49.83	44.08	35.26	29.12	24.92	21.49	19.16	17.21	16.07	14.70	14.85	19.33	32.83	73.68	406.2	2203	6684	7812	914.6	15.24	4.906	3.828	3.300	2.910	2.533	2.278	2.079	1.986	1.965	1.896	1.873	1.777
535.0	211.6	231.6	247.7	270.7	328.7	362.6	349.0	531.0	2904	9999.9	5628	329.9	283.1	249.7	226.0	206.4	193.1	177.3	170.6	163.7	155.2	147.8	146.0	144.1	144.7	146.2	148.0	149.5	153.3	154.0	151.0	143.4	133.6	124.1	113.7	104.0	95.36	87.53	79.54	72.26	66.75	59.28	54.53	50.74	45.66	42.77	41.61	34.64	27.98	23.23	20.25	17.77	16.15	15.05	14.12	13.16	13.39	15.63	24.19	97.78	497.7	1516	3989	8621	1562	17.98	4.490	3.538	2.904	2.542	2.358	1.988	1.768	1.758	1.655	1.608	1.638
540.0	194.3	212.7	211.6	239.2	272.2	339.7	314.4	353.3	906.4	9999.9	9999.9	572.0	259.3	230.0	204.2	182.2	173.2	161.0	152.5	147.0	137.3	132.0	131.3	128.2	128.6	129.4	130.6	133.9	135.7	135.9	133.8	127.4	118.8	110.5	101.2	93.57	86.33	79.71	72.51	66.44	60.36	54.91	50.11	46.00	41.70	38.62	37.06	34.51	28.14	22.75	19.57	17.37	15.46	14.22	13.75	12.60	12.25	11.60	13.07	28.36	117.6	345.1	974.5	5397	7851	1158	10.89	4.167	3.168	2.716	2.420	2.009	1.795	1.692	1.617	1.545	1.578
545.0	183.7	208.8	199.7	206.3	237.2	296.0	306.1	301.6	417.5	4078	9999.9	1496	238.0	207.8	185.1	164.7	152.1	145.6	137.5	129.4	123.9	119.5	117.7	116.3	116.4	116.0	118.2	118.6	121.7	120.2	120.3	114.6	106.2	99.63	92.12	83.91	79.19	71.73	66.35	60.20	55.32	50.14	46.32	42.88	39.11	35.53	32.81	31.96	27.87	22.36	18.82	16.22	14.82	14.32	12.46	12.28	11.58	10.63	9.916	12.71	32.30	82.95	224.6	1445	6448	6327	200.0	5.744	3.398	2.797	2.061	2.045	1.765	1.603	1.536	1.484	1.565
550.0	165.1	183.5	183.8	186.1	203.2	241.5	287.9	257.7	278.0	1143	9999.9	9999.9	566.5	186.7	162.8	145.2	134.2	125.8	118.4	113.0	107.8	102.6	102.6	99.59	100.7	100.6	100.1	101.2	104.2	104.5	102.7	98.12	91.49	85.20	80.31	73.16	68.23	62.88	57.46	53.30	48.82	44.78	41.14	38.65	35.24	32.06	28.96	27.05	26.03	21.84	18.00	14.90	13.54	12.77	11.88	11.35	10.73	9.858	8.592	8.771	12.92	23.70	55.36	328.3	1729	4727	5174	856.6	12.73	3.434	2.487	2.015	1.781	1.525	1.410	1.271	1.276
555.0	153.5	162.2	163.2	160.6	170.3	185.9	243.9	235.9	215.3	412.0	2853	9999.9	4431	171.1	139.9	125.8	117.2	106.6	100.7	96.69	92.78	87.56	86.66	85.88	85.59	86.08	84.72	86.17	87.50	87.99	86.23	81.07	79.08	72.57	66.87	62.94	58.40	53.67	49.24	46.67	42.18	39.59	35.81	33.77	30.95	28.72	26.15	22.93	22.13	20.54	17.79	14.39	12.94	11.84	11.13	10.27	9.906	9.060	8.399	7.532	7.805	9.759	16.76	77.64	389.3	1079	2952	5891	1290	14.31	2.890	2.282	1.740	1.562	1.320	1.161	1.293
560.0	139.8	157.1	146.4	142.4	149.6	159.5	203.1	228.1	190.8	234.5	791.7	9999.9	9999.9	320.6	126.1	111.6	103.2	95.98	88.89	84.17	79.79	76.15	76.55	74.19	74.06	74.63	74.93	75.03	76.50	77.45	76.24	72.91	68.59	63.74	58.97	55.62	51.67	47.59	43.74	41.16	38.30	34.35	32.01	30.55	27.99	25.87	23.46	20.72	19.41	18.49	17.12	14.04	11.79	10.64	10.09	9.639	9.044	8.500	7.698	6.655	6.433	6.807	7.961	21.56	90.80	245.3	740.9	4023	5141	225.1	5.593	2.606	1.969	1.542	1.358	1.175	1.245
565.0	135.5	146.1	142.8	130.8	129.6	144.5	165.1	217.6	173.2	179.9	309.3	4293	9999.9	1036	116.3	101.4	91.98	85.30	78.12	75.21	70.84	67.32	67.45	65.83	64.40	65.06	65.21	66.01	68.28	68.36	67.38	64.06	59.57	56.02	52.18	47.41	45.61	42.31	39.28	36.17	33.56	30.28	29.27	27.35	25.51	23.18	21.30	19.01	16.69	15.62	15.63	13.49	11.24	10.18	9.781	9.114	8.566	7.731	6.927	7.042	5.975	5.575	5.497	8.590	23.84	58.45	170.3	1125	4615	3701	30.65	3.283	2.198	1.792	1.290	1.117	1.189
570.0	127.7	127.2	120.3	111.4	111.4	117.3	128.3	175.7	169.8	150.2	180.7	1132	9999.9	9999.9	317.2	89.65	77.51	70.87	66.77	63.94	58.99	56.41	55.21	54.33	53.85	54.23	53.26	54.53	54.95	56.30	54.89	52.29	48.54	45.24	43.04	38.95	37.53	34.99	32.82	30.24	27.82	25.47	24.47	22.73	21.24	19.73	17.94	16.38	14.54	12.92	12.75	12.06	10.53	9.433	8.504	7.934	7.324	6.888	6.283	6.263	5.535	4.985	4.658	5.020	8.585	16.20	41.41	255.2	1278	3176	2746	635.2	8.720	1.967	1.573	1.180	1.139
575.0	120.2	119.2	111.2	87.44	89.89	93.83	102.5	123.5	164.2	131.3	135.1	350.7	2870	9999.9	3240	80.65	64.07	58.11	54.42	52.08	48.28	45.93	43.64	43.64	42.48	42.58	41.02	42.15	42.52	44.45	41.85	41.16	38.63	36.21	33.53	31.31	29.28	28.02	25.81	24.10	22.73	20.45	19.72	18.07	16.80	15.91	14.16	13.23	11.45	10.82	9.673	9.563	9.606	8.641	7.563	6.753	6.329	5.827	5.352	4.862	5.022	4.407	4.074	3.845	4.629	6.296	12.09	59.71	287.4	733.6	1932	3340	230.5	6.021	1.843	1.492	1.140
580.0	110.1	118.2	96.64	77.99	77.40	81.03	87.22	96.62	147.3	130.5	119.5	166.5	745.1	9999.9	7626	105.4	57.22	51.43	46.23	44.15	39.99	38.51	36.75	36.44	35.82	34.63	33.47	34.88	35.88	36.12	34.42	33.71	31.31	29.54	27.16	26.35	23.66	23.01	21.38	20.10	18.47	17.39	15.81	15.25	14.24	13.06	11.97	10.91	9.787	9.132	7.983	7.643	8.193	7.812	6.720	6.038	5.498	5.035	4.856	4.391	4.262	4.207	3.906	3.412	3.544	3.804	5.203	15.92	66.68	166.4	504.4	2491	1984	32.58	2.621	1.549	1.241
585.0	103.5	108.7	92.54	68.38	67.72	63.69	72.62	80.64	114.0	134.4	105.2	118.3	247.1	4221	9999.9	660.6	53.24	44.49	40.45	36.35	34.47	32.10	32.42	30.43	29.96	29.07	28.54	29.22	29.23	30.11	29.11	27.85	25.92	24.99	23.16	21.79	19.77	18.94	17.30	16.81	15.15	14.31	13.05	12.81	12.09	11.02	10.23	9.379	8.362	7.449	6.748	6.158	6.452	6.656	6.224	5.292	4.869	4.354	4.366	3.892	3.646	3.785	3.714	3.063	3.184	3.174	3.385	5.958	17.06	39.36	115.9	732.0	2444	1574	26.13	1.796	1.210
590.0	99.11	103.9	88.13	62.54	57.65	55.50	59.18	67.05	88.50	127.4	108.3	102.9	127.4	1062	9999.9	7923	75.83	39.04	33.28	29.74	28.04	26.42	25.76	24.08	23.76	23.35	22.69	23.15	23.01	23.33	23.13	21.78	19.98	19.60	17.99	17.36	15.79	14.83	13.85	13.29	12.41	11.45	10.63	10.21	10.16	9.080	8.150	7.476	6.738	5.932	5.422	5.034	4.930	5.505	5.460	4.753	4.204	3.788	3.672	3.264	3.109	3.023	3.088	2.924	2.702	2.520	2.604	3.218	5.831	10.60	27.86	166.1	715.9	1619	1415	128.4	4.397
595.0	87.34	87.01	78.27	59.82	47.45	50.38	51.37	59.06	70.65	105.6	114.9	95.14	98.70	294.5	2789	9999.9	2139	35.03	28.91	25.79	23.19	21.83	20.99	19.21	19.15	18.30	18.26	18.62	17.72	18.13	18.14	16.58	15.69	15.20	13.56	13.66	12.86	12.11	10.65	10.30	9.382	9.008	8.612	8.209	7.739	7.247	6.698	5.827	5.475	4.969	4.452	4.047	3.929	3.893	4.397	4.295	3.696	3.052	3.095	2.784	2.582	2.659	2.154	2.569	2.544	2.260	2.212	2.344	3.136	3.992	7.820	38.70	161.0	380.5	1043	1534	185.1
600.0	79.35	81.76	78.04	55.73	41.31	43.47	46.14	50.17	63.50	85.96	127.2	94.70	88.68	121.0	682.2	9508	5574	63.87	27.09	22.73	20.24	19.18	18.10	16.94	16.22	15.57	15.80	14.87	14.75	15.41	14.95	13.94	13.26	12.59	11.73	11.14	10.39	9.703	8.934	8.523	7.887	7.708	7.208	6.831	6.450	6.096	5.763	5.117	4.814	4.335	3.888	3.507	3.385	3.297	3.709	3.902	3.522	3.014	2.633	2.495	2.348	2.210	2.105	2.210	2.465	2.119	2.056	2.079	2.098	2.356	3.243	9.858	37.17	86.24	280.1	1275	1170
605.0	79.47	86.20	67.77	53.87	38.82	42.19	47.73	49.90	59.76	75.25	119.2	103.2	85.63	80.42	196.2	3904	9999.9	474.0	25.51	21.28	18.26	16.91	16.29	14.94	14.38	13.66	13.30	12.49	13.18	13.19	13.02	11.94	11.54	11.00	10.03	9.352	9.418	8.358	7.473	7.156	6.711	6.692	6.082	5.808	5.415	5.470	4.887	4.393	4.170	3.629	3.310	3.111	2.951	2.841	3.088	3.385	3.369	2.871	2.381	2.297	2.155	2.078	1.897	2.012	2.001	2.092	1.834	1.843	1.799	1.797	2.022	3.413	9.564	20.37	64.06	391.1	1308
610.0	79.50	82.38	65.50	48.43	35.72	37.70	43.49	46.20	54.94	70.39	100.1	118.9	86.71	70.45	85.52	954.4	8521	5990	49.68	19.93	16.52	15.04	13.51	13.08	12.05	11.88	10.96	10.72	10.85	10.81	10.96	9.997	9.857	9.128	8.515	8.136	7.738	7.101	6.382	6.060	5.478	5.337	4.958	4.917	4.704	4.469	3.954	3.762	3.545	3.088	2.732	2.696	2.412	2.357	2.512	2.689	2.672	2.512	2.279	2.045	1.912	1.939	1.733	1.765	1.648	1.853	1.859	1.793	1.597	1.593	1.658	1.840	3.170	5.515	15.16	88.67	393.5
615.0	64.07	76.89	65.56	44.16	35.01	34.80	39.63	45.35	53.32	67.32	85.48	121.6	93.76	69.95	59.61	242.5	2370	9999.9	539.6	21.09	15.38	13.75	12.27	11.38	10.22	10.17	9.592	9.074	9.126	9.150	8.418	8.380	8.213	7.751	6.702	6.476	6.322	6.009	5.555	5.126	4.652	4.505	4.240	4.025	3.746	3.691	3.234	3.209	2.725	2.463	2.264	2.199	1.953	2.009	2.096	2.129	2.117	2.258	1.990	1.863	1.651	1.691	1.576	1.678	1.455	1.599	1.744	1.636	1.413	1.266	1.279	1.315	1.598	2.120	4.133	20.77	88.43
620.0	66.34	77.06	59.43	46.33	33.00	31.02	35.54	42.32	53.62	64.25	83.46	108.7	105.1	67.89	51.21	81.74	566.6	7765	4187	40.20	15.18	12.68	11.65	10.56	9.502	8.802	8.610	8.127	7.963	7.950	7.565	7.379	7.012	6.754	6.234	5.954	5.711	5.543	4.977	4.398	4.015	3.821	3.568	3.504	3.354	3.048	2.803	2.713	2.342	2.340	2.048	1.900	1.785	1.816	1.750	1.935	1.842	1.781	1.973	1.804	1.494	1.584	1.310	1.526	1.272	1.419	1.462	1.613	1.570	1.391	1.192	1.193	1.211	1.316	1.560	5.431	20.38
625.0	72.15	70.90	59.26	40.41	28.34	30.81	32.68	38.96	53.61	64.14	76.06	96.54	108.9	72.22	48.98	44.50	149.3	3118	9386	332.3	15.21	12.23	10.79	10.03	8.839	8.094	8.021	7.235	7.345	6.854	6.839	6.561	6.093	5.942	5.660	5.513	5.197	4.820	4.212	4.102	3.525	3.203	3.023	3.049	2.862	2.747	2.540	2.557	2.063	2.001	1.990	1.690	1.602	1.584	1.613	1.574	1.730	1.592	1.806	1.664	1.328	1.549	1.374	1.326	1.198	1.151	1.237	1.433	1.510	1.434	1.234	1.089	1.116	0.971	0.932	1.884	5.119
630.0	67.04	72.45	58.94	41.30	30.30	28.55	33.46	37.80	47.35	58.46	72.83	85.82	100.2	79.09	49.26	35.60	53.44	753.5	7140	4498	35.52	12.70	10.15	9.157	7.784	7.407	6.726	6.440	6.477	5.987	5.869	5.725	5.117	4.995	4.736	4.621	4.360	4.007	3.547	3.543	3.003	2.743	2.729	2.552	2.507	2.331	2.349	1.945	1.881	1.751	1.595	1.436	1.392	1.403	1.299	1.394	1.399	1.388	1.456	1.405	1.242	1.337	1.222	1.124	1.243	1.050	1.141	1.222	1.253	1.273	1.181	1.102	0.914	0.845	0.759	1.018	1.704
635.0	61.29	65.51	56.88	36.68	26.78	29.00	30.57	35.46	46.05	56.67	72.06	81.18	86.25	86.42	50.35	33.17	31.00	184.0	1982	8449	448.8	14.00	10.22	9.014	6.857	6.349	5.962	5.705	5.663	5.077	4.953	4.737	4.391	4.279	3.847	3.723	3.436	3.366	3.044	2.881	2.779	2.646	2.320	2.048	2.208	2.055	1.885	1.787	1.703	1.454	1.309	1.234	1.345	1.173	1.203	1.135	1.191	1.076	1.120	1.197	1.297	1.153	1.120	0.967	0.955	1.060	1.148	1.117	1.059	1.173	1.173	1.084	0.934	0.773	0.757	0.731	0.920
640.0	64.27	64.68	53.69	37.70	28.41	26.78	30.99	36.14	43.96	54.99	68.26	79.17	77.78	84.02	53.60	31.78	25.70	55.91	468.1	6457	3443	28.04	10.33	8.217	6.740	5.688	5.633	5.217	4.938	4.813	4.586	4.321	3.962	3.842	3.355	3.360	3.101	2.922	2.821	2.453	2.473	2.527	2.019	1.895	2.024	1.858	1.618	1.581	1.618	1.279	1.192	1.144	1.069	1.035	1.008	1.064	1.082	1.029	1.026	1.039	1.111	1.032	1.087	0.992	0.951	1.150	1.056	1.093	0.867	0.961	1.137	1.059	0.891	0.839	0.645	0.721	0.675
645.0	64.28	68.99	53.91	38.73	28.13	26.53	30.65	34.75	42.91	55.79	68.94	76.33	74.25	79.49	61.44	32.87	24.15	26.83	119.4	2703	7291	272.2	10.63	8.356	6.894	6.003	5.270	4.711	4.833	4.502	4.452	3.934	3.657	3.723	3.201	3.132	2.938	2.606	2.398	2.302	2.157	2.362	2.098	1.834	1.662	1.668	1.569	1.495	1.398	1.261	1.005	1.045	1.025	1.015	1.153	1.048	1.036	1.013	0.977	0.940	0.995	0.925	1.018	0.981	0.884	0.886	0.905	0.992	0.782	0.930	0.925	0.998	0.864	0.779	0.641	0.685	0.669
650.0	70.69	64.68	51.15	36.00	25.14	24.99	28.75	31.93	41.44	53.81	65.07	72.85	71.80	69.15	65.77	33.99	24.02	20.61	39.23	702.0	7229	2094	12.73	8.258	6.928	5.619	5.290	4.647	4.422	4.085	4.640	3.620	3.709	3.418	3.108	2.841	2.806	2.654	2.303	2.006	1.999	2.064	2.026	1.645	1.452	1.620	1.487	1.442	1.429	1.091	0.975	0.939	0.987	1.079	1.072	0.929	0.873	0.934	0.925	0.815	0.845	0.832	0.905	0.886	0.925	0.797	0.837	0.833	0.867	0.859	0.757	0.910	0.866	0.732	0.586	0.601	0.602
