Sample:	'1
File name:	y2041炜烨热电原水.FD3
Run date:	'09:06:29, 03/09/2024
Operator:	Administrator
Comment:	'

Instrument
Model:	F-2700 FL Spectrophotometer
Serial number:	23B8-004
ROM Version:	4J14000 07

Instrument parameters
Measurement type:	3-D scan
Data mode:	Fluorescence
EX  Start WL:	220.0 nm
EX  End WL:	600.0 nm
EX Sampling interval:	5.0 nm
EM  Start WL:	230.0 nm
EM  End WL:	650.0 nm
EM Sampling interval:	5.0 nm
Scan speed:	12000 nm/min
EX Slit:	5.0 nm
EM Slit:	5.0 nm
PMT Voltage:	700 V
Response:	Auto 
Corrected spectra:	Off
Contour interval:	50.000

Peak integration
Integration method:	Rectangular
Sensitivity:	1
Threshold:	1.000

Peaks
No.	ApexEX/EM(nm)	Height(Data)
1	225.0/585.0	18.72
2	225.0/615.0	15.72
3	230.0/340.0	428.2
4	230.0/500.0	188.0
5	235.0/405.0	262.0
6	235.0/510.0	160.8
7	240.0/400.0	260.3
8	240.0/525.0	152.8
9	245.0/270.0	383.9
10	245.0/405.0	260.3
11	245.0/535.0	130.1
12	250.0/275.0	476.5
13	250.0/425.0	240.8
14	250.0/550.0	114.9
15	255.0/280.0	587.1
16	255.0/435.0	233.1
17	255.0/560.0	107.9
18	260.0/285.0	554.6
19	260.0/570.0	88.38
20	265.0/585.0	87.28
21	270.0/300.0	783.9
22	270.0/595.0	74.63
23	275.0/305.0	872.8
24	275.0/335.0	358.3
25	275.0/610.0	61.21
26	280.0/310.0	730.9
27	280.0/625.0	54.13
28	285.0/315.0	729.5
29	285.0/635.0	41.34
30	290.0/325.0	616.0
31	295.0/330.0	461.3
32	300.0/335.0	412.2
33	305.0/340.0	358.1
34	310.0/350.0	264.0
35	315.0/355.0	243.5
36	320.0/360.0	245.4
37	330.0/375.0	185.9
38	335.0/380.0	200.9
39	340.0/385.0	174.8
40	350.0/400.0	153.5
41	355.0/405.0	140.2
42	365.0/420.0	118.5
43	370.0/425.0	104.6
44	380.0/440.0	79.85
45	385.0/445.0	70.16
46	395.0/460.0	49.97
47	400.0/465.0	44.55
48	405.0/470.0	35.67
49	410.0/480.0	30.00
50	415.0/485.0	27.34
51	420.0/490.0	22.67
52	425.0/495.0	20.46
53	430.0/505.0	18.10
54	435.0/510.0	15.42
55	440.0/515.0	13.33
56	445.0/525.0	11.49
57	450.0/530.0	9.598
58	460.0/545.0	6.000
59	470.0/560.0	3.729
60	485.0/265.0	2.232
61	495.0/270.0	2.193
62	505.0/275.0	3.459
63	510.0/280.0	3.579
64	520.0/285.0	3.939
65	530.0/290.0	3.544
66	540.0/295.0	4.851
67	545.0/300.0	4.976
68	550.0/305.0	4.890
69	560.0/310.0	4.331
70	575.0/315.0	4.331
71	580.0/320.0	4.256
72	585.0/325.0	4.074

Data points
	220.0	225.0	230.0	235.0	240.0	245.0	250.0	255.0	260.0	265.0	270.0	275.0	280.0	285.0	290.0	295.0	300.0	305.0	310.0	315.0	320.0	325.0	330.0	335.0	340.0	345.0	350.0	355.0	360.0	365.0	370.0	375.0	380.0	385.0	390.0	395.0	400.0	405.0	410.0	415.0	420.0	425.0	430.0	435.0	440.0	445.0	450.0	455.0	460.0	465.0	470.0	475.0	480.0	485.0	490.0	495.0	500.0	505.0	510.0	515.0	520.0	525.0	530.0	535.0	540.0	545.0	550.0	555.0	560.0	565.0	570.0	575.0	580.0	585.0	590.0	595.0	600.0
230.0	42.67	1742	5356	1747	56.93	6.006	5.015	3.605	3.191	3.138	2.589	2.683	2.214	1.951	1.697	1.548	1.275	1.007	1.057	1.061	0.849	0.731	0.788	0.676	0.657	0.502	0.471	0.424	0.465	0.409	0.466	0.312	0.354	0.369	0.282	0.279	0.227	0.250	0.196	0.216	0.291	0.393	0.469	0.298	0.206	0.229	1.891	9.317	16.46	12.37	5.015	0.833	0.189	0.104	0.139	0.111	0.105	0.088	0.104	0.075	0.074	0.073	0.045	0.042	0.032	0.036	0.049	0.031	0.041	-0.002	0.001	0.006	0.007	0.013	0.026	0.016	0.004
235.0	103.7	455.2	2812	5041	1994	104.8	6.834	4.179	3.989	3.699	3.027	2.631	2.133	2.054	1.975	1.705	1.493	1.120	1.134	1.072	0.847	0.771	0.918	0.693	0.786	0.535	0.509	0.520	0.603	0.458	0.396	0.381	0.304	0.428	0.275	0.318	0.233	0.305	0.264	0.227	0.279	0.266	0.400	0.479	0.557	0.286	0.573	2.396	5.816	11.16	15.00	16.40	8.865	1.845	0.205	0.189	0.079	0.067	0.103	0.100	0.079	0.072	0.076	0.061	0.021	0.057	0.053	0.050	0.050	0.010	-0.006	0.023	0.004	0.006	0.001	0.009	-0.010
240.0	157.7	199.4	760.3	3604	4586	470.4	48.03	6.809	5.059	5.323	3.585	3.494	2.193	2.299	2.061	1.876	1.511	1.025	1.053	1.125	0.969	0.821	0.857	0.781	0.684	0.565	0.525	0.442	0.467	0.409	0.462	0.397	0.333	0.400	0.314	0.291	0.265	0.289	0.256	0.272	0.255	0.209	0.232	0.355	0.823	0.813	0.549	0.728	1.440	3.191	7.435	18.15	24.05	17.89	7.272	1.003	0.140	0.080	0.102	0.065	0.077	0.065	0.073	0.054	0.066	0.056	0.064	0.037	0.007	0.058	-0.006	0.020	0.007	0.001	-0.006	-0.003	-0.015
245.0	110.9	230.0	244.1	1094	4690	3642	369.9	21.36	7.204	6.032	4.434	4.449	3.086	2.634	2.140	1.623	1.487	1.689	1.020	1.402	0.998	0.943	0.938	0.855	0.680	0.637	0.522	0.536	0.378	0.425	0.409	0.383	0.439	0.259	0.246	0.302	0.285	0.272	0.260	0.228	0.262	0.190	0.247	0.255	0.409	0.690	0.861	0.842	0.579	0.890	1.843	5.654	14.83	25.52	26.80	15.98	4.652	0.267	0.127	0.069	0.105	0.108	0.051	0.087	0.058	0.075	0.073	0.024	0.063	0.048	0.005	0.066	0.036	0.016	0.008	0.000	0.004
250.0	38.21	152.7	273.3	355.2	1376	3758	4752	1370	95.17	8.984	7.062	5.618	4.303	3.221	2.686	1.964	1.924	1.772	1.286	1.383	1.133	0.928	0.884	0.908	0.889	0.761	0.502	0.511	0.459	0.427	0.422	0.384	0.362	0.320	0.313	0.319	0.282	0.296	0.209	0.238	0.214	0.240	0.227	0.228	0.234	0.321	0.505	0.831	1.012	1.024	0.901	1.492	3.601	7.640	14.64	22.58	27.20	26.81	13.34	4.227	0.427	0.136	0.097	0.096	0.080	0.098	0.073	0.045	0.060	0.037	0.024	0.039	0.012	0.038	0.013	0.035	0.022
255.0	19.76	47.70	161.7	372.7	411.8	908.2	3302	7901	1987	114.9	10.39	7.617	5.716	4.935	3.015	2.687	2.147	1.783	1.318	1.561	1.315	1.009	1.069	0.888	0.841	0.692	0.461	0.545	0.630	0.559	0.382	0.461	0.398	0.367	0.291	0.398	0.251	0.272	0.276	0.221	0.242	0.246	0.228	0.225	0.229	0.199	0.287	0.378	0.482	0.893	1.685	1.706	1.304	1.865	3.499	5.355	9.230	21.80	42.32	30.30	20.18	4.505	0.266	0.131	0.097	0.108	0.076	0.066	0.087	0.069	0.060	0.032	0.001	0.030	0.005	0.054	0.034
260.0	14.71	19.89	59.13	279.5	374.3	264.4	913.3	5354	9249	1588	64.63	11.40	7.487	6.026	3.775	3.525	2.253	2.107	1.770	1.715	1.180	1.078	1.098	0.953	0.867	0.749	0.617	0.564	0.646	0.508	0.383	0.476	0.388	0.301	0.363	0.345	0.257	0.290	0.287	0.185	0.284	0.217	0.214	0.271	0.249	0.185	0.261	0.275	0.266	0.435	1.040	1.858	2.053	1.221	1.171	1.386	2.227	5.639	16.61	34.61	55.81	29.57	15.99	1.996	0.221	0.181	0.128	0.089	0.103	0.097	0.046	0.030	0.047	0.018	0.029	0.033	0.043
265.0	14.89	16.13	26.88	113.5	389.7	281.2	240.2	1595	8035	9999.9	1135	25.33	9.497	7.497	5.055	4.374	2.806	2.669	2.018	1.830	1.408	1.168	1.452	1.077	0.930	0.824	0.683	0.697	0.659	0.686	0.469	0.482	0.443	0.428	0.400	0.435	0.240	0.308	0.276	0.199	0.295	0.367	0.312	0.215	0.269	0.185	0.220	0.243	0.195	0.277	0.403	0.873	1.802	2.232	1.675	0.738	0.661	1.434	3.986	9.767	27.13	53.98	68.99	26.39	9.151	0.622	0.186	0.160	0.086	0.144	0.068	0.088	0.089	0.051	0.076	0.059	0.048
270.0	21.56	22.07	20.99	39.10	162.6	383.9	302.8	412.3	2286	7831	9999.9	3900	67.70	12.41	7.590	5.613	3.942	3.497	2.552	2.186	1.721	1.378	1.406	1.179	1.034	0.919	0.721	0.764	0.750	0.743	0.643	0.586	0.503	0.498	0.437	0.423	0.345	0.347	0.301	0.289	0.311	0.308	0.334	0.297	0.289	0.280	0.241	0.250	0.214	0.242	0.233	0.358	0.646	1.085	1.892	2.193	1.967	1.170	1.208	2.458	6.430	15.06	30.94	45.42	61.91	54.16	17.00	7.292	0.703	0.208	0.106	0.129	0.103	0.081	0.116	0.098	0.059
275.0	35.68	39.15	31.50	25.28	49.29	149.2	476.5	357.6	557.7	1855	5747	9999.9	4948	78.98	11.88	8.071	5.100	4.566	3.393	3.177	2.187	1.947	1.620	1.475	1.157	1.164	0.899	0.786	0.964	0.759	0.741	0.655	0.517	0.528	0.638	0.501	0.442	0.479	0.411	0.321	0.352	0.341	0.356	0.422	0.337	0.322	0.311	0.372	0.211	0.315	0.257	0.236	0.378	0.388	0.605	0.979	2.062	3.459	2.669	1.291	1.790	3.594	7.154	10.52	17.44	38.03	74.80	90.35	26.66	8.812	0.539	0.215	0.169	0.139	0.116	0.128	0.058
280.0	64.62	61.72	45.30	30.63	25.88	53.53	253.8	587.1	298.1	461.1	1506	8922	9999.9	1018	46.90	10.94	7.453	5.829	4.424	3.162	2.604	2.027	2.134	1.513	1.327	1.048	1.034	0.881	0.904	0.897	0.800	0.817	0.591	0.587	0.601	0.677	0.507	0.479	0.380	0.345	0.427	0.371	0.383	0.458	0.351	0.352	0.321	0.389	0.351	0.382	0.281	0.294	0.281	0.233	0.301	0.390	0.849	2.159	3.579	3.321	1.617	1.144	1.825	2.687	4.242	9.443	24.57	60.57	99.33	87.56	22.06	3.975	0.388	0.168	0.173	0.152	0.134
285.0	77.09	79.41	65.84	39.87	27.27	27.89	96.88	436.9	554.6	208.3	395.8	2548	9999.9	9999.9	726.2	22.14	10.11	7.523	4.757	4.029	3.043	2.396	2.373	1.754	1.642	1.235	1.057	1.029	1.040	1.070	0.725	0.835	0.823	0.572	0.660	0.624	0.508	0.507	0.467	0.467	0.383	0.396	0.508	0.362	0.552	0.433	0.480	0.545	0.438	0.426	0.291	0.292	0.266	0.246	0.245	0.266	0.419	0.857	1.562	3.236	3.939	2.392	1.037	0.983	1.309	2.551	5.919	15.46	39.87	80.77	104.2	32.29	16.00	1.631	0.274	0.233	0.194
290.0	105.7	116.6	99.07	61.96	39.30	32.63	50.74	160.1	474.2	470.1	223.8	654.5	2798	9999.9	9999.9	2745	42.89	11.66	7.076	5.497	3.809	3.205	2.650	2.116	1.838	1.563	1.338	1.142	1.099	1.081	0.963	0.883	0.942	0.766	0.756	0.683	0.591	0.586	0.488	0.469	0.480	0.504	0.535	0.485	0.518	0.543	0.557	0.602	0.570	0.485	0.394	0.389	0.325	0.293	0.267	0.272	0.341	0.488	0.606	1.170	2.127	3.175	3.544	2.762	1.419	1.157	1.763	3.935	9.471	20.30	38.11	57.17	81.45	66.59	60.62	11.63	2.335
295.0	118.4	157.0	138.1	86.14	52.74	48.67	56.33	84.87	184.0	499.6	653.9	297.9	725.9	2361	6192	9999.9	3792	48.94	11.30	8.545	5.370	3.728	3.481	2.901	2.227	1.678	1.363	1.467	1.418	1.053	1.147	0.809	0.814	0.847	0.816	0.776	0.662	0.783	0.666	0.556	0.456	0.519	0.583	0.482	0.568	0.666	0.717	0.737	0.689	0.584	0.480	0.483	0.443	0.397	0.349	0.339	0.385	0.499	0.468	0.708	0.980	1.301	1.936	3.547	4.851	2.887	1.450	1.571	2.682	5.217	9.115	13.35	20.14	32.08	95.03	109.9	34.38
300.0	140.9	186.1	161.3	111.8	68.04	62.93	71.96	83.44	126.6	266.9	783.9	537.3	303.0	637.3	1584	9121	9999.9	612.1	30.85	11.54	6.767	4.763	4.549	3.344	2.982	1.975	1.575	1.511	1.551	1.178	1.186	0.831	0.912	0.816	0.889	0.802	0.764	0.776	0.699	0.637	0.557	0.578	0.605	0.549	0.689	0.689	0.709	0.937	0.800	0.761	0.522	0.585	0.526	0.430	0.406	0.408	0.499	0.473	0.571	0.564	0.702	0.810	1.085	1.753	3.606	4.976	3.938	1.983	1.540	1.877	2.872	3.704	5.008	7.942	25.77	54.26	95.68
305.0	160.3	208.1	192.3	135.3	87.82	80.89	89.81	99.52	134.7	194.7	495.8	872.8	375.6	287.3	455.4	2509	9999.9	9999.9	470.4	19.11	9.200	6.401	5.484	4.119	3.271	2.460	1.957	1.845	1.668	1.512	1.234	1.063	1.195	0.961	0.942	0.945	0.789	0.880	0.697	0.697	0.731	0.669	0.658	0.736	0.767	0.845	0.865	0.985	0.841	0.785	0.644	0.698	0.611	0.481	0.565	0.506	0.555	0.503	0.740	0.706	0.793	0.827	0.936	1.286	1.925	3.094	4.890	4.717	2.885	1.731	1.467	1.688	1.926	2.487	6.421	13.01	30.52
310.0	175.7	222.9	213.3	155.0	104.5	97.63	109.8	125.6	157.7	202.1	317.5	601.2	730.9	384.3	231.2	645.6	2778	9999.9	9756	2055	31.62	9.617	7.117	5.779	4.083	3.041	2.390	2.154	1.952	1.672	1.374	1.242	1.241	1.074	1.105	1.021	0.832	0.874	0.777	0.847	0.788	0.778	0.678	0.791	0.777	0.882	0.960	1.035	0.945	0.833	0.766	0.717	0.673	0.586	0.662	0.505	0.687	0.633	0.762	0.831	0.882	1.021	1.116	1.194	1.384	1.840	2.464	3.375	4.331	4.022	3.040	1.794	1.395	1.373	2.025	3.513	7.393
315.0	200.7	249.8	245.2	166.6	124.0	110.9	124.8	142.5	175.8	215.0	288.9	380.6	539.9	729.5	303.1	246.5	687.1	2313	6020	9999.9	2979	36.71	10.40	7.847	5.561	3.548	2.758	2.615	2.083	1.830	1.740	1.398	1.380	1.142	1.134	1.118	0.866	0.960	0.845	0.832	0.779	0.826	0.865	0.845	0.916	0.878	0.905	1.243	1.051	0.994	0.850	0.926	0.686	0.700	0.638	0.641	0.920	0.828	0.804	1.082	1.006	1.155	1.100	1.403	1.416	1.563	1.849	2.130	2.550	3.079	4.302	4.331	2.493	1.652	1.321	1.590	2.344
320.0	220.0	299.6	286.3	193.6	136.1	122.0	139.5	155.5	188.8	232.8	298.6	352.7	390.3	631.2	550.2	200.6	228.8	569.3	1502	9050	9999.9	475.1	26.03	11.25	6.286	4.525	3.405	3.118	2.822	2.011	1.857	1.523	1.409	1.240	1.141	1.195	1.048	0.917	0.883	0.961	0.903	0.848	0.945	0.834	1.055	1.029	1.171	1.371	1.139	1.027	0.896	0.838	0.766	0.813	0.771	0.708	0.960	0.831	0.939	1.010	1.137	1.152	1.129	1.312	1.564	1.534	1.769	1.920	2.132	2.174	2.784	3.900	4.256	3.399	1.537	1.113	1.170
325.0	245.9	342.9	333.6	221.4	147.7	132.6	148.4	161.9	201.1	240.3	308.8	351.5	355.6	426.4	616.0	354.1	140.3	183.8	374.2	2448	9999.9	9999.9	398.1	18.21	8.300	6.067	3.895	3.583	2.916	2.348	1.967	1.841	1.438	1.274	1.203	1.133	1.135	1.129	0.919	1.027	0.947	1.014	0.921	0.978	1.106	1.282	1.351	1.489	1.271	1.232	1.032	1.025	0.887	0.848	0.852	0.706	0.822	0.905	1.016	0.966	1.094	1.219	1.445	1.311	1.568	1.678	1.735	1.824	2.071	1.927	2.058	2.450	3.008	4.074	3.441	1.884	1.208
330.0	259.1	369.5	374.7	272.0	183.3	149.4	151.0	168.5	209.0	249.8	318.7	357.8	353.7	345.1	390.1	461.3	274.9	110.0	128.9	582.8	2687	8480	9999.9	1714	28.16	8.831	5.784	4.493	3.796	2.910	2.657	2.135	1.726	1.575	1.361	1.252	1.103	1.076	1.013	0.948	0.931	1.034	0.943	1.103	1.156	1.343	1.355	1.649	1.449	1.359	1.233	1.232	1.063	0.955	0.840	0.846	0.984	1.014	1.031	0.989	1.138	1.297	1.332	1.390	1.445	1.568	1.784	2.036	2.011	1.915	2.065	1.953	1.972	2.411	2.800	3.129	2.674
335.0	263.2	400.0	415.0	307.2	216.2	173.9	161.7	177.8	217.4	252.7	320.4	358.3	353.9	327.5	289.4	297.5	412.2	224.4	87.21	170.2	630.3	1949	5949	9999.9	2782	33.01	7.933	6.178	4.952	3.827	3.033	2.499	2.180	1.787	1.558	1.516	1.213	1.167	1.063	0.948	1.012	1.084	1.016	1.030	1.237	1.529	1.490	1.794	1.719	1.500	1.290	1.285	1.135	1.025	0.946	0.995	1.104	0.971	0.958	1.105	1.105	1.303	1.425	1.376	1.553	1.700	1.821	1.950	1.938	1.971	2.008	1.906	1.665	1.717	1.805	1.799	2.298
340.0	292.1	383.5	428.2	334.2	226.6	183.6	175.1	185.0	215.9	249.1	311.1	346.8	343.9	323.5	264.5	228.1	299.8	358.1	129.4	84.01	176.6	464.7	1480	8889	9999.9	2051	21.89	7.911	6.068	4.582	3.623	2.978	2.272	1.939	1.834	1.586	1.400	1.462	1.067	1.139	0.930	1.000	1.091	0.927	1.147	1.454	1.570	1.788	1.610	1.655	1.472	1.530	1.152	1.116	1.059	0.927	0.943	1.015	1.082	1.182	1.172	1.258	1.262	1.467	1.556	1.806	1.872	1.889	1.940	1.891	1.900	1.876	1.623	1.682	1.475	1.377	1.542
345.0	273.6	361.1	406.8	347.1	246.6	191.6	177.1	185.2	207.0	242.0	297.1	326.8	327.2	309.8	252.7	208.2	199.5	319.5	251.6	80.17	78.91	137.6	358.9	2396	9999.9	9999.9	358.5	12.84	7.185	5.535	3.923	3.117	2.471	2.184	1.810	1.690	1.300	1.343	1.125	1.123	0.985	1.105	1.049	1.107	1.136	1.389	1.470	1.760	1.547	1.680	1.449	1.320	1.187	1.134	1.134	0.984	1.079	1.121	1.139	1.031	1.314	1.300	1.296	1.479	1.439	1.695	1.756	1.945	1.669	1.637	1.745	1.867	1.583	1.542	1.492	1.251	1.119
350.0	242.4	345.5	381.6	326.8	250.8	201.4	189.8	192.6	206.6	233.0	282.0	308.7	311.0	294.7	248.7	203.2	167.1	190.3	264.0	199.5	72.59	70.26	112.5	563.9	2732	7914	8953	1511	26.02	7.366	5.148	3.790	2.887	2.345	1.926	1.641	1.434	1.380	1.083	1.121	1.052	1.064	1.000	1.133	1.121	1.279	1.361	1.630	1.502	1.500	1.322	1.423	1.304	1.025	1.129	0.937	1.112	1.104	1.162	1.105	1.230	1.337	1.225	1.373	1.417	1.569	1.592	1.680	1.700	1.722	1.670	1.710	1.533	1.474	1.423	1.229	1.207
355.0	227.3	308.6	361.9	321.0	255.6	207.9	198.9	198.7	209.2	235.4	262.8	286.8	290.8	276.4	237.7	200.6	165.4	147.3	159.7	243.5	177.8	68.36	64.48	157.3	632.5	1813	4824	9999.9	2588	31.41	7.183	4.798	3.549	2.747	2.137	1.788	1.643	1.404	1.175	1.163	1.062	1.029	1.106	0.952	1.083	1.215	1.254	1.482	1.598	1.444	1.299	1.415	1.158	1.137	1.065	0.961	1.196	1.044	1.154	1.079	1.165	1.176	1.275	1.296	1.318	1.471	1.419	1.684	1.625	1.590	1.590	1.432	1.597	1.404	1.212	1.414	1.266
360.0	215.3	293.1	336.8	309.7	248.9	220.8	200.7	206.0	210.3	231.0	253.2	273.7	275.3	265.2	234.0	200.6	165.5	142.5	128.7	173.3	245.4	123.3	59.76	70.26	169.9	427.0	1199	7184	9999.9	2001	22.20	6.896	4.484	3.247	2.580	1.986	1.730	1.497	1.168	1.275	1.190	1.010	1.119	0.998	1.179	1.130	1.271	1.382	1.438	1.382	1.176	1.405	1.201	1.231	1.200	1.077	1.207	1.099	1.058	1.121	1.209	1.162	1.206	1.338	1.237	1.397	1.330	1.541	1.437	1.554	1.456	1.585	1.464	1.329	1.271	1.298	1.208
365.0	199.2	278.7	311.3	301.9	256.5	227.1	210.3	206.0	214.3	228.9	248.3	271.0	264.2	255.7	228.8	201.0	168.7	147.7	128.8	128.8	206.9	206.8	84.63	57.35	69.87	121.8	289.8	1940	9311	9999.9	348.6	12.51	6.038	4.146	3.036	2.471	1.838	1.529	1.334	1.326	1.350	1.047	1.026	1.036	1.066	1.038	1.215	1.345	1.415	1.375	1.236	1.405	1.311	1.190	1.217	1.086	1.195	1.157	1.128	1.192	1.116	1.063	1.201	1.311	1.300	1.255	1.285	1.467	1.420	1.448	1.590	1.414	1.395	1.292	1.248	1.195	1.191
370.0	179.0	257.2	297.6	289.5	265.7	241.7	221.9	216.2	219.6	230.3	243.8	254.9	253.7	243.8	222.1	198.7	174.0	153.0	135.3	123.6	139.1	195.1	177.0	83.25	56.03	58.84	89.97	454.7	2522	7845	9840	1379	22.85	5.995	4.185	3.167	2.212	2.144	1.503	1.349	1.274	1.092	1.097	1.067	1.068	1.062	1.152	1.272	1.334	1.210	1.244	1.337	1.263	1.336	1.264	1.153	1.193	1.220	1.126	1.221	1.226	1.129	1.249	1.295	1.295	1.335	1.364	1.337	1.345	1.398	1.341	1.389	1.285	1.249	1.343	1.223	1.158
375.0	186.9	243.0	277.5	274.1	267.0	242.7	230.9	222.2	220.4	228.8	245.8	243.0	244.3	232.4	215.3	195.8	175.9	156.0	143.9	129.6	120.7	131.8	185.9	167.7	73.09	51.32	50.14	125.3	581.6	1802	5504	9999.9	2272	27.58	5.997	4.060	2.971	2.499	1.612	1.658	1.422	1.360	1.242	1.220	1.223	1.191	1.188	1.287	1.245	1.145	1.227	1.363	1.333	1.327	1.248	1.224	1.162	1.419	1.270	1.285	1.220	1.132	1.143	1.186	1.284	1.218	1.276	1.354	1.230	1.289	1.381	1.361	1.428	1.394	1.411	1.144	1.180
380.0	175.1	229.7	277.2	271.7	266.6	253.5	232.3	232.3	223.6	230.9	240.1	243.1	236.2	222.9	207.1	192.3	174.2	163.1	148.2	133.6	119.3	114.4	137.7	200.9	119.9	56.58	46.07	55.31	153.2	421.5	1388	7123	9999.9	1638	18.39	4.889	3.596	2.906	2.104	1.823	1.414	1.427	1.208	1.245	1.198	1.150	1.142	1.218	1.271	1.142	1.180	1.348	1.241	1.240	1.246	1.235	1.204	1.229	1.334	1.258	1.162	1.265	1.236	1.289	1.220	1.354	1.271	1.163	1.225	1.255	1.303	1.331	1.429	1.189	1.299	1.223	1.510
385.0	168.3	228.0	266.6	269.7	265.9	253.0	244.0	237.5	231.7	230.5	235.7	241.4	232.7	222.0	204.1	190.9	175.1	162.9	147.5	138.6	122.7	112.2	112.2	160.8	174.8	82.65	49.89	42.90	60.15	115.1	328.1	1944	8671	8676	285.5	9.585	4.512	3.451	2.495	2.225	1.722	1.648	1.360	1.327	1.196	1.231	1.264	1.259	1.229	1.145	1.042	1.413	1.296	1.315	1.374	1.108	1.413	1.275	1.297	1.318	1.211	1.224	1.186	1.263	1.248	1.341	1.264	1.293	1.290	1.276	1.258	1.336	1.429	1.314	1.192	1.122	1.254
390.0	173.0	221.5	254.2	270.4	256.0	254.8	251.9	237.6	231.8	233.8	232.7	233.9	224.9	216.1	203.1	187.4	174.0	164.2	150.1	141.0	127.0	116.8	109.7	116.6	154.9	144.0	75.07	47.88	44.04	50.45	93.08	450.9	2360	6478	7892	1099	18.95	5.190	3.380	2.750	2.154	1.856	1.623	1.407	1.297	1.216	1.222	1.256	1.219	1.191	1.081	1.396	1.251	1.291	1.258	1.219	1.340	1.327	1.358	1.423	1.191	1.298	1.194	1.185	1.225	1.282	1.152	1.224	1.253	1.176	1.199	1.147	1.300	1.280	1.247	1.256	1.232
395.0	168.6	222.8	247.3	264.0	259.4	253.3	249.3	243.0	235.3	235.1	231.5	226.8	217.3	209.4	196.4	181.3	173.0	162.0	152.7	143.0	129.5	120.7	111.7	107.2	110.8	141.8	135.2	67.06	45.32	41.12	44.48	118.6	539.8	1491	4548	9067	1872	24.65	4.635	3.726	2.720	2.071	1.808	1.533	1.311	1.272	1.246	1.316	1.242	1.296	1.147	1.287	1.389	1.299	1.215	1.133	1.396	1.270	1.438	1.343	1.225	1.272	1.234	1.106	1.294	1.368	1.137	1.196	1.187	1.153	1.146	0.985	1.176	1.058	1.126	1.256	1.466
400.0	158.6	214.7	251.7	259.8	260.3	259.6	245.3	240.9	240.3	236.2	233.1	220.9	211.1	202.4	189.1	175.6	164.7	160.9	149.6	142.6	131.2	122.7	113.1	104.0	98.29	110.0	153.5	105.4	53.41	41.77	36.05	46.92	136.0	345.6	1152	5942	8303	1471	16.30	4.459	2.961	2.765	2.162	1.755	1.462	1.204	1.280	1.355	1.306	1.269	1.157	1.258	1.291	1.225	1.264	1.257	1.337	1.230	1.301	1.412	1.204	1.230	1.282	1.334	1.234	1.298	1.144	1.125	1.106	1.194	1.133	1.156	1.165	1.185	1.258	1.098	1.427
405.0	148.6	208.1	246.9	262.0	254.9	260.3	247.4	242.5	239.5	231.1	227.5	220.6	210.0	198.2	187.4	171.9	164.0	160.0	150.4	142.3	131.0	121.5	113.6	106.7	97.94	93.61	124.1	140.2	74.41	46.03	37.13	33.40	47.51	90.22	269.1	1614	6710	7645	256.5	9.432	3.823	2.992	2.426	1.708	1.584	1.405	1.237	1.396	1.211	1.225	1.192	1.218	1.273	1.231	1.293	1.165	1.289	1.316	1.532	1.350	1.245	1.301	1.288	1.324	1.119	1.282	1.122	1.152	1.268	1.218	1.099	1.112	1.230	1.231	1.180	1.108	1.073
410.0	153.3	204.0	243.2	252.3	248.7	253.2	245.2	248.3	239.5	231.9	226.0	216.4	204.0	191.9	180.2	166.2	158.4	152.4	144.9	138.0	128.2	121.7	114.4	107.2	98.99	90.04	93.23	121.0	119.0	67.40	41.65	32.25	30.10	35.28	71.98	370.3	1802	5617	6030	1056	17.26	4.101	2.876	2.036	1.981	1.605	1.411	1.428	1.279	1.275	1.150	1.240	1.344	1.181	1.267	1.240	1.284	1.362	1.387	1.330	1.336	1.342	1.249	1.171	1.186	1.186	1.084	1.090	1.191	1.123	1.093	1.023	1.106	1.171	1.172	1.132	1.045
415.0	142.8	196.7	232.5	236.3	242.3	247.3	235.9	243.3	237.7	229.4	222.8	213.1	200.5	184.4	170.7	157.4	154.8	143.9	138.8	132.2	125.0	119.9	113.1	107.6	97.65	90.63	84.15	87.73	113.3	110.8	53.76	34.78	28.82	25.10	29.31	93.00	410.0	1290	3271	7811	1716	23.00	3.974	2.705	2.303	1.918	1.567	1.460	1.382	1.341	1.135	1.303	1.327	1.284	1.284	1.351	1.222	1.386	1.365	1.370	1.446	1.280	1.214	1.340	1.239	1.104	1.197	1.099	1.169	1.112	1.261	1.101	0.987	1.059	1.161	1.046	1.104
420.0	147.1	194.2	215.4	237.3	233.0	236.1	232.1	238.5	237.4	223.3	212.3	208.4	195.1	181.3	164.4	151.3	146.8	138.6	133.8	125.5	120.2	116.5	110.2	104.2	96.53	90.43	83.42	79.04	87.53	118.5	82.69	41.96	30.08	23.38	20.67	32.00	100.3	296.2	815.6	4875	7129	1346	15.74	3.486	2.786	2.005	1.759	1.436	1.304	1.272	1.276	1.278	1.356	1.297	1.299	1.334	1.151	1.351	1.242	1.290	1.307	1.355	1.126	1.400	1.161	1.116	1.060	1.037	1.118	1.097	1.298	1.101	0.984	0.919	1.041	0.963	0.961
425.0	153.0	186.5	214.4	232.7	235.8	228.0	240.8	232.9	235.5	226.2	217.2	203.5	191.7	177.5	160.3	148.0	139.4	133.7	128.5	122.1	117.0	113.8	107.1	103.6	97.74	88.80	82.68	76.96	75.42	95.52	104.6	52.54	33.10	24.65	19.89	19.08	32.07	74.14	189.9	1306	5681	6240	246.6	7.901	3.269	2.302	1.944	1.609	1.448	1.334	1.225	1.227	1.334	1.249	1.367	1.301	1.248	1.436	1.313	1.277	1.299	1.297	1.270	1.243	1.247	0.955	1.097	1.016	1.073	0.959	1.171	1.103	0.924	0.890	1.041	1.080	0.963
430.0	463.2	180.0	206.3	218.4	226.1	223.7	232.8	229.5	232.8	222.7	216.3	200.9	183.5	169.9	154.0	141.7	133.5	126.6	121.6	117.7	112.2	109.5	104.2	99.88	94.36	87.93	81.13	76.69	71.72	72.93	89.92	83.61	44.40	28.06	21.74	18.19	17.99	25.56	49.91	298.8	1524	4415	5509	978.3	16.67	3.193	2.382	1.884	1.614	1.540	1.266	1.349	1.529	1.250	1.330	1.268	1.341	1.396	1.285	1.255	1.339	1.224	1.257	1.200	1.264	1.029	1.092	1.043	1.058	0.993	1.075	0.984	0.983	0.923	0.875	1.011	0.891
435.0	1476	200.4	206.4	216.8	222.1	220.6	223.9	233.1	228.3	218.8	213.5	196.3	178.1	163.5	147.4	137.2	125.8	120.4	116.7	111.0	107.2	105.7	101.8	98.25	92.57	86.84	80.91	76.30	70.77	66.81	66.14	79.71	74.55	39.21	25.38	19.34	16.63	16.05	19.54	73.63	345.6	1012	2967	6369	1655	21.30	3.359	2.570	1.937	1.692	1.389	1.424	1.474	1.216	1.333	1.279	1.333	1.434	1.256	1.355	1.341	1.331	1.337	1.239	1.145	0.983	1.087	1.000	0.972	0.949	0.930	0.926	1.056	0.960	0.832	0.927	0.927
440.0	2235	480.3	205.7	204.0	210.1	213.0	223.7	226.1	225.1	215.6	207.5	193.2	172.8	160.2	143.9	130.0	122.0	116.3	112.5	109.3	102.4	101.4	96.81	94.76	90.85	86.33	80.41	76.24	72.98	65.37	60.26	62.33	79.85	56.26	29.50	20.98	16.99	13.80	13.34	24.02	83.50	232.0	736.7	3981	6637	1256	14.61	3.209	2.298	2.029	1.493	1.466	1.457	1.291	1.310	1.332	1.334	1.441	1.356	1.362	1.297	1.296	1.288	1.290	1.294	1.021	1.120	1.018	0.999	0.844	1.035	1.026	1.001	0.984	0.877	0.834	0.888
445.0	1972	1232	197.2	205.7	203.5	202.9	210.3	221.2	222.5	208.5	204.2	194.1	172.0	156.4	138.5	127.0	116.0	112.1	106.7	105.4	100.1	97.52	94.52	93.44	86.88	83.96	78.37	74.77	71.46	65.47	58.74	53.17	65.79	70.16	39.65	22.84	18.18	15.16	12.38	13.41	25.35	58.17	170.9	1062	5040	5232	208.5	9.356	2.913	2.261	1.719	1.653	1.434	1.392	1.291	1.163	1.413	1.482	1.416	1.255	1.260	1.232	1.194	1.216	1.065	1.010	1.129	1.025	0.992	1.110	0.926	0.895	0.933	0.955	0.878	0.835	0.764
450.0	944.6	2493	577.0	189.9	194.3	197.1	201.7	211.1	211.6	208.0	198.4	185.5	162.8	148.2	131.5	119.9	107.9	102.8	99.72	97.89	92.04	90.92	88.92	86.70	82.32	79.88	75.86	71.99	68.03	64.32	57.80	50.65	49.76	58.49	56.28	33.38	20.42	16.25	13.36	11.92	13.06	19.34	44.15	242.9	1314	3381	4607	959.8	14.54	3.168	2.112	1.784	1.659	1.413	1.354	1.288	1.340	1.444	1.328	1.337	1.254	1.304	1.216	1.139	1.109	1.012	1.007	0.988	0.886	0.996	0.868	0.870	0.902	0.814	0.838	0.796	0.805
455.0	316.0	1966	2212	220.7	178.8	184.7	191.5	198.5	198.0	193.9	187.8	175.1	154.0	137.5	121.7	110.0	101.0	95.08	93.57	88.23	84.73	82.07	81.37	81.03	76.27	74.48	71.60	69.32	66.02	62.87	56.47	48.10	43.70	42.09	50.96	48.99	27.96	17.91	14.23	12.11	10.88	11.00	15.65	59.26	297.5	768.2	2080	4648	1411	18.65	2.910	2.100	1.890	1.501	1.472	1.291	1.451	1.264	1.309	1.255	1.323	1.183	1.244	1.141	1.125	1.089	0.945	0.992	0.859	0.965	0.842	0.820	0.816	0.833	0.804	0.753	0.800
460.0	155.6	1028	3360	555.8	173.3	176.9	182.7	187.5	184.8	186.5	182.3	165.7	147.1	130.5	114.4	104.2	94.73	88.38	87.45	80.08	79.22	76.38	75.72	74.38	72.87	69.71	67.40	65.98	62.51	59.67	53.43	47.20	41.51	37.08	38.99	49.97	38.57	20.26	15.05	12.58	10.60	9.654	9.764	18.87	71.42	176.1	496.5	2464	4670	1184	13.70	2.993	2.330	1.744	1.617	1.410	1.469	1.348	1.135	1.233	1.255	1.216	1.097	1.051	1.182	1.014	0.901	0.929	0.886	0.910	0.850	0.831	0.828	0.751	0.772	0.644	0.664
465.0	125.5	398.7	3053	1624	173.6	164.3	169.2	176.4	179.9	176.9	172.9	159.9	142.7	123.7	107.6	98.79	89.11	85.20	79.80	75.81	73.72	71.04	70.23	70.47	67.47	65.10	63.30	61.72	59.71	55.08	51.17	46.20	39.71	35.03	32.50	40.14	44.55	27.64	15.91	12.92	10.79	9.102	8.574	9.937	20.98	43.98	115.6	620.2	3168	4988	866.9	11.54	2.732	2.060	1.935	1.514	1.473	1.298	1.278	1.317	1.110	1.165	1.074	1.177	1.118	1.008	0.950	0.898	0.838	0.764	0.731	0.834	0.732	0.626	0.723	0.668	0.655
470.0	129.0	179.5	1400	2840	429.7	154.1	155.8	157.1	164.9	165.5	162.0	145.6	129.7	113.3	100.4	89.64	81.16	75.97	72.39	68.49	66.94	64.57	64.09	62.32	61.93	58.99	57.66	55.80	54.83	52.07	47.93	42.85	37.66	32.64	29.48	29.08	35.52	35.67	22.02	13.78	11.13	9.658	8.470	7.990	9.922	14.39	29.98	142.4	796.5	2824	3705	1611	15.81	2.866	2.175	1.697	1.700	1.478	1.350	1.279	1.192	1.040	1.185	1.049	0.974	1.008	0.945	0.891	0.780	0.758	0.752	0.697	0.710	0.640	0.657	0.639	0.684
475.0	163.1	128.1	423.8	2236	1960	180.4	142.2	147.6	146.0	150.2	146.8	134.3	119.8	102.8	90.57	79.98	72.47	67.17	64.76	61.98	60.25	57.85	55.98	55.68	54.23	52.10	51.96	50.79	49.56	47.77	44.43	39.94	35.65	30.55	27.19	24.56	24.88	30.22	29.89	18.37	11.58	9.554	8.353	7.277	7.802	7.948	10.52	35.37	180.6	636.2	1383	3589	1456	22.29	2.937	1.809	1.727	1.588	1.426	1.188	1.141	1.057	1.084	1.087	0.874	0.979	0.942	0.766	0.750	0.693	0.750	0.582	0.662	0.594	0.575	0.595	0.636
480.0	154.7	133.8	184.6	1073	2867	418.0	130.7	139.6	139.4	144.2	135.4	126.9	113.2	97.85	86.37	75.34	67.49	63.01	58.31	57.06	55.51	53.68	52.12	51.45	51.25	48.72	47.77	47.59	45.69	43.81	42.04	37.76	34.12	29.53	25.64	23.01	21.01	22.84	30.00	24.39	13.13	9.745	8.294	7.229	7.088	6.293	6.553	11.47	43.48	145.0	322.0	1564	3774	1272	17.63	2.446	1.995	1.664	1.548	1.283	1.102	1.152	1.058	1.076	0.916	0.931	0.863	0.772	0.738	0.752	0.646	0.686	0.644	0.594	0.631	0.572	0.556
485.0	126.5	165.7	127.2	399.9	2645	1340	133.9	128.8	135.8	135.5	132.6	117.8	107.5	91.34	81.01	71.13	64.98	59.33	55.28	54.22	49.67	50.41	48.27	47.97	48.11	45.16	44.15	44.93	43.25	41.88	39.19	35.50	32.67	28.42	25.05	22.35	19.34	18.70	23.96	27.34	17.18	10.41	8.634	7.620	6.900	6.069	5.945	6.201	12.66	35.54	74.73	377.5	2214	3547	217.7	12.66	2.459	1.836	1.614	1.282	1.074	1.131	0.955	0.947	0.924	0.747	0.841	0.736	0.699	0.840	0.703	0.654	0.605	0.655	0.554	0.523	0.534
490.0	94.06	173.9	132.2	171.6	1246	2501	497.2	121.5	123.4	125.7	121.8	110.9	99.21	87.11	73.76	66.33	59.49	54.71	51.55	48.76	46.86	45.32	44.08	44.38	43.10	41.40	40.63	40.19	40.14	38.67	36.76	33.21	30.41	26.42	24.11	20.95	18.54	17.34	17.49	22.27	22.67	15.26	9.111	7.895	7.012	6.066	5.934	5.497	6.161	10.87	19.38	86.93	537.0	1691	2903	1629	90.41	3.142	2.000	1.537	1.231	1.214	1.033	0.934	0.847	0.829	0.838	0.751	0.739	0.688	0.602	0.600	0.623	0.567	0.498	0.483	0.541
495.0	59.89	135.8	171.0	117.3	369.7	2036	1756	149.8	115.7	114.6	113.0	105.0	91.38	79.99	71.40	60.59	53.78	50.66	48.02	44.37	42.21	41.00	40.68	39.97	38.01	38.16	35.91	36.84	35.94	35.99	33.89	30.37	27.87	25.06	22.20	19.62	18.07	16.21	14.89	15.56	20.05	20.46	12.76	7.962	7.271	6.083	5.530	5.455	5.179	5.392	6.846	21.88	122.0	380.2	1050	3324	1749	27.51	2.702	1.782	1.394	1.332	1.155	0.816	0.846	0.801	0.706	0.610	0.714	0.628	0.577	0.621	0.558	0.542	0.555	0.497	0.434
500.0	48.69	100.4	188.0	111.5	156.8	1004	2707	317.3	106.1	106.5	102.7	94.84	82.94	76.67	65.97	54.27	50.24	46.63	42.52	40.39	39.03	37.80	36.71	36.10	35.41	35.04	34.19	33.52	32.66	32.69	30.32	27.84	25.69	23.76	21.36	18.38	16.74	15.06	13.12	12.54	14.99	19.60	16.41	9.378	7.313	6.282	5.196	5.034	4.598	4.456	4.129	7.039	29.45	86.97	241.9	1337	3843	1543	22.05	2.316	1.524	1.512	1.148	0.927	0.921	0.744	0.755	0.646	0.714	0.625	0.569	0.563	0.471	0.516	0.494	0.499	0.504
505.0	47.46	73.47	174.0	129.6	104.6	368.2	2619	1164	105.0	98.24	92.89	88.78	77.18	69.63	59.64	49.68	46.11	43.52	38.97	37.25	35.89	34.64	33.98	32.85	32.25	32.53	31.63	31.00	30.76	30.61	28.61	26.35	23.74	21.75	19.70	17.24	15.66	13.84	12.76	11.79	11.64	15.15	18.10	12.21	7.439	5.820	5.388	4.826	4.454	4.444	3.414	3.889	8.655	21.53	56.39	314.5	1924	3956	1160	15.58	1.945	1.547	1.208	1.088	0.983	0.741	0.746	0.664	0.463	0.623	0.517	0.505	0.481	0.444	0.424	0.459	0.484
510.0	42.26	56.81	116.3	160.8	93.89	143.9	1245	2438	415.0	89.86	86.51	80.25	70.16	61.62	53.16	45.42	41.20	38.49	34.28	32.96	31.48	30.37	29.63	29.62	28.50	28.20	27.55	27.20	27.03	27.22	25.43	23.51	21.53	19.36	17.68	16.02	14.30	13.05	11.58	10.74	10.22	10.82	14.53	15.42	10.43	6.345	5.162	4.563	4.038	3.925	3.372	3.323	3.931	6.686	14.61	72.26	455.6	1727	2832	1041	89.22	2.650	1.481	1.080	0.975	0.770	0.695	0.634	0.528	0.549	0.463	0.479	0.476	0.389	0.403	0.400	0.394
515.0	39.00	48.04	67.96	149.9	111.5	85.75	351.8	2112	1643	113.3	75.29	71.73	61.29	53.86	46.44	41.62	35.83	33.98	31.04	28.50	27.62	26.58	25.28	25.65	25.23	23.69	23.67	24.02	23.70	23.45	22.03	20.88	19.59	17.59	15.70	13.93	12.56	12.04	10.44	9.805	9.049	8.525	9.355	12.71	13.33	8.431	5.159	4.453	4.038	3.674	3.176	3.488	3.170	3.215	5.005	17.75	103.3	386.9	853.8	2376	1658	28.76	2.301	1.516	1.058	0.750	0.768	0.661	0.520	0.608	0.482	0.429	0.468	0.369	0.331	0.374	0.320
520.0	30.89	45.28	53.69	119.4	142.2	72.24	132.2	1029	2763	247.8	72.78	65.18	57.86	48.59	43.19	38.34	33.49	31.03	28.72	25.62	24.34	24.44	23.09	23.44	22.28	22.07	21.23	21.48	21.05	20.83	20.18	18.89	17.20	15.79	14.22	12.53	11.49	11.16	9.753	9.004	8.193	7.487	7.433	8.967	12.79	10.48	6.109	4.241	3.920	3.394	3.173	3.112	2.929	2.422	2.777	5.420	24.54	87.97	194.3	877.1	2568	1444	23.73	1.906	1.165	0.858	0.811	0.672	0.551	0.628	0.465	0.484	0.422	0.358	0.348	0.364	0.298
525.0	31.42	37.53	45.74	76.54	152.8	79.29	79.16	346.4	2726	1267	71.64	59.97	51.60	47.72	39.65	35.55	29.52	27.85	25.46	24.36	23.08	21.73	20.61	20.28	20.52	20.11	19.39	19.15	19.26	19.17	18.00	16.88	15.14	14.19	13.15	11.85	10.82	9.812	8.683	8.234	7.691	7.029	6.864	6.721	9.903	11.49	7.895	4.662	3.653	3.298	2.856	2.631	2.897	2.563	2.480	2.768	6.908	21.16	45.29	202.8	1098	2682	1077	17.59	1.512	0.971	0.905	0.742	0.594	0.598	0.360	0.436	0.333	0.360	0.360	0.270	0.310
530.0	27.61	37.38	41.04	51.76	119.7	112.7	61.42	124.3	1256	2914	401.5	55.51	47.61	42.73	34.98	31.05	26.57	24.17	22.34	20.98	19.94	19.28	18.12	17.85	18.08	17.52	17.15	16.68	16.69	16.75	15.85	14.70	13.53	12.57	11.21	10.46	9.818	8.517	8.117	7.662	6.909	6.278	6.022	5.666	6.636	9.016	9.598	6.309	3.728	3.155	2.533	2.514	2.436	2.603	2.357	2.176	2.978	6.152	11.64	46.70	254.9	1040	1892	1063	100.1	2.800	1.155	0.735	0.658	0.494	0.368	0.408	0.351	0.367	0.370	0.287	0.285
535.0	23.40	34.51	36.00	40.93	64.71	130.1	66.38	66.01	336.6	2499	1597	74.60	41.10	35.76	30.52	27.15	23.02	20.85	19.48	18.48	17.13	16.97	16.04	15.59	14.94	14.85	14.39	14.14	14.40	14.63	13.55	12.82	11.48	10.47	9.684	8.921	8.393	7.662	7.511	6.590	5.952	5.565	5.081	5.252	4.963	5.413	8.183	7.877	4.592	2.911	2.443	2.234	2.118	2.089	2.339	2.211	1.957	2.555	3.856	11.90	58.06	233.1	511.2	1777	1601	30.30	1.944	0.943	0.581	0.536	0.489	0.372	0.343	0.271	0.318	0.313	0.287
540.0	24.27	28.63	29.63	34.61	43.51	116.1	89.50	49.91	112.4	1149	2939	185.7	38.97	32.88	27.26	24.73	20.49	19.40	17.22	15.79	15.29	14.61	14.29	13.83	13.42	13.11	12.82	12.78	12.77	12.29	12.11	11.03	10.24	9.281	8.837	8.117	7.571	6.945	6.270	5.761	5.151	4.976	4.878	4.498	4.357	4.240	5.525	7.270	5.606	3.170	2.277	2.032	1.865	1.915	1.898	2.344	1.829	1.642	1.847	3.658	13.87	53.20	116.1	609.3	1939	1209	24.54	1.315	0.721	0.545	0.452	0.420	0.417	0.289	0.264	0.311	0.253
545.0	22.53	25.13	29.83	29.10	35.47	82.20	113.1	45.82	56.84	359.7	2912	1103	37.73	29.68	24.76	21.41	18.75	17.09	15.17	13.61	13.91	13.38	12.08	12.00	12.13	11.58	11.53	11.23	11.17	11.04	10.45	9.816	9.627	8.046	8.292	7.253	6.443	6.221	5.686	5.146	4.923	4.606	4.398	4.150	3.898	3.732	3.934	5.976	6.000	4.073	2.338	1.876	1.689	1.675	1.629	1.983	2.001	1.396	1.309	1.810	3.996	12.91	27.01	139.7	762.6	1907	812.5	17.26	1.018	0.658	0.526	0.432	0.411	0.257	0.303	0.292	0.201
550.0	19.33	23.46	25.74	26.73	28.02	45.05	114.9	64.45	40.77	111.6	1287	2831	255.7	26.60	21.82	18.71	16.05	14.46	13.44	12.09	11.54	11.02	10.38	10.38	10.18	9.652	9.410	9.421	9.552	9.394	8.859	8.569	7.799	6.917	6.889	6.305	5.640	5.261	4.989	4.532	4.128	3.807	3.647	3.281	3.322	3.166	2.937	3.521	5.146	4.959	3.110	1.848	1.544	1.386	1.288	1.544	1.780	1.799	1.371	1.273	1.636	3.671	6.944	32.12	175.1	692.9	1339	778.2	95.65	2.097	0.692	0.428	0.362	0.301	0.263	0.272	0.217
555.0	15.27	19.49	23.29	19.91	22.78	26.39	72.23	94.80	33.62	50.47	327.8	2542	1186	35.48	18.35	15.48	12.56	11.81	10.61	10.17	9.747	9.484	9.006	8.559	7.994	7.831	7.177	7.697	7.638	7.635	7.346	6.686	6.361	5.919	5.478	5.113	4.621	4.520	3.943	3.810	3.309	3.362	3.206	2.849	2.745	2.611	2.297	2.521	3.205	4.233	3.728	2.113	1.360	1.168	1.094	1.187	1.199	1.421	1.458	1.145	0.975	1.509	2.363	7.824	39.75	155.1	362.2	1046	1090	30.48	1.412	0.606	0.393	0.232	0.247	0.237	0.222
560.0	16.34	16.70	24.18	20.81	20.17	20.27	43.14	107.9	40.25	32.20	96.53	1164	2576	118.5	16.63	13.76	11.75	10.12	9.515	8.602	8.141	7.823	7.560	6.907	6.894	6.545	6.758	6.514	6.423	6.635	6.247	5.788	5.401	5.083	4.455	4.213	3.949	3.682	3.409	3.356	2.913	2.764	2.666	2.535	2.354	2.199	2.026	1.918	2.016	3.034	3.729	2.762	1.386	1.015	1.005	1.009	1.021	1.033	1.477	1.366	0.859	0.862	1.085	2.322	9.538	35.26	81.90	342.6	1232	782.6	23.84	0.810	0.423	0.317	0.340	0.201	0.250
565.0	12.05	17.38	20.76	18.59	16.09	17.49	25.91	95.89	60.29	25.93	41.04	354.2	2771	744.7	16.40	12.36	10.77	9.289	8.005	7.387	6.703	6.638	6.471	6.126	6.335	5.933	6.039	5.761	5.810	5.531	5.239	5.147	4.726	4.203	3.894	3.601	3.362	3.047	2.850	2.879	2.549	2.404	2.284	2.316	1.965	1.959	1.745	1.841	1.710	1.989	3.082	3.036	1.713	1.033	0.934	0.894	0.849	0.828	1.175	1.443	1.009	0.754	0.763	1.104	2.721	8.370	18.98	78.48	466.7	1147	254.6	14.78	0.593	0.448	0.325	0.193	0.164
570.0	15.53	17.22	19.14	17.16	14.82	13.64	17.19	54.79	88.38	29.84	25.58	99.86	1266	2277	79.74	11.14	9.055	7.829	7.109	6.429	5.921	5.902	5.375	5.379	4.918	4.848	4.825	4.419	4.686	4.457	4.484	4.223	3.900	3.520	3.326	2.996	2.783	2.620	2.408	2.311	2.156	2.062	1.953	1.844	1.715	1.606	1.561	1.516	1.306	1.358	1.736	2.522	2.125	1.308	0.874	0.792	0.785	0.688	0.794	0.946	1.216	0.862	0.647	0.692	1.000	2.309	4.716	18.01	106.8	401.6	696.5	508.9	19.85	1.400	0.345	0.211	0.219
575.0	12.87	18.06	18.95	14.91	12.18	12.61	14.36	27.34	85.60	48.25	21.68	37.94	314.1	2206	832.0	14.12	8.216	7.054	6.084	5.438	4.690	4.948	4.373	4.195	3.894	3.788	3.493	3.792	3.702	3.390	3.634	3.587	3.237	3.068	2.681	2.608	2.280	2.303	1.870	1.898	1.889	1.534	1.595	1.634	1.405	1.317	1.275	1.230	1.060	1.029	1.122	1.538	2.019	1.780	0.942	0.726	0.644	0.610	0.576	0.693	0.800	1.127	0.846	0.599	0.680	0.891	1.440	4.403	24.25	90.00	184.3	613.7	664.1	28.97	0.935	0.359	0.265
580.0	11.81	15.82	17.03	13.34	12.16	11.87	12.80	16.86	61.33	75.44	22.82	23.90	85.15	1061	2024	65.08	7.285	6.037	5.483	4.766	3.874	4.328	3.684	3.396	3.519	3.401	3.399	3.191	3.360	3.006	3.058	3.024	2.665	2.752	2.342	2.086	2.025	1.861	1.715	1.556	1.494	1.399	1.410	1.357	1.222	1.157	1.184	1.034	0.950	0.868	0.903	1.072	1.508	1.820	1.314	0.788	0.628	0.553	0.562	0.473	0.532	0.845	1.034	0.615	0.508	0.549	0.705	1.383	5.826	20.51	41.77	195.8	740.7	503.4	21.73	0.515	0.260
585.0	13.48	18.72	16.51	11.27	10.70	11.42	11.92	13.65	34.73	87.28	28.05	18.44	32.44	316.5	2265	432.8	7.337	5.557	5.289	4.612	3.768	3.822	3.514	3.154	3.172	2.907	2.885	2.828	2.828	2.906	2.727	2.569	2.422	2.462	2.091	1.833	1.784	1.534	1.496	1.468	1.313	1.157	1.199	1.142	1.071	0.985	1.022	0.874	0.831	0.690	0.676	0.783	1.067	1.584	1.493	0.914	0.579	0.460	0.443	0.430	0.485	0.592	0.981	0.947	0.477	0.410	0.455	0.622	1.681	4.930	9.765	44.77	276.1	708.8	244.5	12.81	0.338
590.0	9.807	15.45	14.04	11.10	10.27	9.084	9.955	11.24	18.82	69.47	53.00	18.97	19.99	82.80	1069	1525	46.30	5.542	4.456	3.737	3.239	3.131	2.866	2.785	2.541	2.465	2.372	2.328	2.223	2.365	2.260	2.089	1.998	1.888	1.722	1.540	1.422	1.343	1.231	1.317	1.090	1.019	0.980	0.955	0.937	0.941	0.832	0.754	0.657	0.665	0.607	0.622	0.665	0.962	1.390	1.133	0.680	0.447	0.434	0.428	0.388	0.423	0.612	0.896	0.703	0.432	0.366	0.446	0.647	1.347	2.488	10.38	63.06	241.4	468.2	334.8	19.06
595.0	9.259	12.70	14.12	8.487	10.47	8.143	9.729	10.94	13.07	36.16	74.63	23.59	15.62	28.63	263.7	1641	538.3	6.673	4.125	3.256	2.639	2.805	2.409	2.388	2.115	2.178	1.895	1.700	1.862	1.878	1.949	1.734	1.587	1.421	1.364	1.199	1.056	1.188	1.089	1.059	0.865	0.792	0.920	0.933	0.853	0.713	0.768	0.597	0.565	0.628	0.533	0.446	0.479	0.543	0.847	1.197	1.025	0.505	0.396	0.341	0.407	0.406	0.379	0.523	0.888	0.619	0.323	0.346	0.320	0.523	0.743	2.576	14.28	53.94	120.9	348.7	277.0
600.0	10.15	12.24	14.29	8.428	8.906	8.218	10.17	9.884	11.76	20.88	70.76	35.80	14.67	17.07	66.98	871.1	1294	30.28	3.911	3.227	2.466	2.654	2.290	2.028	1.863	2.065	1.753	1.582	1.742	1.542	1.570	1.674	1.241	1.263	1.058	0.996	1.091	1.006	0.886	0.880	0.780	0.803	0.799	0.804	0.688	0.549	0.690	0.529	0.512	0.499	0.400	0.383	0.397	0.396	0.534	0.891	1.117	0.613	0.418	0.222	0.343	0.305	0.284	0.373	0.570	0.697	0.411	0.319	0.229	0.381	0.287	0.742	3.387	12.23	27.38	107.8	365.0
605.0	8.711	10.76	13.20	9.771	7.583	7.217	8.379	8.478	12.66	15.25	52.96	52.16	15.81	14.04	22.65	268.0	1577	222.7	4.174	2.829	2.548	2.370	2.058	1.776	1.776	1.560	1.550	1.583	1.517	1.361	1.276	1.437	1.123	1.082	0.936	0.899	1.009	0.804	0.687	0.720	0.698	0.738	0.700	0.718	0.620	0.509	0.551	0.439	0.458	0.419	0.313	0.363	0.352	0.376	0.391	0.671	1.043	0.788	0.486	0.296	0.321	0.296	0.285	0.314	0.311	0.490	0.522	0.413	0.274	0.306	0.171	0.354	0.952	2.877	6.340	24.62	131.7
610.0	8.820	12.49	13.91	9.182	7.038	7.361	8.130	9.096	11.19	13.53	30.07	61.21	22.96	14.02	13.39	68.74	846.3	904.0	29.56	3.103	2.206	2.239	1.683	1.641	1.496	1.492	1.318	1.271	1.306	1.200	1.248	1.113	1.112	0.895	0.803	0.865	0.848	0.806	0.661	0.637	0.596	0.571	0.573	0.517	0.594	0.450	0.494	0.452	0.449	0.421	0.301	0.311	0.273	0.308	0.314	0.423	0.697	0.831	0.591	0.330	0.247	0.220	0.225	0.261	0.244	0.339	0.501	0.509	0.316	0.272	0.179	0.231	0.399	0.798	1.562	5.638	30.06
615.0	9.506	15.72	12.92	7.784	8.217	7.406	8.250	8.883	10.79	12.45	18.22	48.71	40.11	14.74	10.37	21.03	215.2	1174	369.2	3.358	2.079	1.883	1.602	1.582	1.098	1.276	1.122	0.996	1.132	1.019	1.020	0.901	0.939	0.748	0.709	0.579	0.638	0.650	0.600	0.587	0.519	0.491	0.526	0.456	0.496	0.360	0.446	0.421	0.406	0.383	0.321	0.277	0.291	0.273	0.240	0.296	0.412	0.597	0.618	0.507	0.286	0.206	0.199	0.277	0.154	0.234	0.327	0.390	0.448	0.305	0.148	0.228	0.262	0.289	0.453	1.372	6.806
620.0	9.500	13.35	12.44	10.49	6.972	6.887	7.122	8.125	8.446	12.19	15.38	35.20	50.23	16.20	10.04	10.79	54.79	708.3	977.3	12.81	2.256	1.702	1.487	1.473	1.131	1.072	1.042	0.921	0.925	1.011	0.812	0.755	0.855	0.735	0.690	0.505	0.646	0.533	0.529	0.580	0.459	0.387	0.481	0.355	0.376	0.310	0.389	0.390	0.273	0.307	0.302	0.269	0.224	0.215	0.306	0.262	0.258	0.402	0.494	0.444	0.290	0.204	0.143	0.181	0.160	0.177	0.252	0.248	0.545	0.411	0.154	0.181	0.190	0.171	0.175	0.405	1.628
625.0	8.029	14.31	11.15	8.631	7.609	7.323	6.174	7.750	8.279	12.13	14.32	23.20	54.13	22.11	9.561	8.685	16.92	242.5	1346	65.10	2.496	1.923	1.590	1.468	1.047	0.987	0.916	0.867	0.834	0.823	0.808	0.749	0.793	0.775	0.569	0.496	0.585	0.510	0.507	0.564	0.394	0.362	0.502	0.363	0.353	0.300	0.352	0.332	0.199	0.238	0.237	0.217	0.236	0.215	0.237	0.207	0.223	0.268	0.390	0.470	0.375	0.283	0.190	0.234	0.144	0.199	0.200	0.147	0.426	0.488	0.229	0.157	0.148	0.133	0.145	0.187	0.451
630.0	9.189	13.10	11.47	8.814	6.608	6.771	7.075	7.632	9.219	10.99	12.95	17.83	39.16	34.67	10.77	7.357	7.962	60.78	814.9	703.5	13.27	2.083	1.495	1.401	0.996	0.912	0.761	0.741	0.770	0.826	0.714	0.671	0.636	0.596	0.510	0.463	0.474	0.448	0.358	0.521	0.372	0.311	0.404	0.357	0.348	0.304	0.262	0.254	0.233	0.275	0.222	0.199	0.205	0.222	0.177	0.167	0.204	0.232	0.246	0.353	0.371	0.309	0.198	0.165	0.131	0.204	0.159	0.164	0.216	0.319	0.323	0.270	0.142	0.080	0.113	0.123	0.175
635.0	7.657	13.23	10.50	8.627	5.333	6.276	6.229	7.586	9.525	10.93	13.45	17.39	23.79	41.34	14.66	6.275	6.165	17.04	215.2	1089	65.83	2.470	1.542	1.382	0.942	0.881	0.723	0.650	0.672	0.657	0.550	0.572	0.572	0.497	0.505	0.423	0.391	0.340	0.419	0.284	0.325	0.248	0.291	0.262	0.341	0.348	0.244	0.205	0.241	0.261	0.195	0.201	0.177	0.201	0.155	0.188	0.211	0.176	0.198	0.254	0.309	0.311	0.288	0.184	0.184	0.156	0.109	0.182	0.155	0.150	0.267	0.255	0.228	0.115	0.082	0.088	0.113
640.0	10.64	8.659	11.77	7.460	6.000	6.017	6.684	6.567	8.935	10.87	13.37	16.33	17.12	35.81	21.86	6.783	5.444	7.219	52.29	758.0	462.6	6.808	1.536	1.260	0.810	0.819	0.782	0.676	0.533	0.700	0.535	0.451	0.460	0.477	0.330	0.407	0.298	0.365	0.415	0.325	0.284	0.363	0.310	0.235	0.288	0.266	0.230	0.180	0.200	0.195	0.169	0.171	0.145	0.181	0.147	0.166	0.204	0.092	0.166	0.200	0.235	0.319	0.316	0.193	0.180	0.178	0.087	0.212	0.087	0.079	0.132	0.202	0.292	0.132	0.113	0.071	0.063
645.0	11.00	11.26	12.41	6.675	5.766	4.892	5.975	7.380	9.450	11.04	13.23	15.77	14.87	26.48	28.65	7.494	5.260	4.620	14.41	292.9	802.6	47.77	1.560	1.486	0.926	0.914	0.628	0.716	0.464	0.561	0.576	0.463	0.417	0.461	0.352	0.311	0.349	0.275	0.360	0.375	0.270	0.287	0.328	0.205	0.292	0.248	0.195	0.196	0.178	0.219	0.171	0.171	0.166	0.141	0.145	0.136	0.155	0.082	0.159	0.182	0.142	0.269	0.290	0.196	0.124	0.158	0.115	0.151	0.098	0.118	0.049	0.182	0.322	0.157	0.114	0.063	0.052
650.0	13.94	11.10	11.94	8.113	6.596	5.776	5.929	7.722	9.225	10.05	12.54	15.01	13.47	18.54	30.53	10.52	5.265	3.647	5.512	76.47	737.6	336.5	1.973	1.558	0.840	0.803	0.574	0.642	0.501	0.549	0.517	0.482	0.360	0.392	0.320	0.241	0.315	0.287	0.324	0.293	0.292	0.260	0.313	0.251	0.216	0.246	0.229	0.169	0.165	0.195	0.168	0.181	0.153	0.153	0.113	0.181	0.149	0.145	0.124	0.149	0.110	0.188	0.217	0.155	0.148	0.129	0.107	0.145	0.077	0.150	0.078	0.101	0.252	0.182	0.086	0.067	0.033
