Sample:	'1
File name:	t2025051910月四会四泵站.FD3
Run date:	'11:27:37, 05/20/2025
Operator:	Administrator
Comment:	'

Instrument
Model:	F-2700 FL Spectrophotometer
Serial number:	23B8-004
ROM Version:	4J14000 07

Instrument parameters
Measurement type:	3-D scan
Data mode:	Fluorescence
EX  Start WL:	220.0 nm
EX  End WL:	600.0 nm
EX Sampling interval:	5.0 nm
EM  Start WL:	230.0 nm
EM  End WL:	650.0 nm
EM Sampling interval:	5.0 nm
Scan speed:	12000 nm/min
EX Slit:	5.0 nm
EM Slit:	5.0 nm
PMT Voltage:	700 V
Response:	Auto 
Corrected spectra:	Off
Contour interval:	50.000

Peak integration
Integration method:	Rectangular
Sensitivity:	1
Threshold:	1.000

Peaks
No.	ApexEX/EM(nm)	Height(Data)
1	225.0/290.0	4643
2	225.0/345.0	2239
3	225.0/570.0	529.9
4	230.0/495.0	347.2
5	235.0/255.0	327.5
6	235.0/510.0	296.3
7	240.0/265.0	389.8
8	240.0/525.0	233.9
9	245.0/270.0	429.9
10	245.0/535.0	203.4
11	250.0/275.0	610.9
12	250.0/550.0	173.8
13	255.0/285.0	788.8
14	255.0/565.0	155.9
15	260.0/290.0	957.5
16	260.0/575.0	153.4
17	265.0/295.0	1215
18	265.0/365.0	1423
19	265.0/585.0	140.9
20	270.0/300.0	1529
21	270.0/600.0	129.5
22	275.0/305.0	1528
23	275.0/345.0	1437
24	275.0/610.0	111.6
25	280.0/315.0	1293
26	280.0/625.0	85.15
27	285.0/640.0	58.57
28	320.0/365.0	487.7
29	395.0/290.0	4.924
30	410.0/480.0	58.66
31	440.0/520.0	21.83
32	455.0/290.0	10.66
33	455.0/340.0	5.893
34	455.0/540.0	12.27
35	460.0/345.0	5.871
36	485.0/265.0	2.209
37	495.0/270.0	2.250
38	505.0/275.0	3.463
39	510.0/280.0	4.257
40	520.0/285.0	4.774
41	530.0/290.0	4.843
42	535.0/365.0	6.574
43	540.0/295.0	6.540
44	540.0/375.0	6.203
45	545.0/300.0	7.610
46	550.0/305.0	7.568
47	550.0/340.0	6.457
48	560.0/310.0	7.217
49	560.0/335.0	6.542
50	565.0/345.0	6.699
51	570.0/315.0	6.924
52	570.0/360.0	6.300
53	575.0/320.0	6.453

Data points
	220.0	225.0	230.0	235.0	240.0	245.0	250.0	255.0	260.0	265.0	270.0	275.0	280.0	285.0	290.0	295.0	300.0	305.0	310.0	315.0	320.0	325.0	330.0	335.0	340.0	345.0	350.0	355.0	360.0	365.0	370.0	375.0	380.0	385.0	390.0	395.0	400.0	405.0	410.0	415.0	420.0	425.0	430.0	435.0	440.0	445.0	450.0	455.0	460.0	465.0	470.0	475.0	480.0	485.0	490.0	495.0	500.0	505.0	510.0	515.0	520.0	525.0	530.0	535.0	540.0	545.0	550.0	555.0	560.0	565.0	570.0	575.0	580.0	585.0	590.0	595.0	600.0
230.0	64.18	665.8	1694	525.6	26.76	5.911	5.083	4.376	3.933	3.129	3.116	2.684	2.317	1.971	1.544	1.387	1.148	1.050	0.969	0.960	0.796	0.752	0.725	0.612	0.634	0.537	0.594	0.554	0.529	0.542	0.553	0.455	0.425	0.411	0.368	0.380	0.408	0.386	0.364	0.353	0.455	0.624	0.646	0.465	0.338	0.346	0.796	3.524	5.801	4.101	1.688	0.472	0.262	0.251	0.266	0.257	0.266	0.258	0.259	0.250	0.268	0.257	0.268	0.264	0.267	0.255	0.268	0.258	0.246	0.299	0.249	0.280	0.277	0.259	0.274	0.291	0.276
235.0	158.8	216.4	966.0	1682	487.6	35.26	7.002	5.030	4.097	4.304	3.314	2.694	2.393	2.063	1.693	1.414	1.150	0.999	1.014	0.914	0.780	0.829	0.763	0.616	0.676	0.553	0.584	0.515	0.568	0.557	0.500	0.446	0.447	0.436	0.378	0.402	0.388	0.383	0.389	0.404	0.370	0.440	0.554	0.722	0.602	0.464	0.409	1.105	2.163	3.837	5.489	5.772	2.734	0.687	0.280	0.252	0.280	0.321	0.250	0.283	0.246	0.253	0.249	0.243	0.278	0.236	0.230	0.245	0.235	0.270	0.271	0.261	0.260	0.241	0.273	0.250	0.251
240.0	207.2	186.9	294.7	1315	1757	372.0	19.66	5.127	4.835	3.847	3.491	2.833	2.793	2.017	1.977	1.668	1.394	1.315	1.069	0.902	0.831	0.694	0.706	0.684	0.567	0.641	0.518	0.481	0.550	0.464	0.526	0.521	0.453	0.377	0.477	0.422	0.359	0.453	0.363	0.405	0.351	0.359	0.345	0.603	0.649	0.849	0.490	0.534	0.734	1.231	2.931	6.792	8.097	5.434	2.255	0.481	0.271	0.338	0.248	0.276	0.253	0.236	0.248	0.319	0.260	0.243	0.239	0.274	0.210	0.249	0.249	0.226	0.275	0.225	0.315	0.253	0.302
245.0	144.1	268.9	152.5	436.8	1747	1674	255.1	8.666	4.911	4.080	3.974	2.913	2.634	2.405	1.923	1.559	1.310	1.413	0.971	0.826	0.856	0.736	0.807	0.724	0.597	0.613	0.522	0.613	0.551	0.552	0.474	0.493	0.428	0.381	0.442	0.423	0.374	0.400	0.373	0.425	0.327	0.328	0.331	0.389	0.494	0.799	0.854	0.800	0.528	0.467	0.868	2.393	5.566	9.550	10.45	4.963	1.496	0.386	0.225	0.253	0.267	0.272	0.253	0.261	0.235	0.274	0.312	0.274	0.335	0.265	0.262	0.282	0.267	0.230	0.313	0.311	0.279
250.0	65.20	183.2	263.3	198.7	557.4	1566	1940	707.6	38.68	4.974	4.821	3.642	2.899	2.509	1.953	1.551	1.359	1.335	1.169	0.907	0.925	0.860	0.805	0.696	0.547	0.593	0.578	0.629	0.554	0.553	0.520	0.479	0.421	0.405	0.416	0.399	0.366	0.385	0.335	0.415	0.344	0.391	0.339	0.358	0.386	0.535	0.534	0.853	1.043	0.788	0.659	0.838	1.598	3.161	6.055	8.347	10.49	8.709	5.044	1.417	0.376	0.262	0.268	0.237	0.266	0.278	0.268	0.258	0.307	0.259	0.272	0.268	0.275	0.248	0.260	0.303	0.287
255.0	37.66	68.70	179.8	327.5	225.9	407.6	1461	2885	308.2	32.45	5.013	4.498	3.542	2.731	2.096	1.691	1.446	1.289	1.207	1.022	0.946	0.905	0.820	0.768	0.574	0.597	0.581	0.543	0.582	0.621	0.664	0.497	0.446	0.485	0.422	0.380	0.379	0.355	0.306	0.394	0.376	0.447	0.352	0.373	0.344	0.383	0.340	0.406	0.639	0.777	1.314	1.402	0.886	1.003	1.603	2.235	3.921	9.029	14.88	14.63	7.157	1.481	0.291	0.237	0.273	0.281	0.281	0.239	0.265	0.244	0.321	0.234	0.306	0.291	0.260	0.284	0.267
260.0	36.26	38.44	73.00	292.5	315.0	158.1	456.8	2399	2356	242.8	14.01	5.169	3.665	3.337	2.114	1.876	1.358	1.239	1.185	1.065	0.909	0.943	0.863	0.727	0.611	0.594	0.615	0.547	0.622	0.548	0.546	0.536	0.451	0.413	0.390	0.381	0.427	0.407	0.299	0.361	0.333	0.368	0.390	0.385	0.408	0.405	0.374	0.371	0.398	0.403	0.863	1.691	1.668	1.191	0.717	0.830	1.154	2.682	6.486	14.03	19.19	14.21	5.472	0.816	0.305	0.281	0.265	0.250	0.329	0.316	0.327	0.277	0.323	0.273	0.270	0.328	0.271
265.0	60.92	54.96	56.62	141.1	389.8	254.9	156.1	827.0	2918	2011	176.0	7.341	4.443	3.790	2.299	1.914	1.535	1.459	1.108	1.226	1.029	0.958	0.829	0.869	0.661	0.592	0.523	0.603	0.548	0.584	0.560	0.528	0.473	0.483	0.487	0.429	0.404	0.457	0.319	0.356	0.390	0.374	0.417	0.444	0.488	0.425	0.412	0.393	0.388	0.369	0.438	0.955	1.620	2.209	1.520	0.696	0.642	0.905	1.851	4.267	10.70	19.17	21.14	12.41	2.949	0.450	0.291	0.279	0.322	0.297	0.277	0.297	0.270	0.285	0.256	0.335	0.321
270.0	495.2	551.2	404.2	181.8	228.0	429.9	306.4	280.3	1002	2595	2790	645.2	26.52	4.298	3.391	2.334	1.817	1.704	1.437	1.173	0.980	1.033	0.868	0.870	0.766	0.731	0.647	0.716	0.553	0.668	0.596	0.585	0.530	0.721	0.745	0.830	0.810	0.677	0.564	0.567	0.611	0.672	0.812	0.999	1.163	1.367	1.439	1.415	1.210	0.902	0.612	0.633	0.795	1.368	1.893	2.250	2.015	1.253	1.032	1.462	3.019	5.953	10.67	16.31	19.13	16.85	9.429	2.679	0.511	0.338	0.356	0.326	0.279	0.288	0.339	0.331	0.365
275.0	1603	1736	1248	496.9	179.7	287.8	610.9	385.0	391.8	789.6	2449	4281	793.0	17.84	4.131	2.672	2.394	1.880	1.791	1.309	1.094	1.060	0.961	1.050	0.807	0.708	0.788	0.842	0.617	0.653	0.620	0.585	0.667	1.072	1.866	2.139	1.705	1.117	1.054	1.068	1.324	1.503	1.863	2.361	3.299	3.808	4.118	4.082	3.653	2.532	1.442	0.850	0.746	0.837	1.017	1.438	2.712	3.463	2.571	1.477	1.535	2.139	3.171	4.465	6.541	12.77	24.31	25.97	13.09	2.696	0.453	0.368	0.321	0.321	0.428	0.361	0.396
280.0	2606	3033	2243	833.1	225.1	232.8	518.6	759.9	372.9	410.5	901.0	3691	3766	134.7	8.974	3.755	2.887	2.175	1.978	1.434	1.111	1.228	1.048	0.993	0.924	0.694	0.842	0.750	0.844	0.618	0.771	0.592	0.827	1.454	2.675	3.385	2.511	1.789	1.602	1.525	1.997	2.179	2.990	3.565	5.353	6.188	6.644	6.365	6.184	4.112	2.291	1.297	0.818	0.850	0.865	1.153	1.802	2.896	4.257	3.605	2.116	1.677	1.792	2.199	2.623	4.138	9.220	19.93	28.34	23.61	9.325	1.352	0.411	0.379	0.480	0.393	0.422
285.0	3558	4162	3083	1101	276.0	239.0	383.8	788.8	769.5	454.6	498.3	1373	4313	2883	91.55	5.754	3.364	2.363	1.811	1.715	1.398	1.320	0.973	1.153	1.016	0.758	0.865	0.758	0.695	0.614	0.768	0.630	0.960	1.670	3.254	4.524	3.401	2.454	2.034	2.010	2.337	3.061	3.945	4.891	6.650	8.407	9.117	9.373	8.002	5.476	3.313	1.680	0.985	0.994	1.073	1.107	1.488	1.983	2.931	4.435	4.774	3.030	2.321	2.248	1.994	2.393	3.331	6.113	12.62	24.50	29.14	18.29	5.118	0.602	0.513	0.410	0.514
290.0	4079	4643	3477	1281	336.4	261.0	356.5	576.8	957.5	938.2	635.0	701.2	1558	3264	2412	365.0	12.52	3.343	2.443	2.024	1.619	1.419	1.178	1.173	0.947	0.887	0.810	0.861	0.749	0.701	0.720	0.718	0.972	2.192	3.847	4.924	4.072	3.064	2.732	2.536	2.841	3.509	4.451	5.767	7.864	9.408	10.05	10.66	9.087	6.369	3.702	2.100	1.154	1.136	1.142	1.207	1.488	1.772	2.250	2.807	4.089	4.741	4.843	4.205	3.121	2.779	2.643	3.114	4.458	7.615	12.28	18.16	21.50	20.15	12.41	4.257	0.881
295.0	3923	4551	3347	1317	371.2	286.8	364.0	511.3	749.2	1215	1156	750.5	761.3	995.4	2271	3581	95.17	8.998	3.182	2.320	1.852	1.714	1.328	1.127	1.104	1.013	0.857	0.869	0.768	0.735	0.690	0.751	1.044	2.225	3.843	4.731	4.114	3.289	2.948	2.970	3.037	3.535	4.573	5.893	7.379	9.179	9.850	10.46	8.961	6.310	3.691	2.212	1.455	1.159	1.318	1.361	1.670	1.822	2.006	2.435	2.966	3.561	4.302	6.188	6.540	5.006	4.028	3.296	3.480	3.827	4.475	5.390	6.396	11.11	21.62	27.98	16.85
300.0	3618	4161	3057	1239	399.0	311.9	400.7	525.7	701.1	1042	1529	1061	705.5	503.3	759.6	3164	2836	75.04	5.164	2.833	2.161	1.851	1.532	1.333	1.059	1.080	0.958	0.891	0.920	0.793	0.724	0.710	1.120	2.204	3.578	4.469	4.124	3.311	2.882	2.953	2.784	3.382	4.236	5.434	7.133	8.590	8.865	9.546	8.109	5.724	3.469	2.186	1.477	1.221	1.282	1.520	1.685	1.932	2.256	2.411	2.949	3.299	3.555	5.204	6.531	7.610	6.297	4.645	3.769	3.523	3.002	2.934	2.554	3.569	7.152	16.38	27.68
305.0	3175	3565	2671	1130	415.5	342.5	433.7	561.3	746.4	977.5	1434	1528	851.0	483.6	348.0	1099	3477	2059	52.22	3.847	2.773	1.981	1.620	1.393	1.160	1.128	1.024	0.914	0.917	0.865	0.725	0.769	1.018	1.739	3.256	3.967	3.904	3.178	2.952	2.738	2.901	2.963	3.946	4.882	6.264	7.379	7.922	8.887	7.062	5.162	3.111	2.188	1.533	1.294	1.275	1.362	1.875	2.180	2.264	2.572	3.131	3.445	3.641	4.433	5.202	6.611	7.568	7.036	5.238	4.292	3.233	2.634	2.157	2.070	2.684	4.719	10.72
310.0	2628	2833	2149	976.0	415.9	362.5	447.7	583.3	763.1	968.6	1209	1481	1289	643.1	333.8	391.1	1168	2458	1763	243.2	8.253	2.629	1.963	1.730	1.497	1.215	1.123	0.991	0.871	0.825	0.744	0.760	0.973	1.576	2.639	3.310	3.192	2.777	2.521	2.385	2.554	2.798	3.272	4.143	5.378	5.910	6.276	6.839	5.849	4.258	2.784	2.105	1.610	1.476	1.591	1.602	1.989	2.183	2.443	2.825	3.174	3.622	3.904	4.552	4.915	5.472	5.894	6.869	7.217	6.452	4.720	3.326	2.485	2.096	1.897	2.129	3.406
315.0	2037	2230	1716	852.6	425.0	399.1	471.8	602.1	778.5	957.0	1148	1247	1293	1048	451.8	287.1	400.5	677.5	1763	2570	67.53	6.355	2.632	1.972	1.567	1.329	1.085	1.066	0.885	0.806	0.781	0.689	0.974	1.436	2.170	2.601	2.651	2.206	2.086	2.233	2.328	2.548	2.924	3.376	4.489	4.711	4.855	5.465	4.681	3.430	2.353	2.029	1.736	1.527	1.679	1.645	1.936	2.242	2.614	2.922	3.357	3.780	4.008	4.651	4.880	5.090	5.260	5.709	5.611	6.199	6.924	5.903	3.868	2.549	2.192	1.998	2.065
320.0	1782	1973	1545	819.5	462.1	428.8	493.1	627.1	812.1	985.4	1168	1232	1168	1169	719.1	330.8	265.8	263.0	561.5	2324	2011	56.60	4.052	2.593	1.768	1.469	1.275	1.187	0.949	0.998	0.856	0.843	0.932	1.286	2.059	2.166	2.249	2.094	2.058	2.164	2.140	2.375	2.684	3.041	3.710	4.219	4.424	4.870	4.311	3.311	2.243	2.164	1.822	1.669	1.914	1.864	2.097	2.357	2.731	3.078	3.436	3.944	4.097	4.606	5.147	5.127	5.495	5.257	5.486	5.461	5.628	6.453	5.996	4.060	2.814	2.068	2.018
325.0	1799	2018	1708	934.3	537.7	464.0	538.7	684.0	849.7	1056	1212	1267	1178	1074	981.0	486.1	285.9	206.4	212.0	799.6	2495	1590	40.01	3.442	2.065	1.648	1.488	1.267	1.243	0.988	1.008	0.760	0.832	1.191	1.833	1.906	2.172	2.053	2.066	2.145	2.108	2.341	2.432	3.106	3.378	4.424	4.560	4.904	4.638	3.491	2.691	2.444	2.072	1.881	2.161	1.950	2.368	2.598	2.816	3.050	3.527	3.943	4.301	4.724	5.187	5.486	5.756	5.495	6.026	5.798	5.273	5.411	5.915	5.774	4.719	3.016	2.356
330.0	1891	2126	1899	1193	699.6	561.6	606.9	737.4	910.9	1110	1283	1356	1252	1058	929.4	761.7	437.1	247.5	175.8	261.4	834.9	1945	1322	196.4	7.206	2.261	1.704	1.451	1.329	1.101	1.013	0.972	0.852	1.027	1.358	1.639	1.749	1.831	1.844	1.861	2.108	2.383	2.524	3.162	3.702	4.510	4.758	5.511	5.296	4.242	3.499	3.301	2.603	2.245	2.231	2.206	2.468	2.827	3.148	3.352	3.623	4.262	4.542	5.000	5.490	5.845	6.153	5.974	6.101	5.842	5.569	5.419	5.071	5.190	4.992	4.751	4.101
335.0	1891	2204	1997	1357	876.5	670.7	683.1	800.0	963.8	1169	1320	1399	1320	1106	885.3	751.0	686.2	368.4	214.4	174.1	264.2	526.3	1381	2021	56.18	5.953	2.166	1.738	1.363	1.210	1.253	0.891	0.919	1.071	1.235	1.416	1.611	1.727	1.897	1.720	2.084	2.185	2.672	2.940	3.577	4.334	4.762	5.423	5.679	4.787	3.838	3.948	3.128	2.665	2.559	2.663	2.948	3.000	3.196	3.633	3.985	4.351	4.868	5.427	5.738	5.670	6.433	6.089	6.542	6.329	6.084	5.785	5.378	4.886	4.520	4.407	4.607
340.0	1836	2230	2088	1523	994.8	778.4	753.5	860.1	1014	1206	1347	1427	1368	1175	921.4	717.2	706.5	553.9	279.7	185.3	160.3	188.2	438.8	1841	1633	48.62	3.934	2.143	1.622	1.424	1.239	0.956	0.923	1.072	1.209	1.284	1.469	1.648	1.735	1.813	1.997	2.164	2.673	3.085	3.729	4.445	4.650	5.893	5.840	4.874	4.174	4.476	3.655	3.177	3.010	2.901	3.223	3.353	3.459	4.086	4.396	4.412	5.017	5.432	5.853	5.996	6.457	6.297	6.356	6.115	6.066	5.862	5.762	5.098	4.862	4.270	4.214
345.0	1835	2239	2149	1633	1117	871.1	823.2	913.5	1060	1221	1363	1437	1379	1200	957.5	726.3	628.9	643.8	409.0	225.0	165.9	136.4	158.5	625.1	1986	1256	37.44	2.885	1.950	1.629	1.179	1.212	1.047	1.014	1.244	1.294	1.472	1.674	1.747	1.901	2.103	2.170	2.562	2.947	3.591	4.320	4.723	5.825	5.871	5.009	4.575	4.678	3.946	3.508	3.445	3.289	3.454	3.630	3.723	4.116	4.174	4.802	5.267	5.539	5.587	6.110	6.223	6.589	6.329	6.699	6.264	5.797	5.791	4.984	4.917	4.444	4.208
350.0	1760	2155	2058	1640	1226	993.2	927.5	994.5	1105	1229	1350	1395	1346	1196	974.3	755.2	609.4	564.9	535.8	358.0	214.1	161.1	125.1	201.6	650.7	1399	1053	180.0	7.910	2.156	1.351	1.236	1.047	1.018	1.103	1.172	1.558	1.462	1.643	1.830	1.896	2.038	2.517	2.873	3.471	4.270	4.548	5.403	5.517	4.805	4.442	4.954	4.354	4.057	3.733	3.615	3.794	3.909	4.104	4.366	4.571	4.816	5.359	5.552	5.670	5.832	6.133	6.235	6.289	6.605	6.224	5.898	5.741	5.297	4.995	4.614	4.289
355.0	1692	1988	1920	1647	1300	1128	1062	1133	1213	1284	1356	1372	1324	1196	991.3	794.4	646.6	550.5	497.1	500.1	330.4	210.0	155.7	136.6	205.7	373.3	992.9	1623	257.6	6.225	2.130	1.387	1.125	1.144	1.121	1.149	1.458	1.600	1.608	1.850	1.776	2.078	2.515	2.917	3.448	3.811	4.214	5.073	5.183	4.380	4.620	4.821	4.533	4.314	4.356	4.251	4.446	4.489	4.533	4.745	5.309	5.647	5.590	5.965	5.841	5.775	6.020	6.092	5.992	6.387	6.104	5.466	5.676	5.531	5.124	4.741	4.499
360.0	1650	1929	1877	1656	1362	1232	1191	1246	1309	1374	1388	1383	1326	1195	1012	826.7	683.3	574.0	488.3	491.6	455.3	278.7	189.4	144.0	127.3	134.3	306.9	1352	1465	48.37	3.967	1.938	1.386	1.138	1.243	1.302	1.405	1.608	1.737	1.794	1.850	2.135	2.447	2.814	3.257	3.890	3.792	4.974	4.931	4.454	4.513	4.849	4.799	4.741	4.430	4.771	4.828	4.821	5.066	5.309	5.685	5.728	6.095	6.183	6.033	6.258	6.120	6.174	6.020	6.034	6.300	5.853	5.947	5.469	5.013	4.995	4.480
365.0	1534	1847	1789	1643	1409	1279	1269	1331	1382	1423	1408	1374	1306	1180	1016	835.9	706.0	597.7	511.1	460.0	487.7	382.8	235.2	174.3	131.0	101.7	116.6	440.4	1561	1221	38.31	2.772	1.596	1.330	1.156	1.381	1.474	1.460	1.458	1.785	1.783	2.029	2.256	2.702	3.083	3.568	3.760	4.785	4.766	4.244	4.329	4.985	4.964	5.068	4.697	4.717	5.025	5.286	5.251	5.601	5.971	6.139	6.299	6.574	6.182	6.386	6.061	6.001	5.807	6.175	5.998	5.948	6.257	5.642	5.073	4.838	4.777
370.0	1410	1676	1676	1577	1397	1317	1296	1340	1401	1402	1375	1324	1246	1136	987.8	829.3	711.7	624.3	539.9	470.6	448.6	453.1	355.0	232.2	168.9	125.1	97.78	148.5	489.0	1204	942.1	177.0	9.526	1.852	1.559	1.434	1.409	1.531	1.496	1.616	1.739	2.013	2.273	2.528	2.827	3.353	3.632	4.232	4.449	4.130	4.299	4.862	5.019	5.110	4.815	4.782	5.265	5.440	5.540	5.874	5.873	6.210	6.139	6.412	6.174	5.997	5.767	5.699	5.734	5.873	5.917	5.694	5.631	5.381	5.171	5.004	4.653
375.0	1339	1561	1555	1498	1393	1321	1301	1330	1379	1362	1327	1270	1187	1091	943.2	819.7	715.4	640.4	561.5	501.3	458.2	432.9	440.8	347.1	223.4	168.3	125.9	107.8	157.3	314.6	797.9	1427	259.1	7.513	2.192	1.564	1.400	1.672	1.668	1.774	1.742	2.011	2.108	2.558	2.705	3.052	3.290	3.834	4.039	3.779	4.032	4.826	4.971	4.958	5.022	4.813	5.282	5.281	5.491	5.796	5.633	6.137	5.974	5.908	6.203	5.812	5.753	5.485	5.770	5.620	5.535	5.646	5.195	5.353	5.124	4.985	4.626
380.0	1309	1487	1502	1459	1401	1340	1299	1343	1356	1333	1287	1225	1159	1048	915.6	799.8	713.1	641.2	574.7	523.6	477.6	437.9	425.3	431.8	296.5	208.5	159.6	123.5	103.4	114.8	240.3	1078	1281	42.82	4.341	1.985	1.489	1.753	1.662	1.715	1.798	1.970	2.170	2.580	2.697	2.932	3.230	3.738	3.747	3.709	3.830	4.639	4.937	4.647	5.103	4.766	5.193	5.434	5.572	5.608	5.578	5.953	5.870	5.699	5.964	5.749	5.548	5.230	5.664	5.465	5.224	5.580	5.564	5.414	4.880	4.708	4.686
385.0	1248	1414	1452	1397	1366	1306	1287	1290	1308	1277	1237	1178	1103	994.8	881.2	771.3	702.2	640.4	582.6	537.3	490.5	451.3	414.5	426.0	379.8	252.0	188.8	144.7	108.2	84.85	92.20	332.7	1188	1053	34.53	2.999	2.013	1.817	1.530	1.731	1.785	1.849	2.132	2.223	2.579	2.897	3.109	3.529	3.509	3.632	3.655	4.607	4.667	4.764	4.837	4.907	5.132	5.343	5.278	5.455	5.570	5.812	5.646	5.489	5.714	5.402	5.149	5.077	5.310	5.217	5.200	4.930	5.072	4.959	4.696	4.563	4.427
390.0	1157	1295	1317	1320	1306	1252	1236	1209	1215	1191	1151	1096	1023	927.2	828.2	731.3	674.5	624.3	576.7	537.9	499.3	462.4	424.3	401.2	398.6	336.6	235.1	173.1	131.2	98.29	74.77	111.0	351.7	889.9	876.6	149.0	10.06	2.158	1.861	1.654	1.815	1.846	2.128	2.120	2.480	2.680	3.033	3.315	3.293	3.462	3.470	4.279	4.400	4.545	4.625	4.678	4.830	5.133	5.002	5.025	5.277	5.277	5.183	5.337	5.294	4.976	4.974	4.759	4.875	4.981	4.828	4.631	4.614	4.634	4.352	4.448	4.532
395.0	1071	1190	1241	1244	1220	1178	1162	1144	1128	1119	1076	1014	955.1	863.7	772.0	693.1	645.9	601.9	566.9	533.8	498.7	473.9	435.4	402.9	369.0	369.2	313.4	213.6	159.9	122.4	89.96	77.23	114.8	228.7	522.5	1000	232.3	9.525	2.380	1.829	1.816	2.081	2.051	2.069	2.318	2.537	2.816	3.244	3.188	3.067	3.395	4.091	4.226	4.193	4.379	4.326	4.615	4.869	4.560	4.866	4.789	4.977	4.715	5.123	4.897	4.481	4.628	4.548	4.722	4.762	4.434	4.251	4.498	4.343	4.045	4.456	4.102
400.0	1028	1130	1187	1210	1175	1149	1112	1089	1087	1052	1022	965.0	904.2	822.2	736.3	670.4	622.5	587.4	553.0	525.4	497.5	475.1	444.3	411.9	373.4	351.7	354.2	269.3	187.1	143.5	108.5	81.43	71.68	82.10	150.9	648.2	934.6	38.41	4.943	2.004	1.973	1.940	1.913	2.020	2.199	2.348	2.530	3.051	3.040	2.937	3.217	3.974	4.331	4.197	4.082	4.099	4.551	4.635	4.428	4.465	4.585	4.776	4.616	4.790	4.528	4.146	4.233	4.291	4.336	4.141	4.041	4.359	4.140	4.037	3.998	3.984	4.079
405.0	972.7	1070	1137	1139	1128	1103	1079	1050	1020	1010	967.2	920.5	858.0	782.4	705.1	645.6	605.1	567.7	533.1	511.2	490.2	470.1	440.3	415.1	376.4	347.1	344.8	320.3	226.5	167.5	128.8	95.38	72.08	56.99	59.80	188.3	727.1	755.2	33.47	3.028	1.964	1.802	1.920	1.946	2.190	2.271	2.315	2.908	2.748	2.815	3.134	3.932	3.927	3.924	3.970	4.030	4.515	4.404	4.092	4.607	4.550	4.620	4.213	4.268	4.186	4.309	4.094	4.196	4.121	3.633	3.989	4.046	4.067	3.875	3.829	3.993	4.007
410.0	895.5	1008	1061	1069	1062	1044	1008	987.2	971.5	951.7	922.4	865.7	814.0	728.4	664.7	607.1	572.8	539.8	511.7	491.7	472.4	457.8	434.1	410.2	379.1	346.3	320.8	318.3	284.6	204.5	150.2	114.7	85.34	62.43	46.60	64.99	204.3	537.8	643.6	144.8	10.06	2.210	2.107	1.934	2.114	2.269	2.285	2.744	2.686	2.716	2.798	3.631	3.680	3.661	3.813	3.961	4.165	4.042	4.017	4.286	4.255	4.360	4.211	4.225	4.085	3.941	4.036	3.873	3.856	3.698	3.666	3.749	3.776	3.733	3.620	3.643	3.617
415.0	844.9	951.5	962.0	982.9	990.8	963.5	959.0	936.3	920.2	906.5	870.8	818.1	756.2	678.0	621.7	568.5	539.0	509.1	480.6	467.6	448.5	439.5	420.8	398.5	374.7	343.7	316.0	292.7	289.2	260.1	180.5	131.7	99.51	73.65	51.84	42.71	64.43	135.1	321.2	711.1	217.2	10.35	2.228	2.225	2.219	2.151	2.175	2.521	2.570	2.534	2.734	3.337	3.675	3.476	3.651	3.510	3.987	4.070	3.831	4.112	3.917	4.218	3.923	4.161	3.968	3.813	3.655	3.780	3.685	3.505	3.513	3.558	3.643	3.284	3.361	3.071	3.168
420.0	838.2	867.6	891.4	936.7	943.1	921.1	901.2	884.7	882.7	867.5	831.1	777.8	717.0	641.3	589.4	541.3	508.2	480.1	456.6	446.7	426.9	422.4	406.8	391.3	369.6	342.4	313.4	286.1	270.2	272.9	215.4	146.7	109.5	81.08	57.94	42.69	36.85	45.61	88.46	413.5	692.5	163.6	5.227	2.409	2.135	2.202	2.146	2.372	2.461	2.329	2.634	3.189	3.312	3.605	3.329	3.459	3.450	3.666	3.734	3.818	3.867	3.717	3.923	3.925	3.713	3.553	3.589	3.375	3.545	3.443	3.526	3.394	3.108	3.219	3.257	3.332	2.942
425.0	761.2	826.4	875.5	891.9	899.7	883.5	876.2	855.8	843.0	826.9	798.7	750.3	688.2	608.1	560.0	516.5	486.4	459.7	433.8	424.0	411.8	402.0	391.6	381.6	362.9	337.9	310.4	284.3	260.3	256.9	244.4	170.6	117.3	88.55	63.25	46.91	34.82	29.00	33.00	114.9	481.8	610.4	32.26	3.104	2.248	2.272	2.107	2.315	2.395	2.500	2.439	2.991	3.195	3.561	3.359	3.381	3.581	3.398	3.678	3.627	3.769	3.680	3.647	3.668	3.558	3.533	3.502	3.318	3.414	3.445	3.091	3.259	3.058	3.161	3.048	3.271	3.194
430.0	835.1	768.2	825.5	836.9	850.5	854.5	835.9	824.5	808.4	792.3	771.9	717.5	647.7	578.7	527.6	485.2	460.4	432.6	408.6	399.7	391.3	383.4	375.9	364.8	350.4	330.2	306.9	282.3	261.8	241.2	230.1	203.5	140.7	97.91	72.28	54.37	40.36	29.91	24.10	37.81	130.5	384.0	494.9	133.5	10.40	2.375	2.148	2.269	2.296	2.330	2.369	2.948	2.930	3.180	3.253	3.204	3.527	3.370	3.495	3.508	3.528	3.458	3.611	3.665	3.479	3.477	3.356	3.306	3.088	3.100	3.117	2.943	2.880	3.002	2.928	3.119	2.979
435.0	1198	742.7	770.0	795.2	798.6	815.9	810.7	790.6	780.3	768.6	740.7	686.9	615.4	552.5	495.1	455.2	433.3	408.1	388.9	375.8	367.1	364.7	357.0	349.2	334.3	320.7	300.6	278.9	262.4	236.5	213.7	200.0	172.3	116.4	82.07	62.09	46.75	36.51	26.93	24.23	40.25	95.62	235.0	587.8	203.8	11.10	2.255	2.323	2.299	2.138	2.210	2.749	2.841	2.852	2.931	3.121	3.634	3.362	3.584	3.429	3.593	3.395	3.323	3.419	3.466	3.292	3.285	3.198	2.917	2.852	3.159	2.863	2.728	2.818	2.884	3.062	2.712
440.0	1519	818.7	728.7	750.5	766.3	784.3	781.6	768.8	749.2	751.2	712.7	651.7	586.8	523.9	468.4	436.2	409.1	388.6	370.6	357.1	350.2	346.0	341.6	333.8	321.9	310.2	292.7	276.6	257.8	235.3	208.3	183.8	177.8	137.8	89.92	66.46	51.78	40.94	31.03	23.64	23.27	31.55	64.19	336.7	595.8	155.2	5.154	2.433	2.337	2.134	2.254	2.603	2.706	2.841	2.936	2.836	3.351	3.118	3.343	3.242	3.586	3.534	3.410	3.449	3.247	3.130	2.994	3.183	2.924	2.762	2.839	2.661	2.654	2.676	2.556	2.813	2.541
445.0	1438	1084	719.0	712.9	729.9	744.1	752.8	741.9	723.3	705.8	688.1	623.8	560.1	502.7	449.2	412.7	393.8	367.3	351.6	338.7	332.3	330.3	325.0	322.1	309.6	298.5	283.6	268.4	251.2	231.2	204.5	176.4	162.3	150.2	103.9	71.65	56.40	44.25	33.81	26.59	21.35	19.14	23.46	93.34	418.7	535.7	28.01	3.457	2.279	2.144	1.970	2.687	2.550	2.848	2.814	2.865	3.052	3.514	3.223	3.086	3.393	3.359	3.348	3.158	3.118	3.089	3.050	2.951	2.727	2.730	2.660	2.692	2.623	2.498	2.743	2.730	2.567
450.0	1006	1529	797.2	670.6	677.5	695.6	695.6	698.8	677.7	667.5	635.2	581.3	514.6	462.1	413.8	381.5	358.6	339.1	321.6	316.5	307.5	302.9	299.1	297.5	289.2	277.9	267.0	255.1	239.3	220.6	196.7	170.2	146.7	137.0	118.7	86.04	60.96	47.84	38.10	30.73	23.75	18.64	16.64	29.50	112.5	333.5	442.6	119.6	8.844	2.170	1.886	2.496	2.460	2.659	2.579	2.682	2.928	3.063	3.053	3.076	3.142	3.069	3.012	3.089	2.814	2.793	2.881	2.649	2.672	2.535	2.518	2.488	2.571	2.533	2.452	2.386	2.363
455.0	639.6	1451	1241	620.9	621.3	628.8	636.7	646.8	625.1	610.4	587.9	536.4	466.3	425.1	378.5	346.8	328.8	309.7	293.0	279.1	276.4	272.2	273.5	271.2	262.7	254.9	246.8	237.4	224.3	208.0	188.7	162.8	137.7	119.8	111.6	99.79	70.64	51.40	41.02	32.99	27.02	22.10	17.28	17.21	32.74	81.06	196.3	480.9	170.7	8.784	1.959	2.409	2.362	2.537	2.480	2.549	2.800	2.897	2.834	2.854	2.950	2.871	2.922	2.701	2.632	2.494	2.542	2.644	2.477	2.363	2.278	2.284	2.289	2.202	2.234	2.304	2.420
460.0	491.9	990.7	1612	688.6	584.3	596.6	595.6	602.8	585.6	568.3	543.1	488.7	440.7	392.3	351.4	317.4	301.5	282.4	267.6	259.3	254.6	251.1	255.3	250.3	243.3	235.5	227.6	219.5	212.2	197.2	178.5	156.6	131.8	113.7	98.45	100.0	81.23	55.31	43.99	35.10	29.07	23.87	18.83	15.47	16.03	24.99	51.78	262.0	506.7	121.9	4.700	2.500	2.308	2.267	2.372	2.248	2.515	2.673	2.720	2.709	2.732	2.856	2.606	2.644	2.566	2.480	2.345	2.298	2.302	2.003	2.125	2.045	2.135	1.977	1.853	2.069	2.299
465.0	442.4	640.3	1595	927.0	533.8	549.2	558.5	557.2	545.0	538.4	507.4	460.8	408.0	365.2	324.7	298.4	276.5	261.3	247.4	239.3	233.3	230.6	233.4	230.3	226.9	220.6	212.0	204.1	197.8	185.5	169.0	146.8	127.5	109.0	90.82	88.93	87.27	61.87	45.50	37.04	30.07	24.84	19.85	15.95	13.25	13.16	17.22	71.14	359.7	408.9	22.80	3.252	2.236	2.160	2.351	2.183	2.405	2.508	2.563	2.424	2.503	2.588	2.528	2.531	2.316	2.368	2.060	2.115	2.035	2.119	2.001	2.048	1.871	1.963	2.033	1.875	2.082
470.0	441.7	460.8	1014	1446	611.4	498.0	501.0	507.7	497.4	485.1	455.1	413.8	366.0	324.2	289.4	263.4	247.6	233.1	220.7	213.1	208.2	207.0	206.3	204.5	201.2	195.9	190.3	185.2	176.7	168.1	154.9	136.3	118.4	101.6	85.59	76.62	76.13	68.54	52.11	37.93	31.03	26.52	20.99	16.91	13.54	10.97	10.18	20.85	95.32	252.6	305.7	108.8	8.112	2.202	2.032	2.075	2.276	2.246	2.436	2.249	2.302	2.280	2.217	2.328	2.246	2.168	1.865	1.984	2.005	1.917	1.774	1.852	1.812	1.688	1.736	1.809	1.730
475.0	421.2	404.9	550.4	1352	1040	437.9	448.8	467.6	440.6	432.9	409.0	373.3	320.2	283.0	256.1	229.8	216.4	204.2	192.1	185.9	179.4	181.8	180.0	178.8	174.8	173.3	168.0	161.6	158.2	150.4	138.8	123.9	107.8	93.15	80.19	70.45	63.29	62.21	58.30	41.85	32.29	26.77	21.66	17.17	15.05	11.60	9.080	10.08	25.58	60.16	128.8	328.8	141.4	8.512	2.283	1.885	2.044	2.149	2.127	2.161	2.058	1.981	2.025	2.041	1.998	2.188	1.714	1.783	1.713	1.702	1.687	1.596	1.599	1.570	1.588	1.630	1.570
480.0	407.6	384.1	395.4	906.2	1448	485.1	417.3	421.7	408.9	393.7	372.9	336.0	295.7	266.0	228.7	215.0	198.8	183.9	175.9	168.5	164.6	163.2	164.0	162.4	161.3	157.7	152.8	148.1	145.8	139.4	130.1	116.0	102.0	88.57	76.61	66.43	57.39	54.70	58.66	47.31	33.72	26.77	22.02	18.24	15.06	11.64	9.431	7.912	10.31	17.07	33.73	170.2	339.1	107.9	4.194	2.006	2.102	2.072	2.027	2.097	1.935	1.952	1.947	1.903	1.774	1.830	1.739	1.728	1.550	1.507	1.525	1.597	1.553	1.602	1.462	1.586	1.466
485.0	357.7	393.6	347.9	552.6	1452	627.1	384.0	385.2	379.3	364.8	346.7	316.3	273.1	243.7	217.3	200.8	181.7	172.1	161.4	153.9	150.2	149.8	151.0	149.1	148.4	144.3	139.6	137.0	135.2	130.0	121.7	109.6	95.75	84.40	72.66	63.44	55.24	51.29	51.45	49.89	37.45	27.18	22.85	18.59	15.35	12.49	10.24	8.229	7.518	8.201	11.11	45.86	229.4	316.8	25.88	2.785	2.113	2.019	1.885	1.969	1.908	1.944	1.859	1.828	1.758	1.619	1.576	1.602	1.501	1.503	1.434	1.432	1.539	1.436	1.398	1.470	1.349
490.0	284.2	398.2	328.7	364.4	916.6	1201	433.2	354.8	343.6	336.4	314.8	284.8	251.0	220.3	196.1	179.6	163.3	153.2	144.9	138.5	135.0	134.6	134.9	133.8	132.8	130.7	125.8	124.7	122.9	118.9	110.6	100.1	89.01	78.18	68.38	59.33	52.83	47.08	44.42	44.89	42.62	31.57	23.54	18.81	16.25	13.12	11.06	9.244	7.623	6.731	6.512	14.01	61.65	188.3	244.7	104.9	8.734	2.087	1.757	1.867	1.730	1.683	1.699	1.674	1.621	1.510	1.582	1.451	1.433	1.305	1.349	1.504	1.314	1.387	1.273	1.276	1.376
495.0	246.2	338.6	347.2	292.9	453.9	1193	797.1	322.3	314.3	306.7	282.7	254.5	223.5	201.9	175.5	161.0	146.0	136.2	129.1	123.3	120.0	117.6	120.0	117.7	115.8	117.5	111.5	111.4	108.3	106.1	99.00	89.36	79.20	71.17	63.36	56.31	49.56	45.00	40.10	37.89	39.13	36.85	25.91	18.84	16.33	13.89	11.65	10.51	8.678	6.818	6.199	7.386	17.74	46.10	119.5	305.2	149.8	8.048	1.954	1.853	1.608	1.419	1.550	1.551	1.481	1.407	1.436	1.308	1.200	1.300	1.171	1.277	1.253	1.216	1.120	1.144	1.106
500.0	221.2	283.2	345.7	271.7	306.5	805.7	1178	347.5	285.3	282.5	260.8	233.1	209.4	183.2	157.8	146.1	133.9	121.0	114.8	111.7	109.1	105.9	107.7	107.3	105.7	103.6	99.89	100.9	99.01	96.89	90.04	82.10	75.02	65.41	59.84	53.39	46.45	42.94	38.14	34.40	33.76	36.26	29.09	20.31	16.71	14.57	11.99	10.30	9.010	7.522	6.534	5.953	8.042	14.20	31.80	159.0	321.0	31.92	3.862	1.729	1.538	1.405	1.476	1.421	1.414	1.331	1.297	1.379	1.190	1.294	1.155	1.183	1.158	1.140	1.205	1.167	1.030
505.0	187.1	234.6	324.9	286.8	246.1	447.4	1297	435.4	258.7	253.8	236.5	217.5	188.5	168.2	144.3	130.6	120.2	111.3	104.4	100.3	99.22	97.92	96.94	96.35	96.00	93.72	92.14	90.78	90.03	88.31	82.76	76.52	68.45	61.38	55.39	49.14	44.60	40.62	36.76	31.75	29.41	31.73	31.29	22.97	16.48	14.43	12.28	10.66	9.097	8.174	6.736	5.748	5.947	7.115	10.73	43.33	205.2	241.5	27.52	2.369	1.636	1.375	1.479	1.382	1.268	1.407	1.280	1.364	1.065	1.099	1.122	1.082	1.193	1.076	1.018	1.012	0.970
510.0	164.0	188.5	255.4	296.3	221.7	266.9	837.2	973.8	286.7	221.3	210.8	194.0	165.9	146.3	125.1	115.8	103.5	98.00	91.29	87.61	85.45	83.65	82.67	82.96	82.06	81.25	81.29	78.78	78.79	77.00	73.84	66.97	60.88	53.81	48.94	43.57	40.23	36.80	33.52	29.05	26.59	26.00	27.74	25.25	18.99	14.36	12.05	10.53	9.018	8.298	7.247	6.141	5.539	5.493	5.878	12.95	54.27	151.6	209.9	94.87	7.622	1.399	1.377	1.213	1.188	1.266	1.041	1.101	1.068	1.049	1.060	0.947	0.922	0.986	0.969	0.893	0.996
515.0	147.1	152.5	186.2	276.1	216.7	198.8	372.3	1120	560.9	195.7	185.1	165.3	144.0	127.6	109.5	99.20	88.61	82.33	77.85	76.24	73.39	71.40	70.08	70.77	70.70	69.54	69.26	67.11	67.55	66.94	62.36	58.42	52.43	47.63	43.19	39.50	35.41	32.35	29.97	26.55	24.63	22.18	22.22	23.54	21.13	15.28	12.11	10.21	8.980	7.913	7.240	6.894	5.637	5.115	4.976	6.186	14.91	36.37	89.13	236.7	118.4	6.720	1.333	1.145	1.212	1.071	0.919	1.004	0.881	0.982	0.877	0.894	0.833	0.827	0.943	0.891	0.868
520.0	141.1	151.2	149.7	236.8	229.3	178.3	220.9	775.5	964.3	208.6	164.6	149.3	128.2	112.2	97.09	85.65	80.39	73.11	69.11	67.06	64.71	64.24	62.41	63.20	61.50	61.70	61.25	60.01	59.34	60.09	56.32	52.78	48.27	42.91	38.73	36.10	33.21	29.34	27.94	23.97	22.57	20.29	19.03	20.08	21.83	17.60	12.39	10.09	9.021	7.737	7.249	6.901	5.671	5.150	4.544	4.455	6.091	10.31	22.94	116.5	233.4	31.83	3.363	1.190	1.110	0.993	0.838	0.970	0.879	0.951	0.778	0.903	0.703	0.874	0.805	0.777	0.714
525.0	124.0	130.5	139.3	178.2	233.9	163.8	172.0	402.1	1172	299.8	148.7	135.2	115.4	101.3	86.75	78.63	70.40	66.38	62.85	61.18	57.15	57.32	56.01	55.71	56.15	55.20	54.17	54.04	54.12	52.72	51.61	48.07	43.32	39.49	35.47	32.46	30.21	26.87	25.02	22.32	20.44	19.04	17.17	16.49	19.28	18.43	13.14	10.05	8.562	7.366	6.875	6.333	5.848	5.111	4.203	4.016	3.881	4.700	6.906	30.66	139.9	195.9	27.45	1.894	1.082	0.879	0.941	0.817	0.866	0.889	0.783	0.812	0.733	0.802	0.798	0.762	0.757
530.0	116.3	118.7	128.0	137.0	213.3	182.5	139.7	202.0	784.3	834.7	170.3	118.4	100.9	88.52	75.82	67.07	61.38	56.90	53.04	51.11	49.26	48.95	48.18	48.64	48.18	47.83	46.84	46.56	46.66	46.09	44.46	41.39	37.64	34.66	31.04	28.90	26.51	24.22	22.34	19.96	18.66	16.73	15.14	14.25	14.82	16.16	14.65	10.45	8.173	7.100	6.422	5.589	5.452	5.046	4.326	3.804	3.303	3.180	3.337	8.424	36.03	105.9	152.7	72.90	6.973	1.035	0.900	0.791	0.769	0.732	0.721	0.700	0.754	0.662	0.731	0.710	0.702
535.0	117.3	127.6	120.0	115.8	161.4	203.4	131.4	136.1	313.5	1031	416.2	102.9	89.27	75.41	64.92	57.52	51.65	47.15	46.12	43.15	41.56	41.79	40.72	40.09	39.97	40.37	39.28	40.47	39.62	39.25	37.40	34.88	31.54	29.99	26.46	24.28	22.94	20.70	19.43	17.65	16.26	14.80	13.55	13.21	12.01	12.64	14.19	11.78	8.266	6.773	5.904	5.465	5.025	4.470	4.505	3.765	3.109	2.672	2.426	3.376	9.343	24.94	57.77	158.8	92.97	6.321	0.925	0.656	0.739	0.666	0.697	0.710	0.705	0.696	0.618	0.673	0.576
540.0	139.3	137.5	131.1	107.6	111.7	192.5	133.1	112.7	160.4	702.4	807.3	110.0	77.61	65.89	58.73	50.60	45.62	41.65	39.17	37.65	37.23	36.21	36.27	35.42	35.22	35.55	35.04	35.71	34.94	34.08	32.98	30.42	28.32	25.74	23.96	21.94	19.71	18.81	17.51	16.23	14.90	13.54	12.02	11.42	10.78	10.83	11.46	12.27	9.008	6.602	5.573	5.104	4.676	3.957	4.086	3.794	2.960	2.492	2.100	2.158	3.427	6.832	14.52	72.96	164.6	32.06	2.834	0.694	0.655	0.643	0.687	0.638	0.607	0.623	0.611	0.535	0.549
545.0	186.5	193.7	177.4	111.2	98.54	164.4	158.4	105.4	114.6	339.1	1047	190.4	68.03	59.22	49.88	46.53	41.12	35.89	34.71	31.51	32.06	32.13	32.19	30.94	31.20	30.54	30.69	31.54	30.85	29.81	29.36	27.48	24.84	23.24	21.36	19.42	17.52	16.87	15.11	15.15	13.30	12.25	11.10	10.10	9.485	9.342	9.183	11.11	10.26	6.975	5.493	4.796	4.184	3.702	3.526	3.657	3.160	2.426	2.045	1.924	2.048	2.838	4.335	18.65	89.88	152.4	27.21	1.273	0.720	0.585	0.588	0.587	0.563	0.556	0.507	0.473	0.559
550.0	250.8	281.1	222.7	120.6	85.09	112.4	173.8	108.9	98.35	153.1	686.2	622.9	78.85	50.33	41.53	37.63	33.43	29.59	29.27	26.89	26.39	26.89	26.64	25.68	25.60	25.98	25.33	25.45	25.56	24.58	24.34	22.52	20.30	19.57	17.86	16.62	14.80	14.08	12.80	12.78	11.08	10.50	9.663	9.179	8.651	8.151	7.619	8.328	9.157	7.991	5.504	4.315	3.644	3.417	3.072	3.013	3.147	2.509	2.116	1.737	1.735	1.801	2.070	5.176	22.64	73.78	112.8	54.26	6.084	0.652	0.582	0.569	0.543	0.521	0.555	0.473	0.479
555.0	329.8	350.6	278.9	134.7	73.78	77.25	144.4	134.5	92.45	99.27	250.7	850.4	177.8	41.84	33.84	30.80	27.52	24.45	23.89	22.57	21.06	21.07	20.33	20.48	20.51	20.53	20.56	20.06	20.54	20.90	19.78	18.73	16.96	15.32	14.61	13.62	12.72	11.68	10.71	9.946	9.206	8.805	7.887	7.544	7.298	7.248	6.638	6.418	6.982	7.401	6.045	3.835	3.288	3.014	2.717	2.589	2.422	2.281	2.293	1.671	1.601	1.488	1.499	2.054	5.871	17.37	38.56	97.96	34.06	5.661	0.672	0.555	0.481	0.528	0.431	0.556	0.441
560.0	375.5	427.2	331.1	140.7	68.17	65.09	114.1	154.1	91.18	85.38	114.9	586.5	532.4	46.69	29.23	25.39	22.89	20.55	20.35	19.22	17.71	17.67	17.60	17.46	17.17	17.27	16.64	17.39	17.31	17.17	16.43	15.47	13.95	12.84	12.53	11.54	10.68	9.924	9.295	8.250	7.971	7.812	6.797	6.581	6.347	6.125	6.056	5.701	5.532	5.953	5.928	4.238	3.180	2.754	2.430	2.255	2.183	2.009	2.393	1.814	1.389	1.380	1.414	1.416	2.146	4.750	9.568	40.48	92.28	32.01	2.730	0.604	0.489	0.507	0.396	0.515	0.445
565.0	418.7	489.9	359.9	157.1	58.23	59.47	85.61	155.9	103.1	83.39	82.49	263.0	765.4	102.6	25.89	21.20	19.36	17.77	17.24	16.15	15.70	15.40	14.92	14.84	14.33	14.66	14.34	14.21	13.72	14.31	13.67	13.24	11.93	10.66	9.884	9.919	9.031	8.816	7.837	7.201	7.478	6.619	6.044	5.903	5.907	5.439	5.362	5.219	4.470	4.672	5.075	4.574	3.063	2.429	2.076	1.934	1.965	1.699	2.039	1.893	1.551	1.254	1.256	1.218	1.407	1.842	2.991	10.34	45.15	85.95	25.50	1.277	0.528	0.441	0.438	0.483	0.498
570.0	457.0	529.9	383.4	161.9	56.24	54.14	69.78	124.1	138.1	84.98	75.80	106.8	514.1	426.0	32.88	17.44	15.83	14.62	13.30	12.68	12.57	12.30	12.09	11.82	11.63	11.44	11.38	11.39	11.53	11.61	11.00	10.26	9.786	8.624	8.368	7.984	7.395	7.000	6.503	6.097	5.903	5.433	5.145	5.104	4.960	4.726	4.937	4.490	3.994	3.593	3.690	4.052	3.368	2.429	1.953	1.712	1.613	1.481	1.609	1.650	1.783	1.408	1.200	1.109	1.038	1.126	1.323	2.937	11.29	35.98	59.33	37.73	5.182	0.518	0.478	0.436	0.439
575.0	439.0	481.5	363.3	158.3	55.78	47.31	57.31	84.28	153.4	96.07	77.56	73.51	176.8	608.4	111.2	15.05	13.50	11.46	10.92	10.35	9.431	9.535	9.589	9.571	9.249	8.708	9.381	8.674	9.267	9.083	8.653	7.928	7.624	7.136	6.754	6.509	5.984	5.960	5.346	4.902	4.777	4.437	4.336	4.204	4.256	4.007	3.998	3.626	3.406	2.935	2.734	3.044	3.335	2.686	1.786	1.499	1.371	1.254	1.203	1.400	1.391	1.706	1.180	1.079	0.986	0.950	0.990	1.345	3.057	8.626	18.07	51.98	33.94	5.149	0.464	0.449	0.420
580.0	441.0	482.6	350.3	144.4	53.93	42.49	50.92	66.26	134.9	117.5	78.42	66.11	77.66	419.9	352.7	18.55	11.10	9.840	8.652	9.098	8.024	7.842	8.146	7.986	7.486	7.464	7.692	7.451	7.706	8.003	7.002	6.770	6.562	6.255	6.139	5.736	5.131	4.936	4.529	4.463	3.855	3.797	3.677	3.659	3.809	3.692	3.545	3.247	3.025	2.487	2.196	2.227	2.690	2.641	1.947	1.395	1.346	1.213	1.204	1.162	1.146	1.501	1.427	1.136	1.170	0.978	0.856	0.917	1.274	2.442	4.574	18.75	53.80	30.04	2.805	0.433	0.393
585.0	415.8	455.1	337.4	140.4	53.59	43.22	47.06	58.34	106.6	140.9	83.42	66.37	55.50	176.8	520.0	53.28	9.357	8.603	7.540	7.848	6.842	6.830	6.680	6.794	6.495	6.036	6.252	6.364	6.502	6.183	5.839	5.804	5.696	5.518	5.205	4.832	4.166	4.250	3.832	3.518	3.393	3.347	3.153	3.151	3.410	3.256	2.980	3.035	2.751	2.226	1.763	1.877	1.987	2.379	1.995	1.378	1.203	0.977	1.134	1.040	1.006	1.203	1.515	1.275	0.957	0.892	0.739	0.848	0.878	1.089	1.583	4.762	21.86	52.62	24.14	1.397	0.404
590.0	360.3	407.6	300.2	123.6	45.25	38.83	42.36	52.26	80.03	136.5	99.06	68.78	50.46	66.31	335.7	222.1	13.68	7.565	6.400	6.298	5.704	5.681	5.531	5.403	5.411	5.205	5.169	5.110	5.215	5.125	5.036	4.668	4.557	4.333	4.382	4.045	3.662	3.433	3.240	3.082	2.789	2.811	2.740	2.572	2.793	2.860	2.679	2.717	2.259	1.927	1.586	1.561	1.364	1.761	1.976	1.626	1.161	0.979	0.989	1.032	0.928	0.979	1.102	1.289	1.113	0.956	0.740	0.857	0.772	0.802	0.857	1.545	5.391	19.34	38.50	24.88	4.435
595.0	306.8	343.4	258.9	108.9	39.80	34.92	38.28	46.02	64.47	104.3	125.8	71.23	49.37	36.63	105.5	363.2	67.82	6.744	5.154	5.133	4.359	4.473	4.634	4.532	4.277	4.102	4.185	4.419	4.298	4.196	4.016	3.759	3.747	3.584	3.432	3.205	2.895	2.793	2.666	2.430	2.220	2.258	2.130	2.352	2.249	2.321	2.236	2.325	1.970	1.556	1.281	1.270	1.208	1.156	1.573	1.598	1.282	0.921	0.828	0.896	0.787	0.839	0.765	0.869	1.043	1.079	0.898	0.741	0.655	0.682	0.753	0.780	1.502	4.698	10.16	28.24	31.45
600.0	278.5	294.5	229.1	96.58	38.04	34.38	34.77	42.91	59.13	82.08	129.5	80.75	52.26	32.06	37.01	252.0	202.5	7.988	4.591	4.295	4.024	3.635	3.567	3.655	3.808	3.492	3.676	3.339	3.447	3.433	3.025	3.261	2.896	3.001	2.838	2.717	2.494	2.387	2.281	2.306	2.053	2.043	2.025	1.854	1.781	1.960	1.928	1.947	1.608	1.363	1.151	1.135	0.937	0.954	1.139	1.501	1.432	1.041	0.846	0.856	0.664	0.799	0.786	0.866	0.944	1.318	0.944	0.664	0.595	0.710	0.572	0.536	0.722	1.356	2.551	9.189	31.89
605.0	253.4	268.1	200.3	91.13	36.85	33.37	33.59	42.23	54.68	69.25	113.1	93.77	54.03	30.66	21.38	103.2	308.4	28.50	4.225	3.875	3.673	3.424	2.935	3.107	3.302	2.920	3.309	2.966	2.889	2.906	3.044	2.746	2.489	2.492	2.427	2.225	2.324	2.100	1.899	2.021	1.675	1.793	1.594	1.712	1.657	1.867	1.727	1.668	1.501	1.241	1.012	1.024	0.879	0.820	0.882	1.221	1.292	1.016	0.733	0.724	0.769	0.733	0.724	0.727	0.779	1.068	1.148	0.714	0.627	0.587	0.565	0.534	0.515	0.629	0.906	2.408	11.66
610.0	223.2	234.1	167.6	76.10	33.56	29.62	33.24	40.50	51.38	63.77	91.79	111.6	59.81	32.59	19.40	34.03	210.1	145.6	6.763	3.193	2.998	2.728	2.761	2.748	2.657	2.495	2.595	2.532	2.399	2.325	2.293	2.233	2.157	2.173	1.951	1.747	1.842	1.745	1.486	1.624	1.457	1.497	1.338	1.319	1.418	1.446	1.438	1.372	1.211	0.994	0.920	0.797	0.777	0.708	0.733	0.784	1.047	0.996	0.841	0.782	0.674	0.604	0.645	0.661	0.633	0.704	0.979	0.878	0.722	0.605	0.543	0.476	0.469	0.487	0.481	0.862	2.965
615.0	165.2	191.5	137.9	62.67	31.87	26.72	31.71	37.93	49.98	60.46	74.93	103.1	70.51	33.86	19.80	16.91	66.78	241.5	42.07	2.858	2.660	2.303	2.427	2.251	2.171	2.164	2.078	2.325	1.981	1.923	1.806	1.839	1.691	1.604	1.650	1.552	1.373	1.296	1.228	1.166	1.122	1.265	1.116	1.027	1.140	1.157	1.214	1.090	0.993	0.808	0.718	0.671	0.572	0.626	0.628	0.627	0.742	0.950	0.878	0.801	0.610	0.547	0.607	0.588	0.624	0.647	0.694	0.903	0.729	0.627	0.518	0.424	0.461	0.395	0.380	0.542	0.955
620.0	146.1	170.6	118.3	57.87	29.48	24.11	31.26	37.25	46.83	58.42	65.08	86.27	81.11	34.39	19.52	13.31	22.62	173.7	133.0	4.073	2.285	1.951	2.073	1.858	1.826	1.952	1.870	1.988	1.763	1.661	1.530	1.344	1.422	1.342	1.437	1.352	1.192	1.125	1.012	1.205	0.934	1.035	0.960	0.951	1.072	0.920	0.971	0.963	0.867	0.728	0.621	0.606	0.589	0.608	0.552	0.481	0.664	0.698	0.839	0.786	0.635	0.599	0.573	0.592	0.645	0.670	0.631	0.747	0.812	0.707	0.572	0.421	0.490	0.435	0.361	0.444	0.469
625.0	124.1	148.0	114.4	56.48	26.80	24.08	27.71	37.32	41.95	53.79	59.74	71.94	85.15	39.14	19.84	13.10	12.45	73.91	209.2	13.60	2.218	1.889	1.976	1.759	1.472	1.587	1.502	1.560	1.518	1.537	1.368	1.325	1.262	1.244	1.268	1.121	1.205	1.066	0.966	1.035	0.875	0.897	0.894	0.869	0.821	0.824	0.868	0.761	0.795	0.600	0.609	0.538	0.478	0.530	0.502	0.507	0.559	0.549	0.707	0.765	0.708	0.613	0.501	0.560	0.651	0.552	0.567	0.665	0.655	0.808	0.581	0.428	0.470	0.401	0.387	0.346	0.349
630.0	118.8	118.9	93.62	51.30	27.85	23.54	26.24	34.05	38.65	49.58	57.71	61.45	75.90	50.88	21.03	13.42	10.46	23.27	153.7	95.27	3.341	1.630	1.572	1.493	1.452	1.352	1.376	1.253	1.253	1.336	1.217	1.206	1.088	1.147	1.014	1.043	0.982	0.897	0.895	0.884	0.868	0.788	0.739	0.766	0.723	0.843	0.789	0.706	0.628	0.564	0.506	0.533	0.446	0.456	0.499	0.406	0.517	0.451	0.585	0.668	0.711	0.601	0.529	0.511	0.559	0.544	0.519	0.595	0.535	0.628	0.727	0.585	0.452	0.402	0.418	0.349	0.360
635.0	101.8	108.8	79.33	47.31	27.27	22.84	25.74	33.74	35.67	48.66	53.65	56.29	60.76	56.45	25.45	14.07	10.30	10.51	49.54	167.1	23.11	1.677	1.468	1.331	1.129	1.224	1.091	1.146	1.254	1.272	1.060	0.962	0.907	0.841	0.793	0.910	0.749	0.764	0.784	0.669	0.725	0.634	0.677	0.633	0.657	0.678	0.602	0.582	0.558	0.488	0.499	0.450	0.402	0.452	0.397	0.348	0.429	0.479	0.474	0.538	0.656	0.619	0.559	0.464	0.497	0.543	0.509	0.493	0.529	0.598	0.594	0.620	0.501	0.432	0.418	0.358	0.365
640.0	107.6	94.34	72.16	40.93	26.82	22.66	25.68	33.33	36.19	45.82	53.63	53.60	54.08	58.57	31.88	14.19	10.62	7.878	15.65	131.5	66.34	2.065	1.276	1.076	1.125	1.141	1.063	1.055	0.922	0.951	0.939	0.779	0.912	0.780	0.699	0.827	0.660	0.669	0.598	0.650	0.660	0.532	0.664	0.619	0.603	0.594	0.539	0.568	0.570	0.397	0.443	0.438	0.384	0.358	0.442	0.502	0.366	0.448	0.440	0.499	0.608	0.657	0.558	0.493	0.497	0.521	0.458	0.456	0.486	0.530	0.492	0.607	0.529	0.484	0.439	0.355	0.356
645.0	93.49	87.31	75.27	40.16	23.89	23.76	25.87	32.19	38.28	45.26	51.40	53.64	49.47	51.88	38.11	16.65	11.21	7.760	7.424	60.55	137.6	7.669	1.112	1.066	1.096	1.051	0.870	0.971	0.846	0.908	0.762	0.828	0.706	0.793	0.671	0.739	0.527	0.655	0.569	0.622	0.612	0.556	0.607	0.512	0.497	0.556	0.539	0.570	0.493	0.420	0.390	0.432	0.376	0.304	0.349	0.368	0.392	0.414	0.431	0.472	0.516	0.625	0.639	0.550	0.544	0.446	0.500	0.535	0.539	0.485	0.435	0.503	0.593	0.508	0.433	0.382	0.370
650.0	84.79	98.57	71.21	45.70	25.25	21.76	26.09	30.68	35.40	44.56	50.56	52.54	47.71	43.91	43.22	19.18	12.03	7.854	5.660	19.88	142.3	35.99	1.207	1.035	0.934	0.956	0.846	0.979	0.805	0.854	0.805	0.693	0.669	0.686	0.705	0.621	0.671	0.579	0.537	0.683	0.604	0.595	0.456	0.519	0.512	0.546	0.545	0.588	0.473	0.390	0.362	0.387	0.385	0.316	0.379	0.353	0.383	0.400	0.463	0.469	0.465	0.549	0.580	0.522	0.492	0.513	0.470	0.518	0.519	0.518	0.477	0.464	0.530	0.507	0.407	0.402	0.383
