Sample:	'1
File name:	G2025062008¿˚√Ò’¢«∞.FD3
Run date:	'12:56:48, 06/24/2025
Operator:	Administrator
Comment:	'

Instrument
Model:	F-2700 FL Spectrophotometer
Serial number:	23B8-004
ROM Version:	4J14000 07

Instrument parameters
Measurement type:	3-D scan
Data mode:	Fluorescence
EX  Start WL:	220.0 nm
EX  End WL:	600.0 nm
EX Sampling interval:	5.0 nm
EM  Start WL:	230.0 nm
EM  End WL:	650.0 nm
EM Sampling interval:	5.0 nm
Scan speed:	12000 nm/min
EX Slit:	5.0 nm
EM Slit:	5.0 nm
PMT Voltage:	700 V
Response:	Auto 
Corrected spectra:	Off
Contour interval:	50.000

Peak integration
Integration method:	Rectangular
Sensitivity:	1
Threshold:	1.000

Peaks
No.	ApexEX/EM(nm)	Height(Data)
1	225.0/575.0	127.0
2	225.0/585.0	121.4
3	230.0/345.0	5519
4	235.0/260.0	254.1
5	235.0/405.0	2851
6	240.0/265.0	296.1
7	245.0/270.0	295.5
8	250.0/275.0	388.1
9	255.0/285.0	465.4
10	260.0/570.0	165.0
11	265.0/585.0	140.8
12	270.0/600.0	130.6
13	275.0/415.0	5816
14	275.0/435.0	5614
15	275.0/615.0	133.3
16	280.0/340.0	2851
17	280.0/625.0	119.9
18	285.0/640.0	96.65
19	345.0/415.0	3633
20	350.0/435.0	3572
21	460.0/340.0	14.13
22	505.0/275.0	2.406
23	510.0/280.0	2.837
24	515.0/285.0	2.971
25	565.0/345.0	13.14
26	570.0/340.0	13.00
27	570.0/415.0	17.64
28	580.0/350.0	12.64

Data points
	220.0	225.0	230.0	235.0	240.0	245.0	250.0	255.0	260.0	265.0	270.0	275.0	280.0	285.0	290.0	295.0	300.0	305.0	310.0	315.0	320.0	325.0	330.0	335.0	340.0	345.0	350.0	355.0	360.0	365.0	370.0	375.0	380.0	385.0	390.0	395.0	400.0	405.0	410.0	415.0	420.0	425.0	430.0	435.0	440.0	445.0	450.0	455.0	460.0	465.0	470.0	475.0	480.0	485.0	490.0	495.0	500.0	505.0	510.0	515.0	520.0	525.0	530.0	535.0	540.0	545.0	550.0	555.0	560.0	565.0	570.0	575.0	580.0	585.0	590.0	595.0	600.0
230.0	83.33	1195	1859	390.1	15.25	7.838	6.515	5.630	5.292	5.320	4.603	4.427	3.837	3.595	3.286	2.637	2.390	1.989	1.828	1.706	1.589	1.560	1.452	1.405	1.526	1.391	1.353	1.246	1.410	1.156	1.126	0.983	0.891	0.801	0.721	0.679	0.645	0.506	0.493	0.470	0.524	0.543	0.564	0.415	0.367	0.440	1.631	5.270	6.605	3.984	1.266	0.424	0.303	0.299	0.302	0.309	0.316	0.305	0.275	0.284	0.287	0.274	0.291	0.275	0.296	0.283	0.295	0.340	0.299	0.296	0.284	0.309	0.264	0.286	0.315	0.298	0.341
235.0	105.2	357.2	1508	1911	425.8	24.12	7.038	5.967	5.772	5.649	4.750	4.995	4.383	4.064	3.283	2.823	2.385	2.236	2.150	1.694	1.601	1.777	1.604	1.735	1.471	1.487	1.255	1.295	1.362	1.175	1.041	1.086	0.842	0.808	0.665	0.635	0.605	0.514	0.407	0.496	0.468	0.496	0.511	0.549	0.507	0.480	0.653	1.548	3.142	5.275	6.803	6.097	2.463	0.709	0.333	0.270	0.332	0.285	0.313	0.307	0.345	0.259	0.309	0.274	0.300	0.292	0.294	0.301	0.297	0.328	0.283	0.333	0.318	0.309	0.281	0.309	0.313
240.0	157.5	147.0	509.2	2031	2035	325.8	13.36	6.056	5.855	6.492	5.517	4.915	4.485	3.876	3.802	2.903	2.357	2.202	1.902	1.632	1.661	1.769	1.823	1.680	1.536	1.425	1.420	1.397	1.379	1.115	0.999	0.951	0.943	0.828	0.669	0.613	0.576	0.522	0.465	0.493	0.479	0.472	0.440	0.588	0.742	0.708	0.582	0.663	0.978	1.890	4.515	10.03	10.63	6.432	2.044	0.395	0.334	0.264	0.336	0.288	0.286	0.333	0.323	0.289	0.280	0.273	0.282	0.316	0.298	0.330	0.324	0.267	0.316	0.257	0.282	0.271	0.333
245.0	137.0	166.1	158.7	823.8	2681	1952	223.8	9.659	6.347	6.339	5.765	5.477	4.796	3.837	3.469	3.213	2.393	2.245	1.930	1.711	1.778	1.692	1.762	1.772	1.465	1.417	1.534	1.369	1.300	1.143	1.135	1.025	0.865	0.677	0.566	0.687	0.491	0.534	0.523	0.414	0.401	0.424	0.438	0.461	0.537	0.713	0.826	0.573	0.518	0.701	1.298	4.118	9.000	14.29	11.75	5.277	1.404	0.335	0.314	0.303	0.323	0.291	0.276	0.304	0.298	0.320	0.298	0.258	0.333	0.336	0.340	0.241	0.267	0.274	0.307	0.324	0.409
250.0	66.44	148.7	194.5	250.8	979.1	2537	2584	791.6	36.77	7.544	6.713	6.219	5.021	4.064	3.858	3.247	2.652	2.163	2.079	1.950	1.889	1.639	1.986	1.761	1.622	1.648	1.511	1.361	1.282	1.279	1.227	1.063	0.911	0.753	0.624	0.662	0.536	0.499	0.551	0.497	0.463	0.493	0.397	0.429	0.453	0.446	0.620	0.789	0.786	0.700	0.703	1.221	2.491	4.981	8.532	12.47	15.88	13.03	6.393	1.627	0.367	0.336	0.306	0.318	0.322	0.321	0.281	0.301	0.295	0.366	0.304	0.245	0.285	0.271	0.323	0.361	0.329
255.0	42.42	62.69	172.9	251.9	268.4	712.5	2782	4427	295.7	31.14	8.530	7.418	5.860	4.960	4.261	3.613	2.755	2.512	2.159	2.130	1.906	1.676	1.991	1.770	1.484	1.552	1.407	1.564	1.318	1.264	1.298	1.039	0.997	0.833	0.762	0.609	0.621	0.580	0.470	0.451	0.426	0.449	0.431	0.431	0.399	0.430	0.417	0.460	0.601	0.825	1.170	1.045	0.978	1.360	2.181	3.277	6.959	16.28	25.83	23.42	9.645	1.644	0.332	0.338	0.318	0.345	0.303	0.273	0.298	0.333	0.302	0.274	0.299	0.346	0.345	0.366	0.342
260.0	37.44	39.80	82.29	254.1	230.0	196.6	950.1	4429	4616	241.2	19.48	8.490	6.507	6.038	4.223	3.488	3.141	3.075	2.210	2.175	1.847	1.880	2.093	1.706	1.697	1.699	1.528	1.598	1.233	1.238	1.248	1.236	0.974	0.996	0.836	0.717	0.638	0.556	0.507	0.490	0.454	0.466	0.423	0.435	0.394	0.404	0.390	0.352	0.431	0.514	0.838	1.440	1.504	0.888	0.886	1.069	1.898	4.873	12.92	26.22	31.44	21.39	6.919	1.002	0.421	0.378	0.363	0.295	0.298	0.395	0.392	0.414	0.364	0.411	0.338	0.346	0.371
265.0	39.56	30.46	38.51	136.1	296.1	156.7	242.1	1691	6027	4515	182.3	12.31	7.942	6.321	4.703	3.777	3.526	3.081	2.514	2.569	1.985	1.969	1.963	1.873	1.735	1.632	1.437	1.472	1.302	1.447	1.360	1.172	1.102	0.892	0.783	0.755	0.583	0.587	0.466	0.516	0.572	0.492	0.431	0.459	0.396	0.388	0.364	0.365	0.391	0.353	0.472	0.885	1.612	1.646	1.071	0.761	0.737	1.477	3.262	8.558	20.44	37.07	31.05	18.13	3.805	0.537	0.394	0.313	0.310	0.389	0.340	0.431	0.364	0.370	0.333	0.284	0.370
270.0	61.18	50.74	41.06	53.59	167.4	295.5	206.7	424.7	2106	5666	5180	761.5	37.26	9.094	6.291	4.588	3.808	3.793	2.598	2.582	2.208	2.040	2.025	1.935	1.787	1.627	1.679	1.478	1.438	1.538	1.362	1.319	1.066	1.082	0.830	0.768	0.655	0.678	0.559	0.518	0.591	0.544	0.489	0.487	0.487	0.452	0.418	0.480	0.402	0.358	0.378	0.490	0.711	1.059	1.422	1.643	1.432	0.858	1.087	2.284	5.174	11.47	19.45	32.46	33.93	32.09	13.21	3.818	0.565	0.378	0.461	0.368	0.389	0.319	0.371	0.299	0.372
275.0	144.6	137.5	100.8	57.93	66.97	166.0	388.1	264.5	523.9	1497	5261	9436	1025	32.44	9.119	6.350	4.720	4.374	3.107	2.669	2.632	2.216	2.122	2.232	1.929	1.829	1.508	1.753	1.472	1.578	1.431	1.255	1.063	0.957	0.818	0.907	0.758	0.810	0.636	0.579	0.737	0.646	0.678	0.562	0.616	0.713	0.550	0.533	0.612	0.452	0.384	0.443	0.476	0.588	0.650	1.196	2.168	2.406	1.547	1.110	1.584	2.968	4.793	7.972	11.65	28.40	52.03	32.60	20.22	3.949	0.516	0.456	0.449	0.412	0.368	0.394	0.429
280.0	257.4	246.9	188.5	97.21	60.45	88.13	293.1	404.1	256.2	429.0	1651	8246	8681	147.4	18.88	8.040	5.662	5.355	3.627	3.183	2.764	2.570	2.259	2.337	2.004	1.743	1.759	1.747	1.526	1.646	1.631	1.266	1.113	0.959	0.979	1.093	0.990	0.874	0.822	0.817	0.794	0.837	0.682	0.821	0.710	0.952	0.924	0.863	0.815	0.674	0.499	0.470	0.534	0.545	0.566	0.709	1.116	1.984	2.837	2.509	1.283	1.355	1.565	2.489	3.273	7.741	19.95	39.86	62.15	31.56	15.35	1.726	0.556	0.502	0.397	0.398	0.392
285.0	405.2	403.4	310.2	162.0	92.61	87.20	162.6	465.4	344.7	264.0	540.1	2757	9990	6711	111.8	11.63	7.091	6.182	3.996	3.435	2.951	2.529	2.505	2.506	2.084	2.172	1.673	1.880	1.559	1.659	1.504	1.207	1.220	1.137	1.193	1.050	1.258	1.084	0.952	0.944	0.830	1.011	0.923	0.954	1.074	1.252	1.347	1.216	1.232	0.876	0.754	0.747	0.639	0.571	0.630	0.584	0.697	1.077	1.753	2.971	2.953	2.074	1.207	1.324	1.627	2.688	5.413	11.43	28.79	52.42	65.18	27.07	9.035	0.923	0.426	0.431	0.522
290.0	623.9	635.9	491.2	271.9	168.3	140.1	165.4	304.7	568.9	614.5	476.1	936.7	3180	7408	7363	446.1	28.29	9.173	5.276	4.024	3.693	2.988	2.675	2.608	2.316	2.296	2.100	1.846	1.714	1.649	1.518	1.370	1.303	1.180	1.481	1.354	1.464	1.336	1.201	1.091	1.116	1.314	1.267	1.286	1.473	1.618	1.696	1.808	1.622	1.298	1.121	1.014	0.834	0.860	0.850	0.807	0.941	0.984	1.285	1.756	2.413	3.249	3.461	2.988	2.255	2.197	2.807	4.144	7.985	14.84	27.49	39.56	49.53	43.28	18.29	8.022	1.193
295.0	843.4	856.6	694.0	422.1	248.5	223.1	244.6	315.4	473.0	860.0	926.0	748.0	1136	2016	5329	9350	655.5	32.07	7.840	5.613	4.359	3.686	3.149	2.918	2.563	2.361	1.977	2.004	1.741	1.865	1.621	1.464	1.408	1.410	1.575	1.780	1.721	1.785	1.482	1.426	1.283	1.523	1.477	1.492	1.771	2.054	2.154	2.406	2.359	1.767	1.284	1.419	1.355	1.175	1.111	1.070	1.198	1.424	1.479	1.724	2.097	2.411	3.129	4.530	5.234	4.018	3.262	3.352	4.249	5.521	7.798	10.35	13.79	24.93	51.04	67.17	29.76
300.0	978.0	1007	855.5	510.4	352.0	316.0	344.0	405.6	558.8	844.0	1333	1075	887.8	879.7	1657	7261	5891	521.3	15.39	6.894	4.839	4.084	3.393	3.072	2.929	2.535	2.429	1.986	2.033	1.779	1.681	1.624	1.377	1.404	1.574	1.811	1.921	1.894	1.651	1.569	1.510	1.597	1.649	1.768	1.975	2.281	2.387	2.812	2.714	2.097	1.781	1.643	1.532	1.395	1.532	1.376	1.735	1.749	1.903	2.155	2.371	2.509	3.283	3.878	5.583	6.733	5.956	4.668	4.238	4.399	4.518	4.637	5.090	7.330	16.07	38.83	63.77
305.0	1077	1164	987.6	636.5	450.2	434.6	482.5	600.8	774.5	1022	1461	1685	1212	882.5	830.5	2359	7961	5339	73.97	10.39	6.394	4.611	3.723	3.338	3.233	2.698	2.611	2.353	2.184	2.030	1.802	1.579	1.489	1.423	1.640	1.927	2.032	2.029	2.080	1.692	1.694	1.847	1.809	2.036	2.275	2.674	2.725	3.035	2.941	2.413	2.125	2.111	1.912	1.759	1.726	1.860	2.257	2.240	2.534	2.963	3.414	3.769	4.158	4.836	5.749	6.952	8.163	8.596	6.488	5.656	4.948	4.322	4.134	4.471	5.851	10.97	23.58
310.0	1191	1299	1123	762.9	558.0	559.7	647.7	783.5	964.4	1230	1530	1880	1796	1188	856.4	943.4	2561	8301	5895	1373	23.61	6.445	5.275	3.895	3.441	3.051	2.792	2.534	2.227	2.135	2.032	1.737	1.508	1.513	1.773	1.884	2.086	2.050	2.074	1.869	1.869	1.923	1.993	2.305	2.736	2.991	3.076	3.437	3.321	2.694	2.422	2.412	2.245	2.191	2.270	2.254	2.695	3.129	3.380	3.690	4.065	4.453	5.126	5.552	6.401	6.909	7.613	8.760	8.906	8.475	7.374	5.939	5.242	4.947	4.564	4.892	7.630
315.0	1417	1591	1295	901.3	678.2	678.2	765.2	918.4	1137	1401	1673	1918	1968	1758	1092	788.5	993.9	2139	3954	7792	505.9	24.54	7.347	4.980	4.046	3.471	2.892	2.886	2.469	2.485	2.192	2.092	1.647	1.614	1.675	2.022	2.056	2.045	2.051	2.049	2.080	2.148	2.194	2.602	3.002	3.547	3.540	4.057	3.618	3.058	2.895	2.910	2.565	2.607	2.581	2.770	3.346	3.510	3.781	4.295	4.519	5.153	5.573	6.678	6.798	7.197	7.964	8.751	8.932	8.923	9.682	9.222	7.340	5.692	5.050	4.630	4.749
320.0	1820	2005	1681	1134	826.1	772.3	891.1	1039	1250	1562	1853	2082	2063	2016	1557	936.7	766.7	800.1	1142	5401	6643	407.0	14.80	6.569	4.890	3.863	3.705	2.892	2.681	2.842	2.242	2.007	1.838	1.612	1.734	1.874	1.862	1.948	2.204	2.145	2.116	2.374	2.745	2.964	3.620	4.320	4.753	5.395	4.586	3.768	3.324	3.401	3.149	3.248	2.949	3.273	3.574	3.659	4.351	4.782	4.894	5.572	5.999	6.939	7.293	8.097	8.417	9.253	9.760	9.061	9.625	9.976	10.12	8.392	6.429	5.582	4.822
325.0	2358	2910	2614	1776	1113	938.5	1005	1170	1390	1740	2064	2306	2282	2128	1910	1256	838.8	585.5	470.8	1610	6171	3934	61.15	11.12	6.388	4.980	3.789	3.340	2.818	2.693	2.298	2.060	1.693	1.631	1.932	2.015	1.977	2.075	2.326	2.305	2.280	2.647	3.198	3.496	4.479	5.678	6.670	7.884	7.207	6.049	5.039	5.102	4.335	3.763	3.577	3.722	3.980	4.274	4.772	5.169	5.320	6.168	6.891	7.824	8.396	9.457	9.187	10.44	10.29	9.960	10.13	10.34	10.29	10.51	8.973	7.103	5.728
330.0	3134	4015	4006	2888	1722	1229	1191	1334	1581	1931	2306	2573	2565	2361	2055	1650	1139	685.7	454.4	603.3	1857	4384	4747	1245	22.81	7.055	5.020	4.033	3.483	3.034	2.653	2.297	1.891	1.897	1.900	2.122	2.173	2.357	2.413	2.513	2.644	3.130	3.913	4.541	5.815	7.494	8.914	10.62	10.50	9.760	8.464	8.480	6.563	5.302	4.879	4.378	4.638	4.961	5.346	5.702	6.274	6.872	7.717	8.936	9.286	9.820	10.61	11.16	11.44	11.74	11.49	11.77	11.16	10.61	10.09	9.714	8.497
335.0	3740	4780	4889	3731	2381	1575	1397	1506	1722	2085	2460	2741	2775	2582	2215	1792	1515	975.6	611.6	525.0	705.5	1220	3175	6606	430.8	25.34	7.323	4.787	3.855	3.626	3.107	2.478	2.110	2.007	2.009	2.210	2.325	2.462	2.548	2.648	2.804	3.512	4.216	5.326	6.998	8.480	10.35	12.73	12.57	11.55	10.84	11.02	8.955	7.371	6.550	5.513	5.549	5.623	6.041	6.509	7.140	7.223	8.455	9.504	9.935	10.72	11.50	12.09	12.14	12.58	12.05	12.45	11.99	11.38	10.75	9.943	9.658
340.0	3850	5147	5338	4210	2693	1758	1502	1602	1834	2163	2531	2791	2851	2679	2329	1869	1565	1230	778.0	588.1	516.8	544.7	1002	4537	5741	365.7	15.20	6.070	4.527	3.613	3.330	2.788	2.202	1.963	2.110	2.168	2.462	2.547	2.688	2.754	2.913	3.661	4.385	5.341	7.291	9.260	10.79	13.23	14.13	12.52	11.94	12.74	10.43	8.500	7.112	5.893	6.192	6.200	6.568	7.013	7.374	7.673	9.034	9.664	10.00	11.08	11.99	12.18	12.53	12.96	13.00	12.68	12.52	12.03	11.33	10.46	9.759
345.0	3811	5183	5519	4394	2845	1891	1595	1651	1881	2181	2535	2787	2848	2689	2351	1935	1555	1319	984.1	674.0	539.8	457.3	479.2	1395	5249	3333	55.03	9.585	5.574	4.608	3.500	2.844	2.691	2.236	2.067	2.183	2.336	2.328	2.444	2.774	3.171	3.745	4.652	5.534	7.300	9.288	10.74	13.63	14.10	12.83	12.34	12.61	10.88	8.866	7.353	6.522	6.606	6.445	6.740	7.283	7.674	7.898	9.006	9.668	10.28	10.97	11.77	11.94	12.13	13.14	12.95	12.93	12.55	11.99	11.69	10.87	10.24
350.0	3582	4834	5191	4324	2933	2006	1708	1723	1899	2161	2467	2689	2744	2620	2344	1981	1620	1339	1171	925.8	682.0	547.0	456.1	549.5	1578	3626	3963	1090	20.87	6.197	4.055	3.100	2.741	2.258	2.210	2.259	2.309	2.485	2.446	2.757	2.977	3.502	4.310	5.222	6.934	8.720	10.11	12.49	13.28	12.25	11.85	12.74	11.00	9.533	7.681	7.029	6.975	6.840	7.105	7.300	7.895	8.041	8.919	9.472	10.32	10.66	11.31	11.30	11.94	12.27	12.02	12.49	12.64	11.69	11.52	10.89	10.32
355.0	3233	4344	4757	4122	2956	2107	1831	1803	1908	2152	2398	2593	2634	2547	2304	2007	1702	1425	1245	1153	924.1	700.5	554.7	456.2	573.1	966.5	2579	5368	396.2	23.43	6.463	4.081	3.429	2.376	2.309	2.373	2.131	2.507	2.437	2.751	2.951	3.298	4.082	4.814	6.265	8.025	9.087	11.65	12.21	11.09	11.21	12.36	10.53	9.244	8.039	6.962	7.442	7.225	7.348	7.283	8.239	8.343	9.021	9.640	10.30	10.26	10.56	10.92	11.48	11.82	11.99	12.08	12.43	12.00	11.40	10.95	10.97
360.0	3123	4026	4417	3888	2939	2157	1867	1862	1989	2171	2352	2519	2551	2469	2292	2020	1755	1510	1323	1215	1118	860.4	669.9	513.5	424.5	408.5	762.8	3715	4894	345.9	13.82	5.545	3.831	2.879	2.371	2.354	2.354	2.312	2.397	2.747	2.894	3.361	3.903	4.500	5.793	7.606	8.539	10.81	11.31	10.49	10.78	11.78	10.40	9.169	7.866	7.064	7.480	7.435	7.554	7.763	7.930	8.798	8.715	9.483	10.16	10.21	10.64	10.75	11.28	11.71	11.45	11.68	11.97	11.96	11.45	11.41	10.96
365.0	2837	3819	4109	3701	2854	2223	1946	1926	2018	2178	2332	2449	2481	2416	2253	2022	1809	1595	1423	1286	1218	1061	802.7	615.5	470.1	355.4	341.2	1139	4568	3123	51.02	9.453	4.922	3.784	2.697	2.435	2.515	2.468	2.304	2.469	2.710	3.312	3.895	4.504	5.566	6.912	7.893	10.03	10.67	10.13	10.18	11.45	10.24	9.459	8.183	7.799	7.806	7.657	8.174	7.781	8.394	8.645	9.069	9.856	10.18	10.02	10.03	10.43	11.20	11.40	11.30	11.57	11.76	11.75	11.42	11.40	11.20
370.0	2658	3397	3739	3456	2802	2272	2037	1999	2062	2196	2319	2390	2398	2347	2203	2026	1860	1686	1548	1418	1304	1227	1050	800.0	612.7	449.7	343.6	440.3	1382	3398	3676	980.8	18.89	5.470	3.487	2.993	2.698	2.493	2.419	2.648	2.755	3.364	3.829	4.353	5.159	6.455	7.189	9.067	9.562	8.981	9.306	10.84	9.881	9.486	8.171	7.893	7.995	8.079	8.380	8.165	8.532	8.681	8.953	9.665	9.807	9.648	9.689	10.03	10.71	10.94	11.05	11.33	11.34	11.65	11.17	11.23	11.30
375.0	2437	3075	3460	3243	2738	2316	2092	2060	2103	2204	2311	2353	2342	2290	2163	2013	1890	1756	1646	1546	1429	1329	1235	1041	794.2	611.2	461.3	382.4	504.0	912.4	2497	4781	342.8	20.55	6.120	4.423	3.504	2.971	2.559	2.772	2.756	3.151	3.688	4.178	4.891	5.821	6.602	8.223	8.737	8.319	8.646	9.915	9.586	9.110	8.433	7.827	7.941	7.835	8.473	8.250	9.084	8.697	9.117	9.622	9.511	9.596	9.558	10.16	10.36	10.32	10.74	10.84	11.26	11.57	11.48	11.32	11.38
380.0	2273	2941	3213	3082	2689	2299	2154	2095	2105	2209	2300	2338	2320	2260	2152	2003	1904	1787	1702	1615	1506	1410	1298	1203	956.9	739.7	578.4	450.5	379.5	388.5	756.5	3451	4089	283.3	14.66	7.338	4.741	3.463	2.822	2.896	2.922	3.132	3.782	4.053	4.806	5.873	6.161	7.724	8.279	7.743	8.432	9.686	9.477	9.159	8.183	8.058	8.200	8.283	8.744	8.495	8.943	8.792	9.262	9.439	9.874	9.615	9.471	9.908	10.32	10.49	10.40	10.48	11.03	11.29	11.74	11.16	11.48
385.0	2247	2763	3058	2972	2669	2332	2182	2129	2159	2226	2316	2323	2312	2261	2141	2009	1898	1810	1743	1676	1577	1491	1379	1289	1143	889.4	713.8	561.6	439.5	345.5	349.2	1086	3879	2572	42.65	14.62	7.752	4.796	3.531	3.125	2.993	3.140	3.726	4.064	4.731	5.547	6.034	7.374	7.582	7.522	7.837	9.299	9.141	8.880	8.461	8.114	8.232	8.664	8.802	8.845	8.741	9.401	9.350	10.07	10.06	9.723	9.674	9.634	9.949	10.34	10.83	10.69	10.94	11.18	11.03	10.90	11.57
390.0	2211	2637	2922	2863	2645	2379	2239	2237	2252	2361	2463	2496	2470	2401	2250	2076	1949	1855	1802	1763	1708	1650	1562	1469	1383	1214	1002	830.2	682.9	539.9	399.3	489.8	1249	2751	2808	746.1	25.53	12.80	6.018	3.806	3.217	3.281	3.685	4.051	4.526	5.489	5.838	7.064	7.398	7.316	7.441	8.866	8.913	9.035	8.725	8.485	8.673	8.882	8.890	9.038	9.427	9.726	9.711	10.01	10.17	9.864	10.01	10.08	10.36	10.77	10.79	11.13	11.00	11.35	11.16	11.12	11.34
395.0	2172	2545	2776	2813	2653	2474	2387	2421	2500	2726	2913	2999	2990	2845	2616	2317	2091	1959	1922	1923	1919	1921	1899	1856	1783	1698	1549	1338	1165	991.2	794.5	652.1	614.0	917.0	2139	3633	288.7	35.32	14.04	6.190	3.990	3.852	4.189	4.485	4.698	5.249	5.686	6.742	7.192	6.992	7.702	9.229	9.250	9.382	9.397	8.735	9.904	9.575	9.891	10.00	10.31	10.27	10.78	10.82	11.56	11.17	11.21	11.24	11.39	12.05	11.93	11.72	12.19	11.71	11.75	11.70	11.42
400.0	2115	2554	2797	2804	2669	2588	2576	2671	2870	3241	3605	3761	3712	3512	3134	2681	2314	2127	2104	2123	2177	2245	2301	2321	2291	2231	2164	1956	1745	1541	1298	1039	803.6	697.6	926.8	2897	2352	247.5	29.09	10.02	5.222	4.410	4.404	4.722	4.940	5.533	5.999	7.010	7.247	7.185	7.918	9.367	9.655	9.632	9.485	9.412	10.41	10.59	10.44	10.74	11.05	11.79	11.98	11.56	12.65	12.91	12.89	13.21	13.33	13.95	13.28	14.00	13.40	13.52	12.98	12.74	12.47
405.0	2122	2558	2773	2851	2791	2746	2782	2980	3289	3882	4416	4707	4645	4333	3810	3136	2606	2321	2287	2348	2474	2624	2751	2857	2890	2857	2820	2685	2440	2191	1895	1547	1174	908.9	788.6	1238	2993	2122	182.9	16.70	7.097	5.301	4.880	5.090	5.026	5.774	6.342	7.394	7.739	7.620	8.283	9.906	10.14	10.50	10.38	10.62	11.63	11.88	11.46	11.67	12.34	13.05	13.66	13.47	14.82	14.61	14.36	14.78	15.12	15.69	15.03	15.94	15.06	15.48	14.87	14.09	13.91
410.0	2129	2499	2761	2836	2874	2901	3002	3267	3730	4480	5225	5619	5554	5149	4457	3584	2860	2504	2447	2550	2742	2963	3185	3364	3452	3469	3440	3350	3143	2845	2493	2061	1590	1213	963.2	858.1	1215	2243	2198	560.1	16.70	6.663	5.799	5.565	5.598	5.986	6.397	7.538	7.702	7.831	8.319	10.34	10.77	10.86	11.06	11.48	12.27	12.41	12.49	12.93	13.52	14.20	14.65	15.46	16.54	16.50	16.68	16.73	16.78	17.01	17.24	17.10	16.93	16.96	15.83	15.25	14.52
415.0	2080	2365	2639	2777	2882	2941	3057	3354	3834	4596	5386	5816	5714	5307	4588	3644	2876	2490	2448	2570	2769	3019	3268	3480	3596	3633	3604	3502	3331	3066	2681	2214	1717	1312	1027	792.7	656.3	712.7	1556	2287	250.7	15.57	6.970	5.810	5.938	6.472	6.551	7.527	7.566	7.447	8.006	10.54	10.73	11.00	10.89	11.80	12.55	12.72	13.25	13.94	13.65	14.48	15.06	15.59	16.61	16.78	16.67	17.11	16.90	17.54	17.64	17.24	16.52	16.82	15.77	15.59	14.60
420.0	2010	2349	2587	2697	2790	2903	3031	3286	3778	4494	5252	5632	5551	5165	4461	3522	2781	2415	2379	2493	2700	2940	3188	3392	3518	3548	3536	3420	3254	3023	2663	2182	1693	1293	1003	749.7	514.0	344.4	486.8	1894	2043	202.6	9.106	6.233	5.967	6.184	6.284	7.272	7.356	7.024	7.929	9.739	10.49	10.47	10.69	11.20	12.91	12.60	13.21	13.12	13.83	14.38	14.74	15.29	15.69	16.13	16.82	16.07	17.10	16.80	17.27	16.74	15.92	16.70	15.65	14.97	13.96
425.0	2011	2226	2539	2617	2737	2873	3038	3298	3743	4419	5127	5502	5434	5022	4345	3432	2703	2340	2314	2429	2624	2864	3114	3331	3449	3480	3473	3376	3194	2973	2670	2176	1684	1294	1003	745.4	483.0	267.3	193.0	594.1	2110	1731	33.75	7.496	6.415	6.357	6.488	6.919	7.315	6.978	7.643	9.824	9.976	10.29	11.13	11.20	12.36	12.80	13.24	12.81	13.52	14.15	14.54	15.56	15.65	16.00	15.93	15.86	16.72	16.72	16.85	16.51	16.36	15.66	15.31	14.37	13.40
430.0	2015	2208	2435	2598	2737	2949	3149	3395	3828	4488	5193	5587	5513	5076	4361	3442	2690	2323	2289	2401	2601	2845	3105	3340	3484	3537	3541	3460	3282	3052	2761	2308	1792	1377	1077	804.0	525.9	278.8	144.8	183.4	628.0	1581	1658	446.5	13.99	7.014	6.784	7.220	7.535	7.214	7.402	9.681	10.31	10.84	11.21	11.57	12.57	13.43	13.29	13.39	13.79	14.51	14.56	15.32	15.76	16.49	15.99	16.05	16.72	16.30	16.19	16.37	15.93	15.71	14.54	14.43	13.49
435.0	2331	2203	2414	2554	2793	2999	3292	3516	3905	4530	5223	5614	5530	5076	4358	3444	2674	2290	2259	2364	2549	2802	3073	3323	3482	3559	3572	3508	3345	3119	2822	2401	1906	1466	1149	864.5	578.8	312.3	156.4	105.8	179.8	395.0	1145	2069	235.8	15.37	7.415	7.746	7.435	7.351	7.381	9.771	10.31	11.21	11.52	12.32	13.33	13.54	13.75	13.73	14.01	14.54	14.42	15.68	15.15	16.07	16.30	16.39	16.60	16.19	16.58	16.35	15.84	15.40	14.43	13.97	12.97
440.0	2717	2193	2341	2533	2789	3043	3326	3570	3855	4410	5061	5403	5314	4904	4202	3326	2599	2214	2180	2272	2453	2680	2944	3182	3348	3433	3445	3391	3243	3027	2746	2336	1890	1457	1140	866.4	586.4	329.7	168.1	99.15	87.03	121.4	324.6	1573	1861	192.3	10.30	7.807	7.475	7.065	7.587	9.498	10.15	10.98	11.08	12.18	13.30	13.98	14.46	14.68	14.37	14.50	14.50	15.40	14.89	15.39	15.88	15.15	15.90	15.59	15.61	15.45	15.27	15.13	14.64	13.91	13.09
445.0	2860	2387	2271	2479	2736	3041	3313	3481	3720	4173	4722	5031	4926	4549	3902	3122	2439	2108	2062	2143	2295	2491	2729	2953	3098	3182	3197	3145	3009	2825	2562	2173	1766	1397	1091	827.9	563.7	326.1	175.4	104.2	73.99	65.16	100.9	479.9	1823	1574	29.53	8.785	7.473	7.234	7.434	9.589	9.715	10.75	10.94	12.00	13.24	13.83	13.89	14.29	14.00	13.90	14.00	14.14	14.50	14.32	14.65	14.59	15.09	14.61	14.92	14.47	14.56	14.46	13.62	13.23	12.42
450.0	2340	2920	2290	2353	2620	2929	3217	3350	3452	3744	4172	4405	4332	3989	3452	2765	2208	1917	1871	1924	2039	2190	2392	2584	2706	2776	2792	2745	2629	2474	2244	1907	1551	1241	997.8	753.4	517.9	312.4	181.2	113.9	79.75	60.93	55.93	132.5	532.5	1375	1480	415.5	13.57	7.462	7.211	8.902	9.383	10.32	10.76	11.20	12.64	13.31	13.83	13.27	13.08	12.94	13.18	12.76	13.09	13.18	12.97	12.97	13.22	13.20	13.26	13.05	13.03	12.85	12.29	11.58	11.24
455.0	1701	2975	2637	2211	2495	2814	3064	3150	3153	3350	3659	3838	3767	3490	3006	2425	1965	1712	1670	1709	1783	1901	2078	2229	2344	2398	2418	2372	2290	2156	1964	1674	1364	1093	897.6	698.5	482.5	299.3	184.4	123.2	89.11	67.56	52.45	58.85	140.9	335.3	888.7	1745	198.6	14.11	7.344	8.612	8.736	9.607	10.18	10.55	12.06	12.76	12.71	12.17	12.63	11.86	11.85	11.60	11.71	11.77	11.47	11.68	11.63	11.44	11.49	11.67	11.81	11.38	10.73	10.04	10.36
460.0	1475	2521	3006	2138	2381	2640	2910	2970	2954	3075	3322	3472	3403	3151	2730	2216	1796	1568	1532	1557	1611	1718	1863	2008	2110	2159	2171	2143	2072	1960	1790	1533	1252	1007	821.1	658.6	468.5	294.7	186.6	130.4	95.91	72.21	55.92	45.79	56.80	94.27	239.1	1169	1475	153.1	10.39	8.455	8.478	9.428	9.670	9.986	11.85	12.03	12.25	11.67	11.78	10.93	10.77	10.84	10.70	10.75	10.11	10.68	10.78	10.19	10.96	10.67	10.76	10.39	9.774	9.935	9.124
465.0	1299	1917	3180	2331	2225	2476	2748	2785	2750	2827	3044	3175	3109	2874	2495	2039	1651	1447	1407	1429	1468	1556	1690	1813	1907	1948	1974	1941	1884	1785	1645	1408	1153	934.9	763.9	615.0	453.9	293.4	186.4	132.3	100.3	77.43	60.24	45.97	40.93	43.34	70.99	334.9	1318	1214	124.4	9.713	8.439	9.093	9.298	9.844	11.36	11.46	11.96	11.04	10.95	11.01	10.43	9.638	10.02	10.25	9.515	10.17	9.779	9.887	9.991	9.926	10.04	9.635	9.030	8.849	8.739
470.0	1226	1502	2475	2909	2110	2257	2488	2523	2451	2486	2656	2764	2689	2487	2161	1767	1438	1269	1230	1233	1265	1335	1445	1552	1624	1665	1685	1668	1619	1545	1422	1229	1012	822.0	674.7	542.6	412.5	283.9	187.9	133.6	102.2	81.33	64.69	50.64	40.92	34.50	36.17	91.83	369.3	918.6	1054	371.2	14.96	9.153	8.655	9.268	10.50	10.63	10.64	10.25	10.15	9.703	9.313	8.964	8.614	8.915	8.364	8.772	8.515	8.878	8.783	8.770	8.580	8.342	7.737	7.983	7.849
475.0	1105	1274	1622	2881	2465	2005	2196	2187	2143	2111	2229	2304	2241	2078	1804	1490	1230	1086	1051	1049	1058	1108	1198	1281	1342	1374	1389	1381	1343	1282	1181	1029	855.9	695.3	582.2	466.3	355.4	259.0	187.4	133.9	103.0	82.99	66.47	53.37	44.01	35.78	31.11	38.97	96.79	219.8	507.0	1162	204.4	18.48	8.338	7.979	9.119	9.487	9.549	9.122	8.623	8.599	8.241	7.703	7.611	7.585	7.380	7.366	7.316	7.460	7.223	7.549	7.128	7.364	6.826	6.895	6.405
480.0	1003	1157	1300	2282	2937	1898	1998	1999	1921	1885	1945	2000	1948	1803	1579	1305	1089	967.1	933.9	923.6	922.7	963.4	1035	1100	1162	1177	1193	1185	1147	1106	1021	892.5	745.0	615.6	511.3	414.8	317.2	233.0	181.3	137.1	104.1	82.69	68.45	56.05	45.57	38.29	31.81	28.58	37.51	61.90	131.4	637.1	1072	208.7	12.10	8.090	8.397	8.542	8.727	8.174	8.027	7.664	7.232	6.698	6.938	6.815	6.868	6.927	6.805	6.524	6.768	6.913	6.215	6.446	6.185	6.333	6.196
485.0	915.4	1095	1132	1618	3090	2109	1834	1823	1735	1685	1728	1774	1719	1587	1397	1162	973.5	863.3	834.7	824.7	821.3	853.0	910.5	965.8	1010	1033	1041	1033	1006	972.8	895.8	785.6	662.8	552.1	460.1	374.7	290.8	215.4	170.0	138.4	107.5	83.77	68.54	58.40	47.62	40.35	33.87	28.16	25.62	27.91	40.56	173.2	791.0	1701	144.0	9.429	8.046	7.863	8.059	7.592	6.987	6.914	6.859	6.441	6.343	6.142	6.167	6.262	6.104	5.942	5.739	5.878	5.810	5.774	5.706	5.828	5.707
490.0	798.3	970.3	1031	1230	2304	2776	1741	1610	1530	1468	1501	1529	1479	1363	1194	1002	844.8	752.8	727.7	716.7	710.1	731.6	776.1	823.4	857.5	875.6	884.5	879.6	860.8	828.6	767.9	676.8	572.9	482.2	405.2	333.3	260.1	197.0	154.5	131.5	111.1	86.38	70.30	58.74	49.84	41.46	36.17	30.29	24.75	21.41	21.56	49.31	210.2	1127	871.9	374.8	17.15	7.543	7.055	6.789	6.447	6.283	6.025	5.554	5.403	5.347	5.509	5.314	5.433	5.249	5.245	5.359	5.035	5.101	4.958	4.869	4.880
495.0	688.3	879.1	940.8	1025	1431	2805	2157	1419	1311	1267	1277	1310	1252	1153	1010	858.3	726.6	649.0	630.5	609.1	608.7	619.5	657.4	690.6	725.0	737.4	746.1	735.7	725.4	699.5	651.8	579.3	494.8	414.6	350.5	296.6	233.3	178.4	140.5	118.5	105.8	91.59	71.67	59.33	50.63	43.82	37.35	31.74	26.36	21.46	18.61	22.66	56.01	261.6	379.8	1007	237.9	20.63	6.586	6.278	5.851	5.535	5.096	4.849	4.821	4.649	4.862	4.725	4.614	4.638	4.559	4.623	4.557	4.346	4.326	4.299	4.294
500.0	606.8	774.5	863.0	894.4	1084	2157	2727	1353	1167	1127	1138	1144	1095	1004	878.3	748.3	640.5	571.7	556.2	535.2	529.4	541.4	573.0	603.7	627.4	639.9	642.9	643.6	631.9	610.0	571.0	508.5	433.4	365.8	312.8	264.1	212.3	164.2	131.7	110.0	97.74	90.60	73.88	60.31	50.23	43.49	38.26	32.32	27.17	22.34	18.21	17.66	22.38	67.54	96.07	479.5	1004	219.8	14.47	5.876	5.121	4.963	4.646	4.498	4.447	4.249	4.323	3.961	4.185	3.912	4.244	3.777	3.964	4.039	4.002	3.644	4.130
505.0	552.5	662.0	787.9	814.3	924.2	1428	2905	1587	1037	1007	1006	1007	962.2	879.6	776.4	659.7	562.9	508.0	488.5	473.1	464.2	473.9	497.0	525.8	540.8	556.8	555.6	559.2	549.4	531.7	501.2	446.8	384.6	325.9	280.1	238.1	193.6	151.3	123.4	103.2	88.55	82.73	73.69	60.47	49.65	43.17	38.23	32.28	27.04	23.23	18.80	16.84	15.00	24.07	29.33	123.3	593.8	949.5	179.8	8.333	5.161	4.515	4.304	4.337	3.839	3.632	3.902	3.556	3.834	3.546	3.853	3.624	3.700	3.328	3.351	3.290	3.577
510.0	473.0	553.7	661.6	744.0	775.8	957.9	2053	2398	1007	847.6	854.4	855.7	807.4	739.4	650.7	555.3	475.5	429.7	411.9	397.1	390.7	394.7	414.8	437.0	447.8	458.5	461.3	462.8	450.8	440.3	415.9	369.9	324.2	274.0	237.8	202.4	166.6	134.0	109.5	93.60	80.69	72.27	68.16	61.11	50.66	42.13	36.92	31.95	27.38	23.43	19.61	16.88	14.05	15.10	14.66	34.62	150.1	474.9	710.8	330.2	16.01	4.455	3.965	3.672	3.375	3.294	3.279	3.236	3.208	3.255	3.415	3.343	3.129	2.871	2.814	2.881	2.917
515.0	403.9	459.4	533.2	644.7	669.1	744.6	1093	2548	1524	718.2	707.1	707.6	658.3	610.0	535.5	454.9	390.7	356.7	338.2	329.7	322.7	323.9	337.7	354.8	359.4	369.2	374.3	370.1	361.9	355.2	337.8	301.4	267.0	226.1	197.6	169.2	141.4	116.9	96.96	83.01	72.43	64.62	59.13	56.49	50.51	42.85	34.75	31.26	26.46	22.69	19.51	17.49	13.96	13.14	11.84	15.20	40.20	112.2	243.2	710.2	243.3	20.02	3.841	3.332	3.054	3.153	2.816	2.572	2.525	2.862	2.876	2.990	2.545	2.497	2.407	2.560	2.529
520.0	357.1	412.6	469.9	560.4	608.9	646.3	746.5	1821	2311	712.5	614.4	600.0	574.6	525.2	461.8	392.8	341.7	310.5	294.2	284.8	275.4	278.8	287.2	299.6	308.2	312.7	314.0	310.9	310.3	301.9	285.2	255.7	229.0	195.7	170.3	148.1	124.6	104.7	87.88	75.67	66.16	60.24	53.79	51.18	49.48	42.44	34.32	30.73	26.24	22.00	19.03	16.86	14.28	12.26	11.31	10.84	15.65	30.96	60.55	294.4	708.6	222.7	13.85	3.215	2.809	2.550	2.529	2.410	2.562	2.568	2.423	2.682	2.161	2.316	2.304	2.209	2.296
525.0	332.1	356.3	408.2	480.8	560.2	557.2	608.8	1054	2702	1030	540.0	529.3	504.6	453.3	403.8	342.3	297.9	271.0	256.6	248.5	241.0	239.9	247.3	258.1	267.4	272.1	269.6	269.4	267.8	259.2	246.9	222.9	198.2	170.9	149.7	131.8	109.3	93.55	80.78	69.51	61.80	55.59	49.28	45.44	44.82	42.04	34.42	28.89	25.14	21.65	18.47	16.64	14.31	12.53	11.07	9.736	10.24	12.81	18.52	73.59	358.2	677.5	179.4	6.930	2.749	2.395	2.341	2.125	2.233	2.313	2.167	2.283	2.092	2.115	1.945	1.994	2.038
530.0	268.2	317.3	332.9	385.9	477.3	487.3	504.9	623.2	1771	2118	588.8	445.2	420.8	377.5	332.8	286.9	250.3	228.6	215.1	209.3	198.3	199.9	205.3	212.1	219.4	223.3	219.7	221.2	219.8	214.3	204.8	184.7	164.5	144.2	127.2	110.4	95.13	81.00	70.88	60.88	54.42	48.69	45.03	40.24	38.56	38.65	34.30	28.12	23.86	20.30	18.08	15.32	13.47	12.33	10.64	9.181	8.595	8.689	9.104	20.87	87.89	293.8	489.0	254.0	15.22	2.504	2.221	2.072	2.045	2.042	1.886	1.903	1.773	1.788	1.708	1.686	1.682
535.0	232.3	274.0	284.1	308.8	381.0	438.1	422.7	441.0	760.1	2374	1235	376.9	348.3	310.2	275.5	234.5	204.5	187.4	175.8	174.1	163.1	163.0	166.8	172.5	177.9	181.1	177.6	177.1	180.2	171.8	165.2	152.2	135.0	118.4	106.2	93.07	79.69	67.98	59.65	53.35	47.86	43.44	39.95	35.68	33.12	31.53	31.05	28.21	22.87	18.83	16.43	14.28	12.46	11.57	10.42	9.340	8.326	7.606	6.876	9.016	23.32	68.92	148.8	459.1	244.7	19.70	2.318	1.919	1.912	1.681	1.478	1.652	1.471	1.445	1.410	1.550	1.461
540.0	208.5	248.7	254.3	265.3	302.5	398.4	370.1	356.7	426.5	1537	2007	398.8	297.2	266.2	237.3	202.6	176.7	162.4	153.1	148.7	140.0	139.1	143.8	146.2	150.9	153.1	151.0	150.1	152.3	147.0	140.1	127.5	114.8	101.4	89.85	79.77	68.67	61.08	52.52	47.37	42.50	39.14	36.00	32.31	29.44	27.96	27.14	26.81	22.89	18.19	15.06	13.53	11.80	10.56	10.04	8.805	7.959	6.841	6.080	5.871	8.572	18.41	36.41	172.1	479.8	213.5	12.69	2.047	1.725	1.557	1.417	1.408	1.384	1.329	1.350	1.550	1.399
545.0	187.4	214.5	238.2	229.7	257.7	331.0	348.7	313.9	315.7	726.5	2539	702.7	254.7	231.3	202.9	175.6	152.3	140.6	131.8	127.5	120.6	120.8	123.5	126.5	129.2	129.8	128.7	127.8	127.9	124.4	119.4	109.3	98.14	87.04	77.10	69.06	61.37	54.14	46.99	42.45	38.51	34.57	31.97	29.62	27.06	24.32	23.23	23.79	21.88	17.07	14.09	12.46	10.72	10.09	9.448	8.482	7.625	6.789	5.461	4.903	5.183	7.228	10.75	41.99	216.3	465.8	159.6	5.630	1.572	1.385	1.418	1.252	1.361	1.210	1.337	1.281	1.132
550.0	162.5	182.1	196.4	193.4	212.7	251.5	309.5	265.3	246.9	345.3	1512	1788	287.2	187.4	166.0	143.1	125.4	113.5	108.0	103.4	97.75	97.53	99.86	101.4	103.1	102.9	104.4	102.2	104.3	101.2	96.39	88.31	80.22	70.78	63.58	56.46	50.42	44.40	39.20	35.62	32.46	29.03	26.89	25.27	23.49	21.26	19.82	19.07	18.44	16.46	13.35	11.33	9.433	8.738	8.078	7.561	7.022	6.254	5.209	4.528	4.191	4.258	4.723	11.53	52.17	188.5	328.7	141.2	13.92	1.619	1.310	1.097	1.288	1.190	1.038	1.106	1.001
555.0	144.4	153.8	160.9	164.8	163.9	191.4	249.9	243.5	194.0	215.6	530.9	2115	809.7	150.0	132.3	112.0	101.0	90.80	84.68	82.40	78.33	77.84	76.53	78.60	80.98	79.92	81.62	79.52	80.43	78.67	75.16	69.58	62.11	54.90	50.68	45.04	40.98	35.77	31.64	28.68	26.19	24.19	22.61	20.66	19.18	18.13	16.48	15.32	14.56	13.97	12.62	10.07	8.304	7.539	7.019	6.032	5.878	5.525	5.154	4.134	3.705	3.452	3.317	4.550	13.50	43.79	96.63	274.2	216.6	17.30	1.384	1.024	1.150	1.065	0.867	0.837	0.947
560.0	128.9	145.6	148.2	142.6	140.4	159.0	194.0	230.7	169.6	171.1	242.2	1306	1471	160.3	107.2	94.87	84.08	75.54	70.48	66.52	65.95	63.77	63.75	63.92	65.38	64.89	64.79	64.10	66.01	64.96	62.39	57.48	50.76	46.09	42.16	37.65	33.12	29.76	25.95	23.57	22.48	20.98	18.95	17.62	16.58	14.96	13.97	12.70	12.15	11.69	11.80	9.665	7.518	6.854	6.190	5.333	5.172	4.971	4.881	3.990	3.413	2.902	2.896	2.864	4.700	11.41	23.34	101.7	304.5	159.1	8.254	1.025	1.000	0.999	0.930	0.780	0.855
565.0	126.8	126.7	131.1	123.4	114.6	126.8	152.6	213.2	160.5	144.2	161.6	536.2	2104	384.3	90.54	78.00	70.72	63.62	58.78	56.12	54.21	52.63	52.59	53.97	55.04	54.79	54.51	55.29	54.35	54.12	51.21	47.68	42.60	38.69	34.73	31.43	27.53	25.21	22.23	20.52	19.47	17.68	16.32	15.60	14.63	13.62	12.50	11.29	10.14	9.636	10.03	9.056	6.913	6.109	5.407	5.032	4.931	4.124	4.254	4.108	3.315	2.706	2.559	2.393	2.734	4.139	6.571	24.79	130.5	280.6	34.80	3.041	1.020	0.906	0.826	0.748	0.730
570.0	132.6	121.4	119.6	106.3	100.0	109.2	116.9	156.1	165.0	126.1	126.0	212.4	1259	1297	108.7	63.11	55.28	50.56	47.10	45.06	43.20	42.16	42.43	41.81	43.26	43.15	42.53	42.77	42.77	42.10	40.00	37.36	33.50	30.57	28.09	25.23	22.70	20.67	18.15	16.72	16.13	14.45	13.88	12.81	12.07	11.25	10.41	9.417	8.356	7.861	7.619	7.654	6.557	5.576	4.707	4.394	4.283	3.674	3.533	3.478	3.239	2.732	2.303	2.115	2.051	2.363	2.815	6.863	31.51	110.0	176.9	104.8	11.48	0.936	0.761	0.686	0.660
575.0	121.7	127.0	111.3	91.33	81.24	88.84	93.54	111.5	156.8	122.1	108.5	123.7	397.1	1616	494.0	51.60	43.91	39.07	36.84	34.69	34.83	33.07	34.18	33.35	33.54	33.24	33.65	32.88	32.49	31.74	30.98	28.76	26.68	24.06	22.22	19.86	17.45	16.46	14.85	13.66	12.50	12.01	10.79	10.60	9.791	9.379	8.531	7.664	6.912	6.355	5.837	5.757	5.726	5.164	4.186	3.945	3.329	3.033	3.006	2.692	2.926	2.713	2.210	1.934	1.848	1.870	1.876	2.780	8.221	25.66	51.89	161.6	135.8	12.48	0.726	0.618	0.575
580.0	110.8	111.4	106.6	83.63	74.10	70.67	79.31	89.11	137.7	131.0	102.4	100.6	156.3	987.8	1038	62.57	37.01	34.29	31.45	29.27	28.29	27.86	27.96	27.35	27.84	27.87	27.02	26.56	26.84	26.99	26.35	23.81	21.99	19.42	18.48	15.76	14.96	13.56	12.73	11.54	10.64	10.11	9.306	8.759	8.149	7.948	7.530	6.518	5.870	5.389	4.849	4.717	4.990	4.667	4.047	3.438	2.961	2.849	2.620	2.494	2.419	2.536	2.348	1.903	1.664	1.758	1.597	1.867	3.064	6.827	12.71	57.72	176.8	95.78	5.580	0.637	0.630
585.0	116.8	121.4	105.1	80.23	72.37	64.70	72.04	80.97	109.7	140.8	99.69	94.14	97.79	383.0	1502	116.3	32.99	28.50	26.65	25.19	23.26	23.45	23.41	23.89	23.22	22.83	22.75	22.53	23.04	22.63	21.84	20.12	18.09	16.33	15.22	13.78	13.22	11.59	10.32	9.457	9.439	8.209	7.683	7.905	7.143	6.455	6.358	5.714	5.405	4.710	4.320	3.950	4.195	4.364	3.901	3.246	2.688	2.675	2.437	2.183	2.116	2.105	2.194	1.904	1.680	1.653	1.445	1.618	1.882	2.548	3.798	14.09	74.00	166.6	32.87	2.089	0.586
590.0	102.5	110.7	99.92	73.02	62.24	60.23	68.42	69.20	82.57	128.5	110.5	89.62	80.74	135.8	886.0	805.7	47.74	23.76	21.20	20.01	19.63	18.75	18.63	18.94	18.76	18.23	18.66	18.32	18.63	17.77	16.91	16.30	14.95	13.49	12.85	11.31	10.32	9.531	8.672	7.864	7.779	6.844	6.310	6.207	5.991	5.495	5.137	4.787	4.492	3.916	3.706	3.298	3.222	3.574	3.351	3.123	2.555	2.326	2.129	2.087	1.818	1.806	1.735	1.841	1.663	1.520	1.371	1.362	1.433	1.477	1.734	3.916	17.67	63.88	106.1	66.62	8.945
595.0	99.95	106.8	101.1	69.59	53.22	55.13	59.43	61.98	70.20	100.1	126.4	89.59	74.69	72.33	263.0	1079	261.5	20.35	17.35	16.98	15.84	15.04	14.70	15.08	14.79	14.27	15.15	14.73	14.65	14.44	13.34	13.03	11.73	10.53	10.00	9.213	8.492	7.663	6.895	6.236	6.158	5.778	5.285	5.125	4.967	4.635	4.332	4.068	3.716	3.307	3.127	2.945	2.583	2.592	2.629	2.718	2.227	1.881	1.872	1.792	1.669	1.577	1.274	1.576	1.494	1.555	1.321	1.224	1.220	1.224	1.204	1.653	4.713	14.82	30.30	92.52	82.12
600.0	93.75	100.8	91.17	64.83	54.87	51.84	58.44	59.90	66.04	83.67	130.6	92.57	73.50	58.71	92.90	692.2	679.2	25.97	15.32	14.20	13.60	12.49	12.49	12.70	12.58	11.75	12.78	12.15	12.28	11.75	11.26	11.44	9.723	8.637	8.112	7.713	7.091	6.350	5.902	5.437	5.339	4.797	4.585	4.357	4.237	3.961	3.650	3.473	3.184	2.789	2.661	2.413	2.241	2.008	2.061	2.412	2.310	1.928	1.648	1.584	1.463	1.471	1.184	1.301	1.282	1.521	1.324	1.188	1.095	1.123	1.080	1.173	1.601	3.907	7.391	32.53	103.4
605.0	99.83	98.14	86.89	60.72	50.86	50.73	54.48	56.54	67.35	80.05	123.5	109.0	79.15	58.75	53.91	268.8	964.2	75.32	12.87	11.99	11.32	11.07	10.61	10.57	10.46	10.21	10.52	10.17	10.32	10.05	9.848	9.301	8.495	7.560	6.959	6.378	6.395	5.508	5.234	4.464	4.459	4.294	3.827	3.728	3.468	3.564	3.283	2.991	2.604	2.391	2.205	2.005	1.945	1.808	1.758	2.126	2.112	2.062	1.402	1.462	1.282	1.281	1.139	1.254	1.070	1.366	1.485	1.032	1.226	1.036	0.959	1.000	1.008	1.443	2.212	7.982	41.59
610.0	96.16	93.45	82.13	59.81	50.99	48.12	54.28	58.75	70.16	84.94	114.7	133.2	93.92	65.82	51.04	91.38	626.3	487.7	20.95	10.21	9.348	9.103	8.734	8.575	8.879	8.374	8.396	8.182	8.134	8.363	8.054	7.215	6.599	5.970	5.667	5.150	4.950	4.462	4.403	3.602	3.734	3.293	3.183	3.064	2.976	2.823	2.617	2.514	2.241	2.073	1.906	1.767	1.603	1.530	1.436	1.498	1.795	1.844	1.492	1.315	1.175	1.259	1.085	1.096	1.151	1.224	1.386	1.152	1.052	1.102	0.856	0.807	0.843	0.923	0.896	2.291	10.03
615.0	94.47	91.64	81.47	59.84	46.82	44.41	50.82	61.33	69.30	80.67	101.9	133.3	108.1	70.59	53.19	48.34	193.8	745.2	77.43	8.350	7.781	7.626	7.244	6.546	6.816	6.669	6.731	6.749	6.376	6.769	6.414	5.947	5.306	5.213	4.665	4.266	4.066	3.996	3.318	3.023	2.998	2.663	2.707	2.587	2.526	2.365	2.158	2.052	1.703	1.886	1.466	1.434	1.311	1.400	1.163	1.171	1.368	1.563	1.488	1.311	1.194	0.961	1.118	1.035	1.117	0.972	1.125	1.338	1.165	1.065	0.902	0.756	0.854	0.732	0.699	1.019	2.737
620.0	97.13	92.08	75.44	53.32	46.53	45.72	47.96	55.89	64.11	78.28	92.99	117.6	116.4	71.52	50.97	37.70	67.28	527.1	405.0	10.82	6.731	6.355	6.274	5.993	5.864	5.737	5.575	5.789	5.314	5.613	5.380	5.034	4.674	4.471	4.127	3.819	3.508	3.254	2.809	2.691	2.578	2.136	2.376	2.067	2.202	2.073	1.979	1.761	1.530	1.637	1.326	1.277	1.097	1.267	1.093	1.061	1.108	1.271	1.182	1.280	1.119	1.026	1.025	0.944	0.999	0.893	0.951	1.063	1.196	1.074	0.864	0.840	0.835	0.783	0.621	0.716	1.054
625.0	91.06	83.57	74.01	53.81	47.09	43.68	43.88	53.89	63.36	77.39	90.39	103.9	119.9	73.48	52.67	35.09	36.70	218.4	659.3	39.07	6.079	5.807	5.567	5.325	5.110	4.677	4.727	4.907	4.592	4.719	4.591	4.310	4.143	3.891	3.369	3.516	2.971	2.842	2.503	2.332	2.154	2.045	2.074	1.846	1.854	1.732	1.554	1.566	1.325	1.375	1.178	1.100	1.038	1.162	1.050	0.931	1.008	1.051	1.181	1.168	1.094	0.969	0.930	0.909	0.876	0.975	0.888	1.058	1.075	1.210	0.941	0.772	0.702	0.728	0.594	0.618	0.620
630.0	88.07	85.16	73.34	51.24	42.30	41.99	45.63	53.91	61.80	74.38	86.72	96.29	109.2	84.33	53.53	35.93	29.08	67.15	478.2	308.2	9.070	4.773	4.793	4.597	4.031	4.302	3.979	4.049	3.786	3.800	3.772	3.601	3.405	3.000	2.841	2.683	2.564	2.304	2.105	2.021	1.887	1.638	1.607	1.575	1.536	1.391	1.385	1.310	1.143	1.130	1.012	0.966	0.975	0.985	0.832	0.820	0.943	0.934	0.902	1.075	1.066	0.877	0.916	0.769	0.906	0.902	0.836	0.928	0.993	1.019	0.919	0.896	0.676	0.690	0.629	0.567	0.566
635.0	86.55	84.27	74.58	48.50	42.68	41.89	44.89	53.30	59.15	72.75	84.72	94.13	97.26	94.93	58.23	37.20	28.87	28.64	148.7	546.3	54.66	4.584	3.734	3.828	3.569	3.463	3.493	3.076	3.406	3.426	3.008	2.827	2.557	2.399	2.190	2.213	2.078	2.012	1.617	1.616	1.522	1.381	1.289	1.254	1.260	1.178	1.146	1.129	1.056	0.866	0.897	0.841	0.745	0.752	0.743	0.749	0.808	0.792	0.834	0.824	0.972	0.884	0.863	0.764	0.864	0.916	0.840	0.813	0.972	0.865	0.797	0.891	0.667	0.590	0.556	0.513	0.572
640.0	92.20	95.39	77.83	52.93	41.89	38.54	43.46	51.45	59.69	73.50	85.32	92.41	92.87	96.65	66.33	42.01	31.27	21.33	43.66	429.5	254.1	4.755	3.352	2.964	3.228	3.334	2.851	2.961	2.923	2.729	2.724	2.597	2.289	1.953	2.015	1.906	1.766	1.670	1.481	1.199	1.269	1.317	1.207	1.077	1.076	0.988	1.085	1.146	0.891	0.806	0.747	0.721	0.720	0.701	0.766	0.626	0.674	0.631	0.723	0.734	0.866	0.811	0.789	0.816	0.843	0.800	0.777	0.793	0.873	0.739	0.901	0.854	0.903	0.716	0.753	0.604	0.630
645.0	102.7	104.9	79.76	58.00	43.41	35.49	42.87	51.51	57.73	70.97	84.96	93.50	92.56	92.79	74.60	43.90	32.67	21.18	18.89	193.0	455.1	20.85	3.251	3.065	3.199	2.948	2.644	2.774	2.796	2.611	2.403	2.189	2.247	2.008	1.787	1.681	1.744	1.366	1.359	1.276	1.150	1.181	1.089	1.036	0.862	0.921	0.985	0.943	0.812	0.743	0.651	0.680	0.661	0.645	0.715	0.600	0.768	0.669	0.596	0.658	0.761	0.714	0.756	0.819	0.846	0.687	0.737	0.868	0.794	0.757	0.859	0.853	0.940	0.797	0.675	0.624	0.616
650.0	104.5	122.6	91.42	63.47	45.05	36.23	41.42	52.22	58.66	70.35	81.68	92.00	90.88	85.72	78.17	47.06	33.33	21.37	13.42	59.81	463.7	66.08	3.260	2.694	2.944	2.593	2.343	2.200	2.387	2.223	2.111	2.246	1.949	1.779	1.651	1.751	1.754	1.264	1.221	1.207	1.050	1.043	1.042	0.893	0.801	0.920	0.893	0.836	0.793	0.664	0.606	0.759	0.749	0.623	0.609	0.603	0.636	0.632	0.670	0.681	0.647	0.657	0.825	0.737	0.751	0.688	0.854	0.734	0.772	0.772	0.715	0.737	0.792	0.839	0.563	0.692	0.620
