Sample:	'1
File name:	G2025061913 田华水务排口.FD3
Run date:	'12:25:54, 06/30/2025
Operator:	Administrator
Comment:	'

Instrument
Model:	F-2700 FL Spectrophotometer
Serial number:	23B8-004
ROM Version:	4J14000 07

Instrument parameters
Measurement type:	3-D scan
Data mode:	Fluorescence
EX  Start WL:	220.0 nm
EX  End WL:	600.0 nm
EX Sampling interval:	5.0 nm
EM  Start WL:	230.0 nm
EM  End WL:	650.0 nm
EM Sampling interval:	5.0 nm
Scan speed:	12000 nm/min
EX Slit:	5.0 nm
EM Slit:	5.0 nm
PMT Voltage:	700 V
Response:	Auto 
Corrected spectra:	Off
Contour interval:	50.000

Peak integration
Integration method:	Rectangular
Sensitivity:	1
Threshold:	1.000

Peaks
No.	ApexEX/EM(nm)	Height(Data)
1	225.0/620.0	28.30
2	230.0/295.0	276.3
3	230.0/500.0	225.1
4	230.0/560.0	48.65
5	230.0/580.0	45.84
6	235.0/255.0	291.8
7	235.0/510.0	221.4
8	240.0/265.0	366.4
9	240.0/405.0	619.2
10	240.0/525.0	202.3
11	245.0/270.0	396.9
12	245.0/535.0	171.6
13	250.0/275.0	500.6
14	250.0/420.0	587.7
15	250.0/545.0	143.8
16	255.0/280.0	598.2
17	255.0/560.0	127.9
18	260.0/285.0	549.5
19	260.0/570.0	99.72
20	265.0/290.0	545.6
21	265.0/585.0	97.57
22	270.0/300.0	723.2
23	270.0/595.0	76.84
24	275.0/305.0	816.2
25	275.0/610.0	63.68
26	280.0/310.0	659.9
27	280.0/625.0	50.44
28	285.0/315.0	617.4
29	285.0/635.0	39.50
30	290.0/325.0	533.3
31	295.0/330.0	426.4
32	300.0/335.0	412.6
33	305.0/340.0	384.2
34	310.0/350.0	359.6
35	315.0/355.0	372.6
36	320.0/365.0	396.9
37	320.0/400.0	484.5
38	325.0/370.0	405.5
39	330.0/375.0	422.7
40	335.0/385.0	438.0
41	430.0/505.0	25.76
42	445.0/525.0	14.26
43	460.0/545.0	7.285
44	485.0/265.0	2.433
45	495.0/270.0	2.337
46	505.0/275.0	3.409
47	510.0/280.0	3.837
48	520.0/285.0	3.876
49	530.0/290.0	3.539
50	540.0/295.0	4.482
51	545.0/300.0	4.790
52	555.0/305.0	4.708
53	565.0/310.0	3.975
54	575.0/315.0	4.087
55	580.0/320.0	4.503
56	585.0/325.0	3.837

Data points
	220.0	225.0	230.0	235.0	240.0	245.0	250.0	255.0	260.0	265.0	270.0	275.0	280.0	285.0	290.0	295.0	300.0	305.0	310.0	315.0	320.0	325.0	330.0	335.0	340.0	345.0	350.0	355.0	360.0	365.0	370.0	375.0	380.0	385.0	390.0	395.0	400.0	405.0	410.0	415.0	420.0	425.0	430.0	435.0	440.0	445.0	450.0	455.0	460.0	465.0	470.0	475.0	480.0	485.0	490.0	495.0	500.0	505.0	510.0	515.0	520.0	525.0	530.0	535.0	540.0	545.0	550.0	555.0	560.0	565.0	570.0	575.0	580.0	585.0	590.0	595.0	600.0
230.0	36.24	341.8	874.2	237.5	15.26	6.022	5.150	4.691	3.676	3.182	2.955	2.728	2.483	2.151	1.735	1.644	1.365	1.288	1.060	0.978	0.960	0.927	0.866	0.802	0.741	0.756	0.639	0.674	0.684	0.636	0.594	0.529	0.518	0.481	0.478	0.545	0.476	0.449	0.460	0.429	0.426	0.445	0.447	0.384	0.394	0.408	0.717	1.969	3.318	2.508	0.973	0.426	0.335	0.339	0.327	0.322	0.346	0.324	0.367	0.334	0.309	0.346	0.335	0.355	0.325	0.340	0.323	0.362	0.356	0.309	0.317	0.368	0.358	0.351	0.410	0.374	0.357
235.0	62.69	114.0	668.8	778.9	343.0	23.68	5.653	4.808	4.151	3.209	3.034	2.963	2.696	2.202	2.204	1.619	1.236	1.227	1.017	0.927	0.903	0.740	0.828	0.808	0.792	0.797	0.645	0.610	0.729	0.677	0.568	0.615	0.518	0.490	0.501	0.526	0.488	0.426	0.419	0.435	0.385	0.501	0.466	0.416	0.430	0.406	0.422	0.760	1.641	2.753	4.026	4.376	2.034	0.575	0.314	0.262	0.378	0.341	0.334	0.353	0.300	0.327	0.336	0.328	0.398	0.382	0.312	0.344	0.376	0.293	0.297	0.366	0.382	0.328	0.372	0.321	0.359
240.0	98.31	87.19	219.4	834.8	1184	280.4	14.10	5.589	3.905	3.929	3.312	3.126	2.702	2.097	1.945	1.553	1.600	1.202	1.165	1.097	0.938	0.865	0.796	0.928	0.806	0.806	0.597	0.645	0.711	0.619	0.576	0.561	0.504	0.539	0.513	0.472	0.540	0.420	0.480	0.388	0.450	0.463	0.452	0.354	0.532	0.649	0.601	0.454	0.641	1.011	2.298	5.541	7.000	4.923	1.781	0.478	0.401	0.373	0.304	0.297	0.309	0.391	0.330	0.314	0.350	0.307	0.387	0.330	0.348	0.339	0.297	0.323	0.349	0.349	0.395	0.342	0.428
245.0	84.79	149.2	99.61	316.3	1305	1223	204.7	10.56	5.789	4.162	3.056	2.875	2.727	2.267	1.811	1.286	1.293	1.247	1.119	1.024	1.077	0.896	0.808	0.823	0.801	0.754	0.666	0.737	0.683	0.677	0.597	0.618	0.569	0.569	0.511	0.453	0.495	0.402	0.386	0.416	0.482	0.471	0.475	0.433	0.440	0.591	0.820	0.697	0.493	0.485	0.771	2.042	5.159	8.573	8.308	4.209	1.198	0.409	0.359	0.300	0.349	0.361	0.316	0.306	0.357	0.314	0.333	0.354	0.340	0.367	0.336	0.381	0.329	0.361	0.437	0.380	0.385
250.0	46.38	127.6	197.3	158.2	434.7	1228	1547	977.0	40.04	5.022	4.079	3.423	2.839	2.270	1.841	1.659	1.427	1.354	1.191	1.077	1.007	0.973	0.871	0.870	0.822	0.746	0.713	0.670	0.728	0.647	0.601	0.575	0.626	0.617	0.503	0.448	0.525	0.410	0.425	0.498	0.474	0.426	0.468	0.445	0.417	0.460	0.583	0.783	0.975	0.862	0.649	0.831	1.488	3.001	5.414	7.684	9.895	8.652	4.705	1.400	0.454	0.394	0.327	0.339	0.314	0.336	0.377	0.394	0.355	0.330	0.373	0.351	0.354	0.390	0.397	0.390	0.364
255.0	32.20	46.77	157.4	291.8	183.7	330.3	1189	4450	278.6	37.81	5.242	3.746	2.942	2.441	1.877	1.714	1.446	1.242	1.248	1.157	1.020	1.001	0.954	0.978	0.806	0.753	0.717	0.684	0.691	0.629	0.793	0.613	0.538	0.529	0.553	0.465	0.526	0.380	0.385	0.425	0.456	0.459	0.464	0.435	0.457	0.407	0.389	0.469	0.583	0.912	1.366	1.282	1.037	1.041	1.544	2.125	4.061	9.232	15.17	14.69	6.677	1.461	0.454	0.335	0.368	0.310	0.345	0.355	0.374	0.338	0.401	0.360	0.348	0.358	0.418	0.352	0.340
260.0	33.17	25.67	66.24	265.1	296.5	140.3	380.4	3235	2141	233.7	20.50	5.028	3.611	2.629	2.201	1.867	1.439	1.219	1.220	1.147	1.022	1.042	1.111	0.942	0.946	0.799	0.833	0.702	0.660	0.705	0.725	0.639	0.574	0.508	0.535	0.444	0.447	0.482	0.410	0.406	0.462	0.482	0.393	0.471	0.423	0.421	0.362	0.444	0.472	0.531	0.859	1.732	1.919	1.166	0.808	0.836	1.295	2.803	6.715	13.98	18.70	13.66	5.226	0.865	0.467	0.332	0.342	0.333	0.407	0.341	0.351	0.419	0.415	0.352	0.387	0.364	0.364
265.0	29.43	22.64	29.94	128.0	366.4	250.6	137.6	1004	2345	1890	181.6	9.856	4.064	3.383	2.938	2.144	1.610	1.341	1.449	1.218	1.074	1.057	1.135	0.883	0.810	0.655	0.696	0.682	0.686	0.750	0.749	0.610	0.537	0.513	0.565	0.417	0.509	0.488	0.390	0.432	0.421	0.501	0.482	0.477	0.375	0.377	0.366	0.418	0.425	0.389	0.467	1.004	1.808	2.433	1.610	0.789	0.814	1.002	1.942	4.423	10.53	18.42	21.10	12.43	3.148	0.523	0.416	0.365	0.440	0.330	0.332	0.354	0.371	0.382	0.352	0.371	0.378
270.0	38.93	32.94	31.24	55.11	187.9	396.9	286.0	298.2	729.9	2016	2470	714.2	40.06	4.839	3.362	2.374	1.816	1.608	1.482	1.306	1.137	1.051	0.994	0.951	0.944	0.856	0.751	0.725	0.703	0.719	0.715	0.629	0.608	0.528	0.563	0.458	0.483	0.438	0.426	0.444	0.465	0.479	0.446	0.527	0.444	0.460	0.459	0.409	0.404	0.343	0.384	0.562	0.861	1.398	1.928	2.337	2.242	1.394	1.005	1.480	2.908	5.552	10.21	15.50	18.32	16.59	10.17	3.050	0.630	0.419	0.365	0.350	0.389	0.362	0.351	0.380	0.400
275.0	70.37	68.49	73.78	65.44	93.87	208.3	500.6	348.5	219.9	514.6	1536	3838	994.2	38.38	4.375	2.898	2.442	2.053	1.540	1.422	1.309	1.033	1.046	1.005	0.947	0.721	0.751	0.814	0.757	0.789	0.680	0.635	0.582	0.607	0.618	0.524	0.544	0.585	0.525	0.505	0.497	0.535	0.430	0.500	0.418	0.561	0.492	0.563	0.575	0.489	0.501	0.527	0.648	0.709	0.960	1.361	2.521	3.409	2.927	1.257	1.215	1.698	2.778	3.936	5.760	10.98	22.47	26.12	14.22	3.357	0.542	0.457	0.391	0.387	0.380	0.393	0.433
280.0	109.3	127.1	132.5	109.7	88.10	118.1	315.9	598.2	237.1	170.0	454.6	2358	3801	149.4	17.00	3.823	2.541	2.228	1.833	1.584	1.344	1.234	1.110	1.032	0.775	0.836	0.693	0.815	0.765	0.782	0.836	0.688	0.581	0.644	0.561	0.598	0.604	0.521	0.539	0.465	0.448	0.509	0.531	0.519	0.502	0.678	0.651	0.690	0.744	0.652	0.612	0.683	0.604	0.633	0.794	0.854	1.188	2.188	3.837	3.458	1.919	0.964	1.121	1.468	1.894	3.103	7.707	16.95	26.13	24.38	10.86	1.897	0.468	0.384	0.391	0.436	0.471
285.0	136.6	183.1	197.2	145.0	94.49	94.66	158.2	464.6	549.5	162.4	171.5	703.8	2896	3192	115.3	7.357	3.147	2.691	2.017	1.651	1.520	1.302	1.420	0.942	0.804	0.871	0.924	0.821	0.927	0.827	0.734	0.614	0.651	0.623	0.683	0.603	0.557	0.529	0.569	0.527	0.476	0.535	0.550	0.494	0.572	0.677	0.763	0.933	0.858	0.798	0.632	0.784	0.691	0.578	0.697	0.774	0.868	1.125	2.003	3.342	3.876	2.615	1.087	1.012	1.042	1.266	2.271	4.760	9.965	19.89	28.22	20.65	6.825	1.088	0.528	0.413	0.477
290.0	169.7	238.9	247.4	187.1	115.4	92.23	105.2	204.7	468.2	545.6	193.7	254.9	836.1	2210	2648	440.8	26.34	3.396	2.481	1.763	1.614	1.307	1.357	1.121	0.952	0.887	0.928	0.846	0.833	0.735	0.769	0.767	0.669	0.697	0.644	0.657	0.607	0.524	0.570	0.502	0.530	0.619	0.563	0.614	0.627	0.777	0.801	0.992	1.082	0.945	0.867	0.849	0.788	0.693	0.704	0.724	0.783	0.849	1.024	1.485	2.297	3.208	3.539	2.922	1.772	1.076	1.241	1.765	2.952	5.532	10.16	15.88	19.80	19.10	14.13	5.817	1.268
295.0	185.4	252.5	276.3	200.6	133.4	97.12	94.06	127.9	206.6	487.8	658.4	228.7	296.9	576.0	1260	3069	633.0	23.90	3.211	2.372	1.902	1.610	1.647	1.114	1.126	0.954	1.028	0.862	0.893	0.694	0.724	0.680	0.823	0.677	0.649	0.701	0.678	0.577	0.500	0.520	0.500	0.622	0.560	0.593	0.721	0.793	0.850	1.028	1.124	0.979	0.942	0.988	0.809	0.701	0.723	0.713	0.753	0.856	0.902	0.975	1.174	1.503	1.832	3.421	4.482	3.480	1.513	1.202	1.556	1.914	3.007	4.245	5.403	8.011	18.11	26.53	20.57
300.0	179.7	248.3	271.1	208.7	133.5	99.55	99.53	115.8	153.2	277.2	723.2	550.5	213.6	223.9	366.9	1755	3027	456.0	10.94	2.864	2.326	1.754	1.568	1.180	1.202	1.201	1.045	0.936	0.853	0.796	0.672	0.836	0.787	0.703	0.655	0.696	0.684	0.646	0.557	0.544	0.515	0.562	0.551	0.604	0.653	0.824	0.823	0.871	1.115	0.868	0.991	1.035	0.881	0.736	0.726	0.727	0.861	0.860	0.977	0.978	1.071	1.104	1.315	1.925	3.083	4.790	4.157	2.180	1.409	1.336	1.468	1.665	1.857	2.373	5.503	12.25	23.59
305.0	167.5	240.5	265.6	209.4	136.3	110.4	110.6	122.6	153.0	210.9	448.3	816.2	366.0	168.2	158.0	510.0	2249	2518	72.96	4.787	2.576	1.997	1.724	1.545	1.303	1.247	1.120	1.054	0.986	0.795	0.816	0.888	0.756	0.723	0.649	0.752	0.680	0.620	0.560	0.585	0.460	0.562	0.550	0.601	0.665	0.792	0.936	0.902	1.046	0.998	0.930	0.931	0.848	0.785	0.659	0.732	0.759	0.792	1.013	0.978	1.088	1.186	1.232	1.534	1.844	2.815	4.495	4.708	2.890	1.575	1.184	1.232	1.402	1.239	1.930	3.365	7.767
310.0	155.7	213.7	232.3	190.6	138.3	114.1	119.1	134.6	160.3	199.3	289.5	528.8	659.9	327.8	138.0	175.7	626.2	1708	2042	298.7	17.47	2.588	2.022	1.724	1.432	1.147	1.118	1.047	0.954	0.935	0.893	0.832	0.757	0.687	0.706	0.694	0.629	0.674	0.587	0.608	0.491	0.538	0.516	0.612	0.618	0.713	0.807	0.979	0.977	0.900	0.827	0.919	0.841	0.804	0.757	0.824	0.871	0.782	1.033	0.950	1.060	1.101	1.229	1.418	1.502	1.776	2.362	3.194	3.892	3.975	2.899	1.747	1.307	1.079	1.169	1.438	2.430
315.0	138.9	182.0	209.6	174.5	139.5	118.6	126.9	140.0	167.8	203.6	247.8	322.3	455.6	617.4	258.9	121.8	195.7	426.8	1033	2325	446.4	15.23	2.778	1.788	1.614	1.555	1.165	1.156	0.904	0.960	0.850	0.855	0.849	0.722	0.723	0.733	0.639	0.696	0.578	0.659	0.564	0.564	0.578	0.559	0.647	0.765	0.747	0.877	0.910	0.789	0.808	0.861	0.849	0.820	0.911	0.891	0.970	0.794	1.049	1.120	1.129	1.134	1.193	1.386	1.474	1.448	1.690	1.956	2.221	2.733	3.925	4.087	2.815	1.533	1.129	1.138	1.246
320.0	149.4	184.5	213.6	179.2	134.9	126.8	134.8	146.0	170.1	209.3	245.2	280.9	318.3	516.2	483.9	130.2	111.8	140.5	280.8	1412	2151	321.9	6.912	2.504	1.732	1.586	1.214	1.235	0.996	0.971	0.944	0.912	0.736	0.794	0.744	0.662	0.640	0.626	0.655	0.649	0.490	0.607	0.576	0.594	0.646	0.745	0.743	0.965	0.854	0.834	0.854	0.898	0.914	0.834	0.905	0.927	1.015	0.949	0.993	1.045	1.162	1.152	1.161	1.297	1.534	1.435	1.628	1.747	1.740	1.887	2.342	3.415	4.503	3.025	1.607	1.166	1.034
325.0	149.5	210.4	241.5	202.5	155.6	138.9	143.8	156.0	178.9	214.3	245.0	274.9	283.5	338.9	533.3	301.7	110.2	85.21	99.63	402.6	1727	1790	55.06	3.893	2.072	1.776	1.501	1.174	0.982	0.978	0.852	0.850	0.814	0.775	0.752	0.721	0.641	0.700	0.645	0.620	0.499	0.644	0.561	0.529	0.624	0.681	0.831	1.013	0.872	0.966	0.934	0.859	1.064	0.862	0.896	0.816	1.001	0.907	1.010	1.085	1.205	1.133	1.290	1.288	1.571	1.502	1.573	1.595	1.562	1.789	1.746	2.041	3.040	3.837	3.289	2.013	1.336
330.0	155.7	228.7	275.9	245.5	190.8	158.0	158.8	170.8	195.0	224.5	252.6	279.8	280.4	276.2	340.9	426.4	263.9	105.6	76.47	128.7	487.5	1338	1593	234.6	13.86	2.329	1.557	1.322	1.174	1.088	0.898	0.942	0.966	0.801	0.753	0.697	0.679	0.671	0.575	0.615	0.560	0.569	0.558	0.583	0.623	0.756	0.836	0.969	1.044	1.112	1.007	1.060	1.044	0.932	0.970	1.010	1.080	0.960	1.059	1.160	1.327	1.333	1.412	1.409	1.528	1.528	1.606	1.671	1.793	1.770	1.772	1.712	1.997	2.358	2.760	3.081	2.799
335.0	180.4	242.0	305.8	286.0	224.5	187.8	176.9	191.7	210.8	244.7	269.7	293.2	292.5	279.5	270.2	295.6	412.6	235.4	92.08	88.45	152.4	339.0	930.1	1871	350.6	11.78	2.325	1.660	1.398	1.288	1.159	0.952	0.919	0.775	0.809	0.683	0.738	0.649	0.503	0.616	0.562	0.570	0.530	0.641	0.639	0.791	0.914	0.969	1.118	1.166	1.075	1.267	1.184	1.127	1.264	1.175	1.089	1.072	1.130	1.188	1.338	1.327	1.508	1.526	1.640	1.642	1.598	1.690	1.961	1.705	1.822	1.630	1.783	1.886	1.900	2.039	2.566
340.0	179.7	254.0	323.4	312.1	257.8	213.9	199.7	212.3	232.7	258.2	283.6	301.4	305.0	285.4	264.4	245.0	338.4	384.2	161.6	98.88	94.66	120.4	266.6	1275	1714	55.30	5.235	2.213	1.621	1.360	1.131	0.940	0.918	0.871	0.815	0.703	0.649	0.632	0.564	0.607	0.665	0.692	0.613	0.658	0.693	0.774	0.917	1.111	1.323	1.175	1.125	1.426	1.322	1.181	1.266	1.106	1.175	1.316	1.221	1.340	1.504	1.397	1.632	1.562	1.640	1.629	1.857	1.723	1.932	1.723	1.870	1.879	1.865	1.830	1.697	1.761	1.804
345.0	180.5	270.8	344.5	337.6	298.4	243.2	225.6	240.2	260.6	276.2	299.7	317.7	316.6	297.3	276.4	250.2	265.8	383.5	297.4	135.5	99.94	85.86	105.0	385.7	1536	1353	45.62	3.303	1.822	1.507	1.202	1.004	0.976	0.884	0.805	0.725	0.700	0.658	0.615	0.597	0.647	0.597	0.629	0.617	0.773	0.751	0.875	1.110	1.343	1.266	1.216	1.441	1.311	1.323	1.295	1.297	1.308	1.430	1.466	1.424	1.523	1.475	1.638	1.629	1.786	1.843	1.810	1.761	1.753	1.910	1.748	1.785	1.910	1.787	1.854	1.767	1.689
350.0	184.7	265.8	356.7	363.6	329.0	286.0	269.4	276.7	302.0	314.7	327.7	331.7	332.3	316.0	297.0	275.2	263.3	293.3	359.6	275.0	151.1	110.8	92.11	136.0	463.3	1153	1236	198.9	10.83	1.992	1.390	1.250	1.203	0.932	0.764	0.722	0.673	0.704	0.632	0.590	0.581	0.596	0.596	0.614	0.674	0.807	0.893	1.099	1.276	1.230	1.319	1.482	1.493	1.488	1.478	1.405	1.514	1.503	1.546	1.720	1.798	1.659	1.793	1.852	1.768	1.868	1.904	1.964	1.890	1.985	1.954	2.006	1.932	2.002	2.056	1.952	1.868
355.0	185.1	277.1	382.2	400.6	364.7	329.6	316.9	315.8	340.5	345.7	354.9	355.3	350.2	337.0	322.7	306.7	291.8	285.6	300.3	372.6	281.9	163.4	125.0	111.0	154.5	305.1	839.5	1510	287.4	8.265	2.128	1.370	1.127	0.957	0.842	0.719	0.700	0.710	0.673	0.664	0.502	0.586	0.608	0.685	0.677	0.868	0.936	1.127	1.368	1.280	1.397	1.570	1.538	1.513	1.612	1.649	1.765	1.622	1.808	1.765	1.837	1.814	1.867	2.004	2.052	2.038	1.851	2.095	2.027	2.131	2.183	2.079	2.094	2.129	2.230	2.325	2.371
360.0	183.5	291.5	395.8	411.9	389.6	365.4	356.6	347.3	360.4	366.9	373.8	373.6	364.4	352.7	341.7	327.9	315.5	310.3	294.8	343.7	382.8	238.3	160.2	129.4	110.5	117.9	254.6	1163	1427	49.79	4.157	1.900	1.345	1.012	0.989	0.766	0.682	0.697	0.639	0.653	0.618	0.567	0.688	0.618	0.733	0.812	0.943	1.144	1.263	1.341	1.332	1.764	1.778	1.547	1.896	1.550	2.007	1.587	1.946	1.803	1.972	2.007	1.941	2.107	2.149	2.011	2.120	2.053	2.112	2.075	2.162	2.180	2.205	2.376	2.197	2.431	2.510
365.0	184.5	283.3	388.1	435.1	421.2	396.3	382.1	378.4	387.2	399.6	390.7	394.6	382.1	366.2	360.2	347.8	336.9	334.7	319.8	324.2	396.9	353.9	211.9	160.8	123.8	98.18	104.9	375.4	1445	1178	39.53	3.053	1.673	1.312	0.973	0.843	0.792	0.798	0.752	0.689	0.597	0.504	0.645	0.645	0.662	0.884	1.098	1.234	1.284	1.352	1.404	1.948	1.928	1.804	2.038	1.733	1.968	1.945	2.001	2.041	2.025	2.336	2.273	2.258	2.301	2.129	2.134	2.117	2.266	2.291	2.303	2.260	2.301	2.354	2.394	2.334	2.466
370.0	204.8	303.5	400.2	452.5	461.7	440.0	431.2	421.4	429.0	432.4	427.5	414.0	409.8	396.7	386.6	377.2	369.7	372.5	366.7	353.0	365.4	405.5	343.1	228.4	169.4	127.9	100.9	138.6	457.9	1133	897.1	174.7	9.713	2.034	1.228	0.926	0.826	0.835	0.783	0.694	0.660	0.587	0.609	0.649	0.687	0.859	0.996	1.168	1.414	1.366	1.523	1.873	2.038	1.960	2.046	2.035	2.157	2.142	2.098	2.191	2.281	2.437	2.385	2.367	2.424	2.345	2.301	2.338	2.203	2.386	2.411	2.393	2.460	2.548	2.560	2.488	2.526
375.0	213.5	329.4	434.2	479.3	501.2	497.5	468.7	464.4	459.5	454.7	461.7	445.9	442.9	428.4	407.4	405.1	402.7	405.6	406.3	399.1	386.9	384.1	422.7	353.1	233.8	176.3	138.7	119.4	161.1	307.7	799.7	1395	240.7	7.781	1.832	1.143	0.982	0.787	0.690	0.747	0.703	0.561	0.676	0.663	0.702	0.979	1.079	1.279	1.466	1.531	1.529	2.132	2.284	2.109	2.290	2.268	2.138	2.331	2.319	2.313	2.341	2.530	2.387	2.440	2.551	2.688	2.441	2.417	2.272	2.410	2.498	2.571	2.823	2.540	2.798	2.537	2.912
380.0	218.2	329.0	458.4	508.0	516.2	532.4	503.4	494.1	486.2	482.8	482.6	469.2	465.3	444.9	421.3	415.2	417.3	423.8	427.9	428.6	413.9	399.3	413.0	434.3	308.8	221.6	175.2	138.5	115.7	124.4	262.9	1134	1185	41.39	3.710	1.715	1.100	0.902	0.779	0.708	0.663	0.695	0.705	0.659	0.761	0.874	1.083	1.269	1.516	1.615	1.626	2.217	2.378	2.382	2.297	2.253	2.520	2.452	2.374	2.465	2.588	2.613	2.493	2.445	2.638	2.778	2.597	2.458	2.687	2.740	2.594	2.848	2.615	2.723	2.808	2.667	2.899
385.0	218.4	338.3	469.6	523.6	534.4	545.2	525.9	512.6	501.3	500.9	500.0	490.0	480.9	456.8	433.1	421.4	424.6	435.8	445.2	450.2	437.1	424.1	412.3	438.0	395.2	273.1	209.6	166.4	124.4	100.2	116.5	383.5	1221	881.3	31.84	2.525	1.434	0.999	0.847	0.690	0.728	0.684	0.739	0.786	0.827	0.933	1.063	1.286	1.624	1.537	1.647	2.285	2.471	2.413	2.485	2.493	2.680	2.560	2.536	2.778	2.489	2.659	2.582	2.578	2.724	2.809	2.680	2.571	2.790	2.689	2.649	2.650	2.749	2.927	2.934	2.649	2.979
390.0	220.2	356.5	465.8	547.3	563.6	571.1	547.3	539.0	524.3	521.4	512.4	505.4	486.9	466.8	438.7	428.7	434.3	446.6	457.3	464.5	460.7	450.8	431.5	421.8	423.6	369.1	266.8	202.9	154.6	118.1	98.23	136.9	386.9	858.9	681.6	136.3	7.704	1.464	1.102	0.857	0.740	0.732	0.797	0.771	0.848	0.959	1.170	1.356	1.669	1.522	1.781	2.240	2.405	2.469	2.501	2.630	2.633	2.726	2.707	2.667	2.639	2.624	2.717	2.756	2.720	2.701	2.725	2.740	2.693	2.840	2.787	2.782	2.669	2.975	2.802	2.910	3.038
395.0	233.1	355.2	489.3	552.2	588.0	591.4	577.0	560.3	560.9	529.8	531.6	508.6	497.8	469.8	444.0	432.7	435.0	447.3	465.1	471.0	477.8	469.4	453.3	433.7	407.7	410.5	358.7	255.0	192.4	151.8	118.8	99.92	126.5	228.0	594.3	1007	197.9	6.374	1.587	1.206	0.886	0.855	0.842	0.821	0.780	0.998	1.189	1.470	1.620	1.725	1.819	2.279	2.334	2.502	2.523	2.595	2.664	2.829	2.946	2.629	2.711	2.826	2.857	3.065	2.843	2.715	2.918	2.655	2.755	2.732	3.008	2.785	2.659	2.946	2.762	2.941	3.132
400.0	232.4	358.9	490.2	562.6	600.7	596.0	592.0	574.6	571.1	548.2	533.7	528.8	503.2	477.1	446.6	429.0	434.8	447.4	462.7	474.3	484.5	478.5	465.7	446.3	417.1	399.4	406.3	314.3	225.8	181.3	143.2	107.7	81.13	83.88	181.8	802.7	884.4	35.75	3.240	1.552	1.061	0.950	0.832	0.869	0.832	0.990	1.238	1.445	1.637	1.642	1.805	2.300	2.567	2.652	2.602	2.585	2.738	2.852	2.955	2.856	2.820	2.866	2.871	3.086	2.860	2.832	2.757	2.791	2.758	2.628	2.813	3.140	2.756	2.898	2.974	3.056	3.076
405.0	239.8	353.3	502.7	580.4	619.2	608.9	587.6	590.5	565.9	553.2	543.7	528.9	502.8	477.9	444.9	426.5	428.0	444.6	464.2	466.9	482.3	479.8	474.9	454.7	429.8	394.8	397.0	371.3	263.9	206.3	165.4	125.1	84.64	61.32	68.18	257.0	882.6	678.9	28.56	2.295	1.118	1.013	0.846	0.888	0.884	1.056	1.090	1.473	1.643	1.835	1.816	2.386	2.454	2.457	2.526	2.791	2.827	2.785	2.746	3.056	2.781	2.786	2.954	2.770	2.962	2.831	2.789	2.875	2.989	2.607	2.938	2.953	2.916	3.055	2.916	3.091	3.001
410.0	227.3	355.6	496.5	576.2	611.2	605.0	594.2	589.1	568.9	557.8	550.9	531.1	506.7	476.9	439.9	414.5	415.5	429.2	443.6	455.7	471.5	472.0	470.1	458.6	433.4	400.8	380.8	376.5	328.4	246.7	188.9	145.9	100.2	70.36	53.77	82.90	271.1	638.5	533.6	126.0	6.520	1.308	1.028	0.971	0.997	1.088	1.243	1.463	1.562	1.804	1.769	2.256	2.438	2.584	2.753	2.694	2.866	2.905	2.892	2.931	2.929	2.893	2.898	2.794	2.859	2.852	2.858	2.773	3.040	2.755	2.733	3.030	2.786	3.032	2.778	2.864	2.916
415.0	225.9	358.6	481.1	557.8	582.9	597.8	583.4	579.5	576.0	565.2	549.2	529.7	499.1	468.1	431.1	400.1	396.8	407.4	419.3	433.7	450.3	453.7	457.2	452.2	430.9	401.9	375.6	352.5	343.8	304.5	219.0	165.7	119.6	85.00	60.21	51.54	82.56	164.2	425.0	755.9	175.5	5.249	1.229	1.161	0.958	1.170	1.130	1.579	1.685	1.682	1.707	2.448	2.460	2.673	2.806	2.456	2.816	2.868	2.962	2.897	2.792	2.934	2.962	2.870	2.911	2.830	2.793	2.761	2.644	2.869	2.747	3.007	2.756	2.737	2.752	2.785	2.891
420.0	211.2	342.3	483.6	548.4	586.0	579.8	587.7	569.8	570.6	563.2	544.7	520.0	490.2	456.1	417.7	385.1	380.8	387.2	402.8	413.8	430.7	439.6	441.7	441.1	423.4	400.0	371.8	342.0	327.1	324.4	253.1	179.9	131.6	95.50	68.34	50.28	44.55	54.15	123.2	559.4	695.1	33.48	2.864	1.303	1.059	1.152	1.276	1.442	1.668	1.666	1.797	2.291	2.332	2.567	2.691	2.485	2.810	3.004	3.025	3.077	3.001	2.909	2.968	2.814	2.879	2.881	2.652	2.642	2.645	2.817	2.811	2.768	2.706	2.712	2.781	2.746	3.012
425.0	203.3	333.7	475.0	540.7	570.7	580.0	583.4	573.0	562.5	560.6	539.2	510.0	475.7	443.3	405.7	370.7	367.1	372.1	384.0	397.4	409.3	419.1	426.8	427.2	415.1	391.3	371.7	341.3	314.5	310.9	283.1	201.0	142.0	105.8	76.68	55.95	39.67	32.08	40.34	169.1	632.9	550.2	27.10	2.005	1.253	1.242	1.192	1.337	1.605	1.699	1.690	2.293	2.331	2.523	2.660	2.290	2.701	2.777	2.823	3.071	2.952	2.856	2.874	2.833	2.834	2.644	2.808	2.576	2.635	2.538	2.773	2.731	2.558	2.722	2.619	2.478	2.630
430.0	210.6	320.1	452.7	528.2	548.1	563.3	570.3	560.4	557.9	542.2	537.4	505.4	466.6	428.0	388.1	356.8	347.3	350.3	358.6	373.1	386.1	393.1	404.7	402.3	396.4	379.8	359.7	336.9	310.8	287.9	275.2	234.9	163.3	116.5	86.38	63.52	45.65	31.86	25.84	49.25	182.5	463.6	431.2	121.7	7.262	1.448	1.350	1.458	1.659	1.567	1.737	2.115	2.371	2.406	2.590	2.463	2.725	2.770	2.802	2.948	2.890	2.843	2.885	2.718	2.834	2.693	2.817	2.690	2.778	2.576	2.581	2.722	2.477	2.625	2.544	2.540	2.541
435.0	249.0	308.9	427.6	488.0	521.5	547.6	545.8	557.0	545.8	537.2	520.8	499.3	452.2	411.2	372.2	340.9	325.8	324.8	335.1	345.4	360.7	371.6	381.5	379.7	375.0	361.4	343.9	330.5	306.8	278.3	252.7	234.8	194.0	134.7	94.51	71.68	52.94	36.60	26.49	25.26	50.39	113.3	291.1	654.2	182.2	7.515	1.490	1.552	1.621	1.473	1.574	2.107	2.272	2.275	2.313	2.455	2.562	2.868	2.867	2.801	2.761	2.821	2.842	2.841	2.935	2.731	2.554	2.646	2.735	2.398	2.500	2.461	2.334	2.544	2.411	2.344	2.572
440.0	295.4	306.5	399.4	480.2	512.6	544.4	540.4	549.3	538.8	530.4	517.4	483.3	436.2	402.1	361.6	323.7	308.7	310.8	318.9	329.4	341.6	349.2	358.7	361.9	358.0	349.0	332.8	319.4	299.0	276.1	243.8	220.2	201.9	153.3	102.6	75.55	57.80	41.17	30.12	22.01	22.89	33.33	80.19	437.7	639.2	32.53	3.940	1.546	1.694	1.549	1.543	2.067	2.103	2.206	2.566	2.417	2.683	2.652	2.752	2.821	2.674	2.585	2.735	2.863	2.815	2.689	2.646	2.473	2.600	2.480	2.371	2.464	2.394	2.304	2.369	2.420	2.227
445.0	337.2	340.1	397.8	458.7	497.4	515.5	521.0	530.8	522.2	513.0	500.4	468.0	424.9	380.7	338.2	308.0	293.6	295.1	300.5	310.8	321.1	328.9	338.6	340.4	339.4	330.9	318.2	306.4	288.8	268.7	239.9	204.5	187.4	167.4	115.8	79.95	61.70	43.92	32.61	24.00	18.15	16.88	25.18	124.2	517.5	543.6	26.22	2.524	1.692	1.645	1.606	2.025	2.116	2.162	2.360	2.382	2.536	2.684	2.576	2.589	2.796	2.507	2.607	2.867	2.822	2.589	2.559	2.522	2.298	2.340	2.464	2.371	2.405	2.313	2.273	2.243	2.179
450.0	260.2	486.8	430.3	432.4	467.6	487.7	500.5	497.7	495.8	489.7	472.9	444.3	402.8	362.1	318.1	288.9	272.1	269.2	276.8	282.3	290.2	300.7	309.4	312.1	310.3	303.8	296.3	285.7	270.9	252.7	229.2	194.6	168.7	155.7	131.3	92.17	65.43	48.32	36.60	27.06	20.06	14.95	13.68	34.16	141.3	388.4	496.4	118.8	8.476	1.794	1.663	2.029	2.087	2.036	2.187	2.294	2.509	2.535	2.518	2.655	2.695	2.440	2.588	2.747	2.569	2.445	2.368	2.328	2.369	2.300	2.220	2.243	2.155	2.210	2.302	2.167	2.158
455.0	181.1	523.3	629.0	407.3	434.9	445.6	461.5	457.1	471.8	450.3	440.7	412.4	376.6	331.7	295.3	267.8	246.2	244.7	249.0	252.4	261.4	267.8	275.5	277.3	279.1	276.9	266.7	260.6	249.5	233.0	213.3	183.2	158.8	134.4	124.1	109.0	72.67	51.23	38.94	29.97	22.30	16.93	13.00	15.16	37.42	92.33	238.1	548.3	173.8	9.466	1.840	1.962	1.910	1.993	1.856	2.229	2.184	2.362	2.340	2.220	2.279	2.436	2.701	2.517	2.493	2.325	2.305	2.287	2.126	2.124	1.976	1.987	1.944	2.141	2.092	2.117	1.958
460.0	155.4	399.7	851.6	443.4	398.5	417.2	428.3	443.3	443.6	428.3	416.2	388.6	352.4	311.6	272.3	246.0	227.7	226.7	228.8	232.0	240.8	243.2	251.3	255.4	255.5	253.6	245.9	239.7	230.8	217.5	198.3	174.3	150.6	128.1	111.9	107.5	82.85	55.17	40.18	31.28	23.48	18.40	13.63	11.73	14.59	25.66	60.86	305.2	545.1	133.3	5.570	2.053	2.043	1.965	1.998	2.114	2.321	2.221	2.266	2.471	2.185	2.532	2.440	2.378	2.253	2.151	2.222	2.317	1.971	1.992	1.952	1.813	1.907	2.036	1.864	1.856	1.894
465.0	143.9	268.4	896.0	598.2	374.7	395.9	405.0	407.8	401.5	404.3	393.3	361.3	325.9	288.5	254.9	227.9	214.0	208.3	209.1	209.8	217.1	223.5	230.7	231.3	232.3	232.5	226.6	219.9	215.4	203.5	185.0	164.0	141.2	119.9	102.0	96.29	88.33	61.06	42.22	32.42	25.62	19.33	15.22	11.79	10.14	11.77	18.25	80.73	375.3	475.9	23.17	3.956	2.093	2.051	1.918	1.982	2.172	2.078	2.085	2.398	2.249	2.375	2.120	2.334	2.230	2.027	2.115	2.073	1.997	1.873	1.886	1.731	1.782	1.886	1.660	1.550	1.706
470.0	148.0	211.3	598.9	882.6	446.6	355.5	363.1	373.9	376.3	366.3	356.8	329.6	294.5	260.0	231.1	204.1	191.8	184.7	185.0	185.1	189.5	193.4	199.7	201.9	203.1	201.9	199.3	194.1	189.9	183.0	168.7	148.3	130.0	110.1	93.32	81.97	77.53	68.12	48.18	33.28	25.68	20.33	15.91	12.58	10.04	8.807	9.195	22.43	97.54	273.2	410.7	194.6	11.16	2.025	1.853	1.758	2.038	2.008	2.060	2.118	1.988	2.062	2.036	2.152	2.064	1.965	2.060	1.922	1.758	1.716	1.630	1.719	1.625	1.874	1.711	1.540	1.689
475.0	148.0	186.9	322.8	819.4	661.7	334.1	324.2	336.5	327.6	329.7	323.0	298.1	265.0	230.0	205.2	178.3	169.4	162.6	159.8	163.2	163.7	166.8	174.3	175.4	174.9	175.6	173.7	169.4	167.3	160.0	148.4	132.7	116.1	100.1	84.88	72.67	64.01	60.78	54.12	38.36	26.80	21.12	16.91	13.56	10.79	8.678	7.772	9.503	25.35	64.23	155.9	416.3	192.3	13.55	2.018	1.812	1.881	1.708	1.876	1.896	1.982	1.949	1.902	1.922	1.839	1.667	1.827	1.775	1.524	1.618	1.551	1.516	1.578	1.692	1.392	1.441	1.461
480.0	139.3	182.6	236.2	562.9	989.3	393.8	299.4	305.8	307.3	301.6	295.7	276.2	245.7	214.0	184.4	165.5	153.1	147.9	146.1	147.3	147.0	150.0	157.2	159.0	158.3	159.2	157.1	152.9	151.6	146.2	136.4	123.2	108.6	93.44	79.59	68.72	57.49	53.37	54.03	44.14	28.48	21.01	17.27	13.75	11.43	9.097	7.544	6.693	9.475	17.41	38.31	177.2	463.5	158.0	8.059	1.743	1.873	1.727	1.787	1.767	1.804	1.819	1.698	1.860	1.777	1.666	1.666	1.729	1.546	1.569	1.450	1.385	1.496	1.459	1.324	1.409	1.352
485.0	118.7	209.9	211.9	345.5	1005	545.4	282.9	280.5	287.9	279.2	278.3	257.0	228.5	200.4	174.0	153.3	140.3	135.3	133.9	133.1	134.0	136.9	140.9	143.3	144.1	143.7	139.9	139.6	137.2	132.9	125.3	115.3	101.7	87.53	75.17	65.14	55.21	47.24	48.31	47.18	32.65	21.77	17.44	14.11	12.00	9.612	7.952	6.640	6.083	7.145	11.29	44.50	257.6	411.4	29.51	4.490	1.706	1.606	1.707	1.714	1.598	1.755	1.767	1.615	1.558	1.781	1.692	1.579	1.530	1.361	1.520	1.272	1.445	1.346	1.303	1.247	1.265
490.0	100.8	197.9	202.8	244.4	620.4	966.6	367.6	258.0	260.8	255.7	252.5	234.2	208.5	180.6	158.3	138.3	128.1	121.1	119.2	117.6	119.3	121.7	124.7	127.3	127.3	126.3	125.3	123.5	123.3	119.9	113.4	103.7	92.50	80.84	69.82	61.57	52.44	44.24	40.48	40.37	36.45	26.47	18.48	14.49	12.01	10.12	8.135	7.075	5.570	4.942	5.245	12.41	63.32	196.5	318.2	121.5	13.29	1.936	1.650	1.632	1.463	1.663	1.609	1.511	1.554	1.488	1.575	1.473	1.378	1.326	1.349	1.279	1.309	1.253	1.251	1.211	1.266
495.0	79.28	165.3	222.6	212.2	304.5	868.6	748.1	248.6	235.0	230.5	229.0	209.1	188.3	163.0	142.9	122.8	114.2	107.6	104.9	104.0	104.1	106.4	109.0	110.0	110.6	109.9	108.9	109.3	106.5	104.6	102.4	92.91	82.43	73.76	64.24	56.51	47.87	40.88	35.28	32.80	33.28	30.75	20.91	14.88	11.79	10.23	8.374	7.178	5.849	4.696	3.948	5.371	16.32	45.78	110.7	336.9	213.1	18.21	2.006	1.461	1.476	1.503	1.377	1.417	1.350	1.414	1.368	1.419	1.360	1.341	1.263	1.196	1.316	1.142	1.248	1.033	1.091
500.0	79.30	131.4	225.1	196.9	214.9	556.5	1043	319.9	216.7	211.3	210.1	190.2	167.6	146.3	126.6	112.8	103.9	95.70	94.62	92.05	93.65	94.54	96.43	97.11	99.20	99.15	97.57	97.22	96.91	95.42	90.44	83.77	75.70	67.61	58.32	52.29	44.47	38.95	33.05	29.30	27.15	29.77	24.73	15.81	12.23	9.814	8.448	7.151	5.995	4.853	3.826	3.769	5.911	12.13	27.05	138.3	391.3	182.2	11.71	1.525	1.358	1.271	1.441	1.495	1.362	1.328	1.316	1.215	1.234	1.211	1.190	1.185	1.113	1.203	1.023	1.133	0.962
505.0	67.32	111.7	213.9	210.3	176.3	313.4	1022	551.0	202.0	192.3	189.0	171.9	156.1	134.7	116.3	103.3	94.67	88.75	85.48	82.90	85.33	84.83	86.68	86.76	87.64	88.23	87.96	86.32	87.41	85.55	82.37	77.36	68.79	61.89	53.39	46.86	41.54	35.88	31.61	26.56	23.81	24.77	25.76	18.42	12.35	9.567	8.199	7.010	5.895	4.875	3.944	3.446	3.488	4.638	7.802	34.02	195.9	399.7	136.8	5.490	1.425	1.243	1.393	1.287	1.352	1.234	1.265	1.090	1.178	1.245	1.048	1.011	1.033	0.977	0.973	1.121	0.967
510.0	65.41	93.89	161.0	221.4	164.2	195.0	588.7	943.3	259.4	169.4	163.6	150.7	135.2	119.2	102.0	89.71	81.32	77.98	73.80	73.19	73.19	73.55	74.08	74.43	74.57	75.10	75.24	74.11	74.47	75.20	71.51	66.52	59.82	53.75	47.56	42.27	36.69	32.49	28.31	24.62	21.46	19.86	21.22	20.57	14.74	9.827	7.943	6.619	5.614	4.670	4.143	3.311	2.810	3.029	3.352	9.185	47.75	176.8	305.0	130.6	13.00	1.421	1.275	1.247	1.158	1.186	1.184	1.002	1.082	1.084	0.901	1.051	0.944	0.958	0.905	1.019	0.946
515.0	63.00	77.72	116.9	205.4	172.5	150.5	253.5	851.3	638.8	156.8	143.0	133.6	117.2	104.9	89.33	77.34	71.37	66.40	62.24	61.88	61.00	61.76	61.64	64.94	63.70	64.09	63.98	64.08	64.07	63.59	60.69	56.93	51.62	46.60	42.05	37.20	31.36	29.14	25.41	21.75	19.33	17.01	15.84	17.94	17.34	11.89	7.766	6.683	5.268	4.324	3.981	3.788	2.987	2.676	2.401	3.498	12.00	40.94	96.13	281.8	198.6	17.00	1.275	1.204	1.080	0.983	1.101	1.072	0.958	0.943	0.898	0.910	0.844	0.868	0.791	0.798	0.903
520.0	61.14	75.11	93.42	167.8	188.9	137.4	157.7	506.1	976.5	219.8	124.9	118.9	103.5	92.08	81.30	68.77	62.78	58.21	57.08	54.96	54.06	56.14	54.87	56.27	56.67	54.68	55.86	56.14	56.31	55.89	54.16	50.60	45.83	41.77	36.92	32.97	29.22	27.07	22.72	20.34	17.38	15.37	13.81	14.32	16.48	13.51	8.512	6.378	4.845	4.235	3.748	3.440	3.286	2.553	2.095	2.320	4.020	10.61	23.09	111.4	313.1	156.5	9.893	1.240	1.181	0.893	0.965	0.927	0.944	0.870	0.832	0.830	0.774	0.825	0.790	0.782	0.768
525.0	52.38	62.48	79.88	135.7	202.3	138.2	131.1	244.2	1006	453.8	116.9	107.9	92.94	82.82	72.80	61.25	55.52	51.26	49.58	51.25	47.88	48.76	49.67	51.07	50.08	50.26	50.29	50.18	49.79	49.21	48.41	44.19	40.45	37.72	33.48	30.09	26.93	23.70	21.27	18.48	16.09	14.12	12.52	11.83	13.45	14.26	10.06	6.488	4.802	4.081	3.437	3.012	3.188	2.883	2.051	1.880	2.188	3.763	6.450	27.18	149.7	310.8	107.0	4.606	1.104	0.817	0.972	0.856	0.871	0.903	0.817	0.844	0.937	0.801	0.769	0.800	0.729
530.0	47.37	59.67	70.30	98.10	171.7	159.4	112.5	134.3	540.9	880.8	176.6	94.36	82.23	72.19	61.69	52.93	49.07	44.64	42.62	42.65	41.11	40.71	42.21	42.61	42.55	43.26	42.86	41.97	42.77	42.38	41.71	37.79	35.34	32.27	29.31	25.84	22.90	20.89	19.06	16.37	14.28	12.74	10.97	9.893	9.788	11.66	11.51	7.688	4.860	3.900	3.408	2.940	2.768	2.747	2.383	1.799	1.692	2.008	2.660	7.173	36.34	133.8	223.7	126.3	12.24	1.004	0.920	0.785	0.837	0.758	0.749	0.729	0.771	0.854	0.697	0.677	0.666
535.0	46.83	50.99	65.76	77.05	117.0	171.6	108.6	100.8	204.5	791.6	550.2	86.02	71.07	61.36	51.32	46.12	41.37	37.42	36.99	35.32	34.71	34.64	35.33	35.42	35.63	34.88	34.59	34.69	36.00	35.04	34.52	32.60	29.56	27.46	24.07	21.71	20.42	18.16	16.75	14.16	12.30	10.96	9.791	8.616	7.531	8.112	10.16	9.248	5.792	3.778	3.147	2.740	2.553	2.328	2.476	2.189	1.678	1.625	1.673	2.528	9.036	30.75	70.20	231.7	164.9	15.57	0.945	0.827	0.735	0.850	0.783	0.675	0.675	0.647	0.638	0.662	0.640
540.0	43.19	48.53	61.74	66.02	82.83	161.0	122.2	83.14	104.9	419.3	883.6	127.0	61.44	52.82	45.67	41.46	35.78	33.91	32.78	32.17	30.79	30.96	31.39	31.22	31.01	30.64	30.15	30.57	30.80	30.45	29.73	28.03	25.72	23.84	21.59	19.08	17.70	15.65	14.78	12.66	11.24	9.760	8.602	7.675	6.790	6.516	7.594	8.765	6.470	3.836	2.916	2.577	2.219	2.151	2.217	2.437	1.890	1.441	1.416	1.395	2.840	7.767	16.85	89.68	241.4	123.8	8.002	0.838	0.727	0.745	0.711	0.696	0.613	0.672	0.623	0.587	0.718
545.0	38.99	47.03	51.68	62.16	68.88	122.5	143.8	76.69	76.34	178.2	895.0	214.2	54.26	46.90	40.66	36.70	32.30	30.37	27.52	27.72	26.94	26.32	26.55	27.71	26.43	26.48	26.52	26.46	26.71	26.59	26.16	24.69	22.31	21.05	18.89	17.03	15.47	14.01	12.99	11.30	9.973	8.993	7.974	7.049	6.155	5.781	5.609	7.066	7.285	4.707	2.901	2.275	2.207	1.845	1.836	2.192	2.219	1.499	1.258	1.051	1.438	2.629	4.576	21.69	112.7	230.0	33.17	3.541	0.906	0.642	0.558	0.647	0.690	0.673	0.596	0.586	0.672
550.0	36.18	41.37	47.88	52.80	57.43	79.60	142.0	87.57	62.17	86.23	433.1	679.8	95.47	40.29	34.18	29.69	26.98	25.84	23.28	22.46	22.10	21.50	22.03	22.49	21.98	21.99	21.53	21.98	21.99	22.21	21.66	20.34	18.73	17.11	15.94	14.28	13.18	11.80	10.73	9.643	8.381	7.624	7.016	5.891	5.346	4.962	4.451	4.658	6.104	5.553	3.532	2.303	1.916	1.856	1.671	1.557	1.887	1.745	1.280	1.090	1.008	1.336	1.699	5.547	27.07	96.34	158.9	89.52	12.00	0.807	0.655	0.586	0.620	0.605	0.534	0.540	0.565
555.0	40.80	41.66	45.41	49.32	47.06	54.43	108.7	114.6	54.33	56.61	141.0	641.3	352.2	34.87	28.42	24.79	21.51	19.87	18.47	18.24	17.71	17.50	17.23	17.99	16.57	17.54	17.29	18.30	17.00	18.19	17.41	15.87	14.76	13.71	12.72	11.60	10.72	9.986	8.787	7.909	7.082	6.310	5.898	4.983	4.563	3.968	3.566	3.330	3.936	4.919	4.413	2.535	1.755	1.571	1.484	1.335	1.498	1.642	1.694	1.113	1.063	0.952	1.081	1.835	6.723	22.03	50.07	147.0	129.0	13.06	0.629	0.584	0.574	0.549	0.488	0.493	0.596
560.0	40.12	42.13	48.65	46.47	42.63	43.88	70.74	127.9	56.53	47.53	67.36	326.5	639.0	54.89	23.97	20.86	17.85	16.79	15.97	15.55	14.95	13.97	14.60	14.61	14.30	14.65	14.80	14.89	14.83	14.24	14.09	13.41	12.51	11.41	10.84	9.938	8.688	8.283	7.613	6.618	6.027	5.271	5.015	4.392	4.297	3.592	3.107	2.886	2.885	3.605	4.267	2.920	1.833	1.365	1.177	1.064	1.170	1.198	1.655	1.291	1.065	0.847	0.814	0.955	2.215	5.544	11.88	56.34	177.1	83.72	6.299	0.618	0.590	0.557	0.609	0.500	0.475
565.0	40.80	45.88	47.28	45.72	38.80	36.95	50.29	118.6	71.73	42.48	45.75	125.8	678.8	140.1	20.74	17.93	16.30	14.25	13.48	13.12	12.37	12.34	12.41	12.30	12.94	12.31	12.11	12.55	12.56	12.44	12.42	11.78	10.54	9.765	9.253	8.349	7.579	6.798	6.410	5.792	5.291	4.617	4.479	3.692	3.623	3.234	2.647	2.636	2.260	2.525	3.614	3.207	2.086	1.383	1.146	1.097	1.089	1.095	1.363	1.604	1.087	0.785	0.691	0.803	1.035	1.778	3.176	13.53	78.71	148.3	32.82	2.945	0.587	0.474	0.486	0.529	0.474
570.0	38.56	45.57	44.49	40.25	32.97	30.83	36.29	77.03	99.72	40.79	36.97	53.78	335.6	452.9	42.62	14.63	13.72	11.76	11.11	10.61	10.26	9.872	10.30	10.33	9.978	9.947	9.742	10.11	10.04	9.909	9.784	9.767	8.804	7.697	7.278	6.545	6.265	5.640	5.235	4.757	4.313	3.890	3.538	3.173	2.855	2.669	2.351	2.311	1.956	1.793	2.355	2.815	2.335	1.549	1.088	0.981	0.991	0.879	0.940	1.160	1.286	0.937	0.712	0.667	0.749	0.840	1.218	3.528	18.84	61.27	101.1	63.25	9.384	0.646	0.463	0.496	0.446
575.0	36.03	40.18	43.19	39.09	29.22	24.70	27.00	40.36	99.00	56.64	31.24	32.60	102.9	449.7	128.5	13.11	10.75	9.654	9.191	8.532	8.882	8.314	8.323	8.030	8.009	8.234	8.124	7.753	8.117	8.339	7.729	7.566	6.501	6.563	5.896	5.597	4.977	4.838	4.043	3.867	3.508	3.213	2.906	2.578	2.400	2.275	1.879	1.898	1.695	1.451	1.464	1.965	2.424	1.906	1.284	0.890	0.876	0.780	0.782	0.838	0.981	1.129	0.884	0.661	0.657	0.661	0.755	1.190	4.657	14.10	31.32	94.57	78.08	9.485	0.576	0.539	0.585
580.0	34.77	43.34	45.84	35.51	28.92	25.40	24.49	29.06	76.97	81.50	30.79	27.42	41.80	236.1	386.2	22.26	9.191	8.453	7.394	7.162	7.204	7.323	6.939	7.040	6.773	6.899	6.831	6.465	6.838	6.731	6.499	6.101	5.463	5.673	5.035	4.526	3.979	3.825	3.540	3.312	3.033	2.724	2.295	2.268	2.141	1.977	1.836	1.680	1.423	1.233	1.187	1.287	2.045	2.046	1.467	0.973	0.831	0.825	0.716	0.713	0.745	1.001	1.241	0.713	0.588	0.561	0.552	0.698	1.487	3.632	7.456	36.11	103.2	35.26	5.222	0.467	0.445
585.0	41.03	41.04	39.18	32.39	28.00	23.65	21.99	24.08	50.31	97.57	36.56	26.72	25.61	87.84	450.6	79.30	8.586	6.729	6.743	6.501	5.806	6.108	5.755	5.672	5.804	5.740	5.645	5.424	5.909	5.810	5.499	5.500	4.878	4.638	4.311	3.817	3.621	3.444	3.121	2.827	2.408	2.332	2.179	1.956	1.800	1.741	1.551	1.541	1.244	1.067	1.038	1.071	1.397	1.858	1.661	1.156	0.840	0.681	0.695	0.746	0.626	0.736	1.331	0.938	0.608	0.586	0.466	0.678	0.812	1.218	2.070	8.786	45.90	90.90	30.82	2.470	0.428
590.0	41.98	37.19	36.46	31.01	24.74	19.47	19.49	20.28	30.29	80.22	56.84	25.39	21.37	32.94	228.2	272.4	18.01	5.964	5.550	5.324	4.639	5.025	4.943	4.920	4.742	4.691	4.715	4.715	4.775	4.856	4.298	4.537	3.949	4.009	3.591	3.304	3.068	2.834	2.478	2.379	2.012	1.945	1.765	1.612	1.534	1.481	1.316	1.221	1.169	0.988	0.868	0.871	0.993	1.340	1.617	1.331	0.961	0.654	0.645	0.636	0.649	0.595	0.870	0.890	0.815	0.607	0.485	0.558	0.624	0.681	0.840	2.334	11.06	37.66	66.42	46.00	7.731
595.0	31.22	34.02	33.37	24.92	22.33	18.16	16.78	19.60	21.00	46.06	76.84	27.66	18.21	18.72	64.85	298.4	84.12	5.536	4.565	4.151	4.118	4.076	3.931	4.047	3.972	3.638	3.697	3.789	3.747	4.027	3.529	3.547	3.185	3.110	2.832	2.845	2.436	2.386	1.933	1.816	1.702	1.711	1.452	1.496	1.305	1.181	1.088	1.065	0.973	0.860	0.805	0.867	0.710	0.852	1.166	1.429	1.217	0.711	0.617	0.611	0.569	0.520	0.624	0.694	0.940	0.784	0.529	0.464	0.524	0.449	0.541	0.948	2.794	8.763	19.62	61.13	37.19
600.0	30.23	31.38	33.04	23.24	21.19	15.50	16.04	17.43	19.24	28.65	76.25	38.92	18.60	15.36	23.21	169.2	218.0	9.249	4.168	3.618	3.478	3.657	3.295	3.378	3.505	3.048	3.182	2.987	3.497	3.029	3.082	2.899	2.866	2.720	2.343	2.479	2.118	2.027	1.740	1.568	1.476	1.483	1.266	1.275	1.179	1.144	0.990	0.867	0.905	0.758	0.735	0.675	0.699	0.765	0.865	1.193	1.272	0.880	0.560	0.571	0.488	0.485	0.550	0.527	0.749	0.993	0.655	0.491	0.532	0.550	0.514	0.564	0.989	2.353	4.777	22.14	60.90
605.0	30.87	30.19	31.39	25.89	16.76	14.63	15.45	16.27	16.47	21.13	59.34	54.41	18.48	13.99	12.52	61.86	276.1	39.15	3.684	3.726	3.164	3.257	2.793	3.030	3.265	2.795	2.733	2.797	3.009	2.863	2.644	2.659	2.291	2.237	2.028	1.897	1.900	1.577	1.358	1.388	1.377	1.179	1.189	0.976	0.974	0.985	0.950	0.896	0.822	0.690	0.643	0.644	0.619	0.575	0.663	0.941	1.232	0.854	0.695	0.544	0.580	0.523	0.495	0.480	0.605	0.793	0.784	0.532	0.484	0.479	0.439	0.466	0.600	0.892	1.452	5.437	26.68
610.0	29.49	26.29	28.72	22.98	15.93	14.65	14.06	14.67	16.29	18.79	35.45	63.68	24.91	13.21	10.65	20.39	155.2	143.5	7.747	3.046	2.732	2.638	2.432	2.542	2.680	2.322	2.486	2.356	2.453	2.268	2.230	2.230	1.883	1.992	1.727	1.647	1.543	1.320	1.239	1.241	1.177	1.089	1.031	0.928	0.893	0.818	0.852	0.762	0.756	0.630	0.549	0.601	0.544	0.534	0.529	0.622	0.940	0.895	0.810	0.536	0.473	0.518	0.453	0.494	0.516	0.551	0.702	0.662	0.553	0.455	0.478	0.472	0.461	0.572	0.700	1.547	6.537
615.0	25.36	27.89	28.80	20.47	15.67	11.48	13.95	13.39	14.80	16.00	21.75	51.39	39.77	14.09	9.795	9.893	44.82	199.1	50.52	2.767	2.285	2.401	2.180	2.108	2.189	1.981	1.975	1.927	2.069	1.906	1.692	1.819	1.582	1.513	1.676	1.449	1.112	1.126	1.098	1.041	0.975	0.931	0.950	0.830	0.770	0.741	0.717	0.643	0.651	0.537	0.443	0.525	0.526	0.446	0.529	0.472	0.560	0.822	0.874	0.691	0.593	0.436	0.492	0.479	0.463	0.447	0.568	0.737	0.752	0.541	0.497	0.387	0.440	0.464	0.519	0.701	1.773
620.0	26.17	28.30	26.52	20.49	17.22	13.52	13.84	13.99	14.10	14.77	18.33	34.79	50.10	15.16	9.691	7.280	14.85	127.3	130.7	4.150	2.081	1.720	1.923	1.880	2.001	1.739	1.748	1.711	1.690	1.528	1.374	1.529	1.411	1.205	1.328	1.137	1.093	0.944	0.962	0.858	0.843	0.818	0.818	0.727	0.742	0.616	0.594	0.572	0.551	0.516	0.413	0.464	0.426	0.480	0.441	0.418	0.542	0.561	0.821	0.680	0.566	0.391	0.401	0.425	0.441	0.441	0.561	0.606	0.716	0.535	0.499	0.498	0.398	0.381	0.463	0.537	0.716
625.0	35.94	25.52	23.19	16.13	14.82	13.61	12.22	13.32	13.08	14.27	17.10	23.74	50.44	20.19	9.110	6.526	7.210	49.35	183.1	17.65	1.964	1.776	1.754	1.539	1.682	1.449	1.686	1.461	1.366	1.398	1.418	1.329	1.268	1.159	1.144	1.018	0.932	0.961	0.939	0.796	0.805	0.736	0.710	0.660	0.649	0.553	0.542	0.513	0.574	0.499	0.393	0.479	0.447	0.450	0.418	0.460	0.427	0.460	0.672	0.720	0.540	0.440	0.418	0.424	0.418	0.463	0.481	0.538	0.664	0.627	0.516	0.460	0.397	0.437	0.427	0.454	0.506
630.0	33.56	22.15	20.74	14.31	11.96	11.89	10.66	12.37	12.42	14.65	15.33	18.17	36.41	34.32	10.28	6.664	5.468	14.88	118.2	95.64	3.853	1.577	1.612	1.398	1.490	1.306	1.342	1.221	1.271	1.207	1.342	1.146	1.061	1.023	1.005	0.878	0.784	0.826	0.749	0.777	0.684	0.632	0.661	0.617	0.532	0.530	0.543	0.498	0.474	0.390	0.367	0.408	0.401	0.404	0.418	0.401	0.431	0.425	0.560	0.573	0.562	0.505	0.401	0.427	0.389	0.427	0.434	0.481	0.482	0.567	0.643	0.524	0.409	0.406	0.425	0.410	0.409
635.0	26.15	19.27	19.35	15.73	11.44	10.86	10.03	10.93	11.97	13.41	13.84	16.04	21.94	39.50	13.83	6.913	4.843	6.206	34.80	144.8	28.19	1.599	1.312	1.385	1.246	1.349	1.195	1.053	1.090	1.109	1.049	1.088	0.915	0.928	0.861	0.762	0.798	0.712	0.696	0.588	0.653	0.595	0.517	0.597	0.463	0.462	0.451	0.492	0.409	0.332	0.339	0.380	0.366	0.393	0.433	0.375	0.386	0.402	0.417	0.548	0.569	0.522	0.426	0.424	0.381	0.450	0.414	0.410	0.397	0.479	0.596	0.636	0.430	0.399	0.369	0.387	0.362
640.0	27.24	22.90	18.54	14.15	11.55	11.24	10.64	10.04	10.73	14.04	13.32	15.56	15.40	33.34	21.87	6.319	4.983	4.199	10.69	102.0	69.81	2.325	1.250	1.222	1.303	1.257	1.082	1.083	0.937	1.072	0.911	0.922	0.963	0.881	0.803	0.650	0.852	0.590	0.619	0.576	0.585	0.575	0.602	0.539	0.455	0.412	0.404	0.441	0.354	0.310	0.309	0.335	0.358	0.354	0.370	0.329	0.346	0.386	0.373	0.430	0.482	0.494	0.412	0.451	0.486	0.428	0.410	0.475	0.384	0.435	0.448	0.559	0.623	0.468	0.399	0.390	0.361
645.0	24.70	22.12	19.58	14.03	12.27	10.44	9.788	10.11	11.71	13.43	13.45	13.26	13.24	23.95	27.06	7.667	5.058	3.783	4.499	40.86	126.6	9.790	1.354	1.109	1.223	1.104	0.945	0.992	0.896	0.971	0.899	0.857	0.924	0.780	0.758	0.641	0.591	0.613	0.532	0.537	0.537	0.510	0.458	0.479	0.449	0.473	0.514	0.330	0.387	0.383	0.335	0.319	0.346	0.315	0.330	0.338	0.381	0.411	0.427	0.460	0.434	0.522	0.440	0.486	0.476	0.370	0.379	0.478	0.353	0.447	0.394	0.527	0.620	0.500	0.377	0.453	0.409
650.0	25.97	23.74	18.09	14.65	12.16	9.979	8.852	9.142	10.55	13.56	12.15	13.15	12.64	16.70	28.82	10.27	5.025	3.769	3.275	12.80	116.8	41.06	1.464	1.059	1.080	0.982	0.811	0.960	0.838	0.924	0.833	0.822	0.717	0.714	0.649	0.524	0.587	0.534	0.554	0.438	0.501	0.407	0.427	0.437	0.439	0.402	0.374	0.355	0.330	0.333	0.311	0.334	0.347	0.321	0.320	0.324	0.378	0.477	0.405	0.408	0.394	0.435	0.442	0.483	0.456	0.448	0.432	0.466	0.438	0.413	0.356	0.429	0.514	0.554	0.426	0.476	0.368
