Sample:	'1
File name:	¶«±ÃÕ¾5±¶.FD3
Run date:	'16:40:44, 06/17/2025
Operator:	dsjg
Comment:	'

Instrument
Model:	F-2700 FL Spectrophotometer
Serial number:	2198-001
ROM Version:	4J14000 07

Instrument parameters
Measurement type:	3-D scan
Data mode:	Fluorescence
EX  Start WL:	220.0 nm
EX  End WL:	600.0 nm
EX Sampling interval:	5.0 nm
EM  Start WL:	230.0 nm
EM  End WL:	650.0 nm
EM Sampling interval:	5.0 nm
Scan speed:	12000 nm/min
EX Slit:	5.0 nm
EM Slit:	5.0 nm
PMT Voltage:	700 V
Response:	Auto 
Corrected spectra:	Off
Contour interval:	50.000

Peak integration
Integration method:	Rectangular
Sensitivity:	1
Threshold:	1.000

Peaks
No.	ApexEX/EM(nm)	Height(Data)
1	230.0/265.0	7.317
2	235.0/625.0	24.00
3	240.0/640.0	22.17
4	255.0/455.0	 5927
5	280.0/235.0	4.642
6	280.0/390.0	 4937
7	280.0/635.0	46.94
8	310.0/455.0	 3953
9	345.0/395.0	 5210
10	360.0/450.0	 4626
11	510.0/455.0	29.54
12	565.0/390.0	21.22

Data points
	220.0	225.0	230.0	235.0	240.0	245.0	250.0	255.0	260.0	265.0	270.0	275.0	280.0	285.0	290.0	295.0	300.0	305.0	310.0	315.0	320.0	325.0	330.0	335.0	340.0	345.0	350.0	355.0	360.0	365.0	370.0	375.0	380.0	385.0	390.0	395.0	400.0	405.0	410.0	415.0	420.0	425.0	430.0	435.0	440.0	445.0	450.0	455.0	460.0	465.0	470.0	475.0	480.0	485.0	490.0	495.0	500.0	505.0	510.0	515.0	520.0	525.0	530.0	535.0	540.0	545.0	550.0	555.0	560.0	565.0	570.0	575.0	580.0	585.0	590.0	595.0	600.0
230.0	3.571	31.49	81.14	30.88	3.284	3.579	2.977	4.727	2.883	3.039	3.138	2.924	3.921	2.933	2.935	2.906	2.447	2.251	2.526	2.693	2.551	2.595	2.485	2.960	2.798	2.933	2.839	2.665	2.698	2.492	2.153	2.005	1.790	1.555	1.332	1.198	1.108	1.025	0.797	0.737	0.596	0.540	0.568	0.430	0.484	0.516	0.300	0.504	0.431	0.555	0.449	0.316	0.334	0.313	0.238	0.329	0.222	0.313	0.235	0.255	0.180	0.190	0.252	0.219	0.097	0.223	0.073	0.224	0.173	0.022	0.019	0.139	0.064	0.122	0.119	0.115	0.182
235.0	6.329	9.583	54.83	93.39	43.94	6.193	4.051	3.317	3.020	3.076	3.281	3.089	4.642	3.370	3.073	3.067	2.392	2.734	2.255	2.401	3.045	2.491	2.641	2.901	2.799	3.223	2.575	2.968	2.908	2.740	2.261	1.943	1.769	1.524	1.175	1.001	1.184	0.878	0.678	0.820	0.487	0.542	0.590	0.251	0.356	0.487	0.227	0.497	0.456	0.334	0.567	0.632	0.533	0.490	0.161	0.362	0.241	0.359	0.251	0.167	0.093	0.161	0.076	0.169	0.134	0.356	0.136	0.010	0.128	0.074	0.110	0.021	-0.131	0.184	0.026	-0.117	0.112
240.0	-2.192	2.833	12.17	79.11	116.4	34.10	3.500	4.404	2.519	2.379	2.532	2.645	3.843	3.437	2.834	2.210	2.276	2.499	3.137	2.364	2.772	2.125	2.665	2.854	2.908	3.240	2.824	2.820	2.895	2.631	2.405	1.897	1.888	1.291	1.313	1.269	1.259	0.890	0.853	0.742	0.761	0.289	0.646	0.456	0.471	0.453	0.315	0.453	0.420	0.365	0.415	0.616	0.618	0.777	0.508	0.535	0.249	0.276	0.265	0.155	0.188	0.178	0.100	0.357	0.068	0.285	0.193	0.071	0.257	0.324	0.103	0.024	-0.077	0.116	-0.015	0.137	0.213
245.0	10.04	2.500	3.972	26.46	112.4	126.3	30.04	4.232	3.291	1.894	2.739	3.356	3.523	4.875	2.729	2.210	2.011	2.138	2.613	2.862	2.264	2.475	2.143	2.722	3.223	3.232	3.371	2.817	3.133	2.587	2.686	2.103	1.651	1.001	1.472	1.188	1.271	0.771	0.976	0.833	0.690	0.607	0.590	0.534	0.643	0.530	0.406	0.340	0.366	0.352	0.407	0.460	0.457	0.632	0.978	0.733	0.542	0.153	0.287	0.284	0.324	0.060	0.135	0.298	0.257	0.065	0.106	0.143	0.221	0.199	0.142	0.087	0.067	0.114	0.113	0.121	0.152
250.0	6.041	3.452	1.214	8.573	40.04	113.2	158.2	74.66	8.839	3.621	3.130	3.572	2.617	4.655	3.194	2.671	2.462	2.611	2.365	2.549	2.242	2.588	2.370	2.957	3.130	2.769	3.408	3.096	3.042	2.868	2.445	2.013	1.839	1.040	1.355	1.265	1.090	0.785	1.005	0.818	0.698	0.763	0.671	0.553	0.585	0.542	0.491	0.402	0.347	0.359	0.388	0.362	0.376	0.398	0.570	0.695	0.879	0.958	0.719	0.378	0.152	0.196	0.182	0.295	0.223	0.111	0.245	0.138	0.057	0.123	0.129	0.103	0.140	0.109	0.150	0.020	0.029
255.0	0.740	4.782	6.073	8.000	11.44	27.53	116.1	249.7	137.9	11.93	3.835	4.865	4.694	3.884	3.462	3.285	3.062	3.116	2.629	2.549	2.798	2.646	3.327	2.979	2.701	2.935	3.082	3.189	2.706	2.198	2.418	1.804	1.870	1.273	1.405	1.450	1.081	0.880	0.873	0.734	0.623	0.677	0.754	0.689	0.554	0.713	0.457	0.292	0.350	0.468	0.418	0.335	0.496	0.362	0.347	0.373	0.512	0.946	1.174	1.550	0.943	0.420	0.157	0.227	0.222	0.122	0.167	0.244	0.082	0.111	0.202	0.099	-0.048	0.199	-0.078	0.150	-0.033
260.0	2.417	-0.292	0.756	7.156	7.508	8.089	36.68	194.9	352.6	138.6	9.690	5.215	4.393	4.448	3.772	2.811	2.967	2.765	2.493	3.630	2.625	2.562	2.524	3.283	3.516	2.929	3.020	3.365	3.076	2.724	2.352	2.141	1.871	1.430	1.351	1.060	1.060	1.011	1.029	0.798	0.685	0.765	0.532	0.366	0.683	0.495	0.639	0.404	0.418	0.367	0.474	0.380	0.384	0.416	0.457	0.351	0.331	0.528	0.659	1.215	1.909	2.043	1.017	0.335	0.465	0.271	0.044	0.282	0.251	0.093	0.192	0.086	0.053	0.243	0.030	0.197	0.127
265.0	6.797	-0.605	7.317	2.509	9.093	8.834	13.09	66.46	334.8	376.5	148.8	6.407	4.501	4.326	4.332	2.781	2.850	2.850	2.363	2.763	2.949	2.466	2.937	3.386	3.064	3.151	2.981	3.440	3.649	2.931	2.585	2.291	2.275	1.461	1.331	1.390	1.089	0.943	0.878	0.818	0.664	0.686	0.576	0.586	0.647	0.545	0.533	0.640	0.342	0.437	0.460	0.411	0.358	0.280	0.349	0.268	0.318	0.440	0.446	0.474	1.017	2.315	2.679	2.258	1.094	0.162	0.138	0.111	0.298	0.122	-0.061	0.250	0.083	0.097	-0.085	0.271	0.117
270.0	4.056	0.275	4.331	0.584	5.576	8.931	10.23	21.31	105.5	346.3	624.1	400.1	50.77	4.445	4.570	3.138	3.269	3.311	2.874	2.939	2.827	2.619	3.225	3.139	3.535	3.155	3.143	3.534	3.197	3.183	2.344	2.388	2.304	1.790	1.232	1.204	1.046	0.991	0.848	0.768	0.708	0.585	0.634	0.676	0.722	0.633	0.612	0.635	0.428	0.373	0.436	0.332	0.313	0.235	0.364	0.314	0.378	0.489	0.344	0.332	0.434	0.791	1.410	2.287	3.289	3.406	2.461	0.946	0.230	0.221	0.107	0.098	0.066	0.029	0.101	0.132	0.210
275.0	8.970	7.258	3.484	5.145	5.957	7.458	10.32	16.92	33.27	94.14	343.8	916.6	691.0	64.69	4.587	3.255	3.242	3.587	3.401	3.430	3.185	2.962	3.430	3.354	3.630	3.595	3.107	3.591	3.308	3.257	2.530	2.620	2.141	1.545	1.287	1.261	0.936	0.999	0.841	0.909	0.812	0.613	0.614	0.747	0.605	0.549	0.688	0.683	0.517	0.461	0.535	0.370	0.214	0.289	0.239	0.418	0.313	0.452	0.322	0.254	0.336	0.311	0.500	0.818	1.281	2.121	4.309	5.801	4.023	1.373	0.231	0.114	0.002	0.240	-0.052	0.116	0.331
280.0	-0.008	3.866	11.46	5.259	6.863	6.809	13.63	19.05	25.08	37.84	114.1	540.8	 1151	631.6	34.12	4.756	4.245	3.815	3.767	3.893	3.041	2.896	3.331	3.492	4.045	3.615	3.497	3.820	3.180	2.938	2.419	2.408	2.016	1.862	1.699	1.191	0.936	1.014	0.882	0.678	0.795	0.628	0.584	0.507	0.528	0.589	0.496	0.545	0.634	0.408	0.377	0.322	0.381	0.386	0.462	0.410	0.444	0.358	0.462	0.434	0.410	0.235	0.327	0.321	0.555	0.720	1.670	3.421	6.285	6.188	3.147	0.476	0.208	0.178	-0.166	0.167	0.231
285.0	1.677	11.20	14.41	16.67	10.03	8.189	14.81	21.90	32.15	40.25	61.04	197.1	738.3	 1301	182.7	16.90	4.974	3.598	4.239	3.616	3.588	3.673	3.617	3.431	3.771	3.516	3.793	3.603	3.228	3.361	3.137	2.547	2.070	1.766	1.548	1.410	1.116	0.970	0.734	0.708	0.730	0.563	0.525	0.634	0.470	0.611	0.565	0.624	0.631	0.429	0.431	0.575	0.372	0.410	0.377	0.306	0.361	0.275	0.442	0.457	0.315	0.230	0.302	0.525	0.421	0.520	0.771	1.177	2.632	5.226	6.924	5.627	2.075	0.484	0.097	-0.047	0.228
290.0	18.14	33.76	45.98	58.82	41.50	21.68	21.17	28.97	49.95	78.19	108.6	156.9	317.6	750.7	 1162	678.3	56.90	5.023	5.185	4.042	4.024	3.928	3.926	3.706	4.046	3.745	3.702	3.741	3.533	3.453	3.331	2.671	2.191	1.839	1.453	1.488	1.143	1.038	0.911	0.958	0.857	0.615	0.455	0.628	0.623	0.555	0.584	0.622	0.718	0.616	0.605	0.760	0.537	0.497	0.432	0.368	0.350	0.259	0.415	0.495	0.354	0.508	0.580	0.659	0.520	0.641	0.641	0.851	1.188	1.900	2.962	4.749	6.440	6.461	4.792	2.100	0.290
295.0	35.12	56.69	94.49	119.1	86.36	35.89	29.79	44.96	72.38	124.2	188.4	239.4	287.9	357.8	574.7	 1339	 1062	72.32	6.101	5.370	4.379	4.134	4.318	4.021	5.094	3.976	4.554	3.842	3.951	4.010	2.959	2.811	2.306	2.001	1.480	1.547	1.628	1.334	1.105	0.646	0.702	0.647	0.466	0.579	0.634	0.503	0.697	0.691	0.768	0.747	0.701	1.027	0.970	0.678	0.473	0.419	0.294	0.258	0.315	0.562	0.553	0.798	0.805	0.710	0.900	1.138	1.262	1.092	1.258	1.468	1.573	1.881	2.333	3.427	6.811	10.75	8.514
300.0	46.93	86.87	138.2	162.9	123.5	50.56	43.27	57.32	97.77	161.9	256.0	324.0	356.6	334.0	327.3	686.2	 1931	916.9	46.85	6.564	5.011	4.666	4.689	4.728	5.143	4.306	4.740	3.952	4.032	3.766	3.456	2.859	2.459	1.993	1.732	1.462	1.515	1.307	0.852	0.838	0.892	0.638	0.676	0.379	0.515	0.617	0.745	0.828	0.804	0.710	0.916	1.219	1.150	0.829	0.577	0.499	0.424	0.489	0.535	0.719	0.665	0.843	0.901	0.945	1.276	1.432	1.690	1.683	1.829	1.639	1.431	1.533	1.424	1.420	2.575	5.714	11.36
305.0	50.14	116.7	174.9	196.7	148.7	62.17	54.37	77.71	129.0	208.0	321.8	435.9	465.8	419.7	330.5	297.7	 1008	 2560	753.8	24.42	6.087	5.496	5.002	4.615	5.182	4.778	4.662	4.211	4.414	4.018	3.501	3.035	2.574	1.806	1.971	1.678	1.531	1.345	0.918	1.004	0.880	0.774	0.736	0.549	0.649	0.710	0.611	0.810	0.800	0.805	0.897	1.092	1.466	0.963	0.638	0.638	0.568	0.616	0.619	0.691	0.759	0.798	1.047	1.242	1.385	1.897	1.942	2.106	2.055	2.013	1.836	2.117	1.700	1.450	1.183	1.837	4.358
310.0	57.86	124.7	199.8	239.0	183.4	80.40	75.72	102.2	158.8	256.8	389.6	519.5	584.1	537.7	413.8	242.9	369.4	 1171	 2483	 1799	49.51	8.744	6.449	5.790	5.413	5.448	5.293	4.661	4.817	4.214	3.831	3.247	2.932	2.400	1.994	1.658	1.512	1.261	0.966	0.998	0.949	0.870	0.766	0.562	0.538	0.704	0.707	0.836	1.060	0.998	0.902	1.363	1.514	1.008	0.674	0.694	0.609	0.648	0.759	0.720	1.124	1.105	1.193	1.411	1.755	2.129	2.409	2.566	2.815	2.465	2.543	2.391	2.174	1.605	1.062	1.083	1.612
315.0	70.61	167.3	219.9	270.7	206.7	110.4	102.1	135.9	205.4	321.6	469.2	623.2	710.1	687.4	551.9	330.8	270.9	405.2	889.3	 3207	 3612	69.39	11.31	8.365	7.398	6.163	5.578	5.588	5.011	4.803	3.894	3.596	2.699	2.535	2.175	1.604	1.528	1.628	1.036	1.053	0.885	0.863	1.046	0.599	0.600	0.794	0.807	0.820	1.120	1.087	1.131	1.384	1.546	1.218	0.903	0.870	0.715	0.737	0.884	0.968	1.367	1.403	1.562	1.931	2.273	2.471	2.960	3.078	3.314	3.125	3.269	3.012	2.856	1.976	1.595	1.417	1.217
320.0	70.62	182.4	256.3	296.3	235.5	139.1	139.0	177.8	258.8	391.8	554.0	714.5	808.7	798.7	685.5	439.1	331.4	294.9	335.5	 1353	 5305	 3179	53.72	12.36	8.335	7.534	6.524	6.027	5.667	5.533	4.680	3.450	2.981	2.680	2.283	2.166	1.740	1.471	1.124	1.191	1.074	0.808	0.977	0.492	0.887	0.768	0.778	1.095	1.256	1.186	1.059	1.718	1.544	1.270	0.937	0.924	0.908	0.934	1.347	1.224	1.370	1.309	1.863	2.436	2.442	2.926	2.948	3.605	3.819	3.644	3.814	3.639	3.487	2.914	2.155	1.947	1.594
325.0	90.74	209.2	314.9	377.4	299.9	202.4	217.0	261.1	331.6	478.7	678.0	853.5	949.5	943.5	828.3	609.2	457.8	359.9	280.6	495.3	 2488	 6968	684.7	42.18	12.45	9.346	7.554	6.630	6.610	5.489	5.157	3.287	3.280	3.044	2.601	1.946	2.072	1.667	1.493	1.386	1.201	1.025	1.074	0.852	0.939	0.869	0.967	1.316	1.386	1.340	1.319	1.745	1.797	1.375	1.340	1.253	1.300	1.375	1.502	1.446	1.782	1.866	2.256	2.699	3.353	3.274	3.729	4.034	4.338	4.157	4.526	4.191	3.999	3.523	2.661	2.375	2.372
330.0	132.4	270.5	439.8	544.8	473.4	384.6	396.1	432.8	513.9	673.2	911.4	 1134	 1240	 1243	 1133	921.5	763.6	612.3	486.5	466.9	887.5	 3178	 6476	 2881	54.28	17.81	11.62	8.321	7.473	6.331	5.714	4.454	3.626	2.997	2.816	2.200	2.235	1.794	1.429	1.455	1.146	1.054	1.155	1.085	0.953	1.155	1.053	1.205	1.630	1.724	1.850	2.451	2.576	2.115	2.117	1.965	2.255	2.190	2.293	2.605	2.581	2.947	3.154	3.588	4.397	4.421	5.080	5.089	5.559	5.647	5.665	5.250	5.245	4.595	4.126	3.924	3.685
335.0	155.6	349.1	581.2	732.8	680.9	608.2	613.0	681.9	763.7	942.6	 1222	 1452	 1571	 1602	 1482	 1276	 1138	981.8	823.6	735.7	733.7	 1186	 2429	 8450	 4765	71.14	20.20	12.22	9.425	7.643	6.420	5.398	4.333	3.244	3.296	2.628	2.332	1.955	1.897	1.512	1.327	1.123	1.057	1.209	1.041	1.286	1.417	1.636	1.804	2.270	2.372	3.242	2.982	2.977	2.812	3.028	3.472	3.196	3.514	3.660	3.825	3.970	4.463	4.788	5.558	6.050	6.653	6.701	6.999	6.973	6.916	6.770	6.434	6.478	6.209	6.055	5.455
340.0	187.0	410.8	682.3	881.8	823.5	784.8	823.3	873.7	955.3	 1141	 1446	 1673	 1788	 1823	 1736	 1538	 1397	 1272	 1066	967.1	889.1	924.6	 1085	 3648	9999.9	 4078	59.56	18.05	12.98	9.360	7.661	5.937	4.676	3.944	3.357	2.623	2.179	2.077	1.826	1.671	1.445	1.130	1.071	1.300	1.144	1.258	1.457	1.814	2.264	2.663	2.874	3.914	3.807	3.350	3.521	3.759	4.055	4.335	4.418	4.627	4.533	4.694	5.364	5.353	6.519	7.218	7.427	7.579	7.851	8.472	7.868	7.945	7.700	7.638	7.187	6.944	6.875
345.0	206.4	425.7	732.5	958.8	944.4	917.8	969.0	 1024	 1108	 1309	 1607	 1853	 1969	 2001	 1920	 1767	 1621	 1504	 1392	 1270	 1136	 1048	896.8	 1336	 5610	9999.9	 3145	46.88	18.80	12.36	9.568	6.790	5.332	4.462	3.621	2.999	2.486	2.377	1.891	1.732	1.522	1.101	1.222	1.343	1.286	1.373	1.723	2.020	2.401	2.852	3.002	4.136	4.554	4.233	3.992	4.394	4.681	4.760	4.939	5.178	5.265	5.359	6.246	6.522	7.065	8.005	8.389	8.384	8.343	8.772	9.138	8.541	8.741	8.708	8.022	7.931	7.663
350.0	216.3	444.5	769.3	 1008	 1034	 1065	 1144	 1210	 1295	 1496	 1803	 2044	 2154	 2189	 2128	 2003	 1884	 1790	 1733	 1665	 1500	 1363	 1137	962.1	 1764	 5469	9999.9	 6217	239.3	31.16	16.96	9.946	7.029	4.932	4.243	3.234	3.005	2.524	2.094	1.844	1.632	1.455	1.315	1.401	1.390	1.598	1.847	1.933	2.545	2.814	3.174	4.305	4.733	4.756	4.729	4.864	5.457	5.817	5.985	5.956	6.186	6.464	6.880	7.287	7.836	8.712	8.847	9.438	9.446	9.259	9.626	9.473	9.661	9.567	9.410	9.085	9.209
355.0	218.6	457.2	789.8	 1015	 1117	 1179	 1270	 1346	 1470	 1689	 2020	 2266	 2374	 2388	 2344	 2230	 2160	 2089	 2069	 2048	 1950	 1781	 1534	 1206	 1101	 1692	 3624	9999.9	 4494	349.6	49.18	21.00	11.13	6.669	4.977	3.779	3.448	2.706	2.626	1.964	1.645	1.599	1.376	1.384	1.696	1.650	1.673	1.935	2.529	2.808	3.167	4.810	5.020	4.968	5.106	5.243	6.226	6.499	6.859	6.577	7.363	7.157	8.032	8.384	8.944	9.794	9.688	9.943	10.24	10.40	10.53	10.55	10.53	10.86	10.36	10.20	10.64
360.0	230.9	466.8	782.8	 1021	 1132	 1253	 1334	 1458	 1606	 1890	 2262	 2549	 2663	 2651	 2550	 2408	 2353	 2307	 2322	 2356	 2326	 2191	 1949	 1627	 1341	 1214	 1493	 5019	9999.9	 4110	254.7	46.77	19.95	10.05	6.422	4.506	4.068	3.014	2.825	2.258	1.888	1.752	1.580	1.544	1.562	1.608	1.975	2.154	2.664	2.890	3.236	4.464	5.001	4.936	5.596	5.689	6.370	6.895	7.366	7.103	8.035	7.678	8.516	9.425	10.36	10.94	10.84	11.02	11.62	11.84	11.61	11.69	11.96	11.49	11.22	10.97	11.23
365.0	255.1	477.0	766.6	 1021	 1170	 1291	 1399	 1553	 1735	 2085	 2550	 2926	 3055	 3003	 2811	 2605	 2528	 2512	 2565	 2636	 2664	 2655	 2461	 2195	 1929	 1657	 1493	 2218	 7859	9999.9	 3259	142.0	36.97	15.08	8.267	5.216	4.193	3.789	2.832	2.820	2.217	1.877	1.808	1.822	1.949	1.770	1.925	2.333	2.629	2.977	3.530	4.391	5.146	5.291	5.783	6.243	6.633	7.103	7.550	7.839	8.525	8.302	9.594	10.34	11.74	11.59	12.75	12.28	13.31	13.36	13.08	13.09	13.09	12.39	11.91	11.91	12.30
370.0	266.3	494.2	796.0	 1027	 1194	 1329	 1472	 1621	 1897	 2360	 2955	 3447	 3625	 3540	 3195	 2859	 2730	 2748	 2849	 2994	 3105	 3217	 3200	 3026	 2848	 2592	 2304	 2254	 3503	 7770	9999.9	 7014	235.9	35.32	14.82	8.277	5.668	4.455	3.381	3.056	2.646	2.376	2.558	2.053	2.022	2.138	2.191	2.570	3.013	3.163	3.662	4.486	5.240	5.770	5.683	6.224	6.954	7.462	7.812	8.187	8.985	9.424	10.67	11.76	12.86	14.17	14.98	15.24	15.67	15.75	15.44	15.06	14.56	13.97	13.29	12.91	13.13
375.0	287.8	494.1	825.5	 1037	 1215	 1389	 1539	 1752	 2078	 2625	 3370	 3975	 4203	 4067	 3600	 3121	 2928	 2955	 3113	 3320	 3539	 3728	 3856	 3852	 3758	 3555	 3236	 2997	 3079	 3465	 4835	9999.9	9999.9	300.8	30.48	13.77	8.450	5.487	4.291	3.828	3.163	2.803	2.480	2.415	2.370	2.307	2.393	2.849	3.043	3.394	3.902	4.537	5.213	5.809	6.409	6.484	7.444	7.675	8.331	8.795	9.285	10.59	11.56	12.68	14.46	15.85	17.18	18.35	17.79	18.38	18.15	17.38	16.59	15.16	14.44	14.05	13.99
380.0	306.3	528.0	845.5	 1055	 1235	 1404	 1596	 1796	 2186	 2800	 3633	 4312	 4598	 4444	 3864	 3273	 3036	 3062	 3256	 3513	 3776	 4050	 4247	 4363	 4381	 4200	 3870	 3584	 3416	 2843	 2321	 5951	9999.9	 3495	55.87	20.60	12.02	6.931	5.323	4.229	3.391	2.874	2.768	2.708	2.392	2.593	2.517	3.043	3.318	3.419	3.708	4.629	5.356	6.228	6.364	6.491	7.666	8.390	8.655	9.387	9.896	10.39	11.99	14.25	16.39	17.53	19.00	19.37	20.14	19.79	19.71	18.90	17.80	16.06	15.03	14.97	14.42
385.0	305.2	533.3	826.4	 1067	 1238	 1422	 1598	 1835	 2211	 2912	 3806	 4549	 4839	 4668	 4021	 3343	 3068	 3109	 3331	 3618	 3930	 4234	 4502	 4666	 4809	 4665	 4330	 4029	 3787	 2957	 1891	 2234	 8261	9999.9	 2571	40.50	16.51	9.674	6.384	4.698	3.801	3.159	2.922	2.532	2.438	2.741	2.411	2.992	3.232	3.381	3.696	4.638	5.483	6.153	6.647	7.026	7.652	8.210	8.313	9.019	10.18	10.93	12.61	14.89	16.99	17.77	19.72	20.20	20.68	20.74	20.30	19.36	18.24	16.35	15.34	14.97	14.88
390.0	324.0	552.7	835.4	 1055	 1245	 1463	 1639	 1881	 2275	 2984	 3886	 4628	 4937	 4742	 4065	 3343	 3061	 3096	 3305	 3622	 3971	 4337	 4646	 4880	 5102	 5049	 4718	 4404	 4133	 3232	 1993	 1406	 2509	 6970	9999.9	 5781	172.2	16.80	9.496	6.372	4.957	3.711	3.285	2.884	2.628	2.701	2.587	3.268	3.365	3.508	3.744	4.812	5.466	6.159	6.736	7.122	7.748	8.351	8.820	9.525	10.38	11.49	13.02	15.15	16.68	18.38	20.15	20.80	21.11	21.22	20.98	19.74	18.55	16.58	15.34	15.23	14.58
395.0	327.5	535.8	850.5	 1066	 1267	 1512	 1706	 1936	 2310	 3004	 3884	 4625	 4912	 4714	 4011	 3285	 2993	 3032	 3220	 3558	 3913	 4305	 4662	 4943	 5176	 5210	 4955	 4651	 4359	 3461	 2204	 1390	 1166	 1865	 3954	9999.9	 8594	49.18	16.92	10.02	6.697	4.765	3.727	3.067	2.873	2.944	2.809	3.432	3.356	3.647	3.828	5.422	5.855	6.374	6.684	7.133	8.346	9.064	9.266	9.951	10.64	11.66	12.78	15.03	16.32	18.71	20.08	20.81	20.91	21.06	20.92	19.79	18.57	16.49	15.23	14.63	14.72
400.0	325.0	534.1	831.7	 1069	 1322	 1564	 1787	 1970	 2338	 2992	 3845	 4536	 4821	 4620	 3948	 3230	 2922	 2959	 3142	 3476	 3837	 4217	 4577	 4902	 5149	 5194	 4994	 4739	 4450	 3578	 2354	 1497	967.5	782.8	 1113	 5138	9999.9	 2878	42.44	14.76	9.560	6.272	4.537	3.711	3.122	2.901	3.065	3.555	3.702	3.706	3.912	5.034	5.664	6.379	7.010	7.693	8.792	9.045	9.599	10.14	10.92	11.47	12.71	14.98	16.65	18.27	18.93	20.09	20.58	20.58	20.26	19.43	18.36	16.46	15.07	14.47	14.12
405.0	317.4	558.0	833.6	 1057	 1342	 1626	 1846	 2051	 2361	 2962	 3769	 4415	 4689	 4488	 3843	 3143	 2850	 2883	 3051	 3371	 3712	 4085	 4451	 4787	 5048	 5116	 4928	 4738	 4465	 3626	 2463	 1612	 1011	609.3	505.1	 1404	 6849	9999.9	 2239	35.09	12.80	7.878	5.752	4.242	3.451	3.046	2.878	3.430	3.838	4.015	4.051	5.056	5.842	6.437	7.586	7.887	8.905	9.624	9.762	10.22	12.09	11.50	12.88	14.71	16.17	17.86	18.68	19.75	19.76	19.96	19.29	19.34	17.66	15.97	14.81	14.21	13.90
410.0	327.6	548.4	849.7	 1104	 1415	 1778	 2002	 2190	 2421	 2906	 3614	 4183	 4396	 4213	 3645	 3016	 2757	 2775	 2936	 3217	 3519	 3860	 4218	 4549	 4824	 4916	 4761	 4602	 4410	 3638	 2567	 1754	 1151	703.8	472.3	550.4	 1810	 6009	9999.9	 4823	153.7	14.85	8.668	6.107	4.230	3.604	3.278	3.591	3.729	3.776	4.100	5.411	6.147	6.877	7.877	8.548	9.583	10.53	10.61	10.70	11.54	11.82	12.67	14.41	15.60	17.07	18.00	18.83	18.85	19.10	18.17	18.38	16.76	15.22	14.03	13.65	13.52
415.0	329.5	564.7	875.4	 1162	 1544	 1978	 2254	 2405	 2526	 2872	 3420	 3910	 4101	 3954	 3447	 2925	 2703	 2708	 2862	 3087	 3347	 3604	 3953	 4273	 4568	 4666	 4578	 4442	 4287	 3674	 2705	 1937	 1343	892.6	606.1	471.3	645.0	 1510	 3661	9999.9	 2837	44.97	15.65	8.712	6.139	4.371	3.892	3.616	3.549	4.006	4.366	5.500	6.425	7.859	8.516	9.027	10.85	11.42	11.61	11.99	12.12	11.99	12.96	14.12	15.17	15.59	16.99	17.69	17.42	17.86	17.44	17.03	15.37	14.34	13.90	13.18	13.50
420.0	337.6	602.9	912.7	 1229	 1677	 2201	 2543	 2653	 2696	 2889	 3351	 3731	 3917	 3770	 3334	 2894	 2715	 2734	 2868	 3065	 3232	 3436	 3757	 4080	 4360	 4509	 4454	 4353	 4226	 3701	 2854	 2121	 1525	 1064	751.5	547.1	456.2	551.5	989.7	 4466	9999.9	 2612	39.97	13.26	7.830	5.520	4.454	4.227	4.050	4.253	4.573	5.816	7.059	8.349	9.507	10.39	12.17	12.80	12.83	12.90	13.12	12.70	13.01	14.04	14.34	15.22	16.05	16.40	17.11	16.68	17.12	16.54	15.28	13.97	14.04	13.23	13.28
425.0	349.3	602.5	938.6	 1308	 1858	 2455	 2860	 2976	 2904	 2970	 3285	 3613	 3779	 3665	 3292	 2940	 2786	 2814	 2927	 3089	 3191	 3319	 3603	 3933	 4228	 4394	 4390	 4342	 4235	 3773	 3035	 2343	 1731	 1253	911.2	673.5	501.7	398.4	413.6	 1199	 5972	9999.9	 2052	31.51	11.34	6.868	5.397	4.864	4.695	4.480	4.690	6.392	7.670	8.799	10.30	11.17	13.75	14.20	14.55	14.45	13.79	13.46	13.37	13.95	14.46	15.01	15.78	16.21	16.52	16.37	16.65	15.57	15.54	13.86	13.78	14.04	13.92
430.0	367.2	650.4	 1026	 1478	 2145	 2907	 3446	 3559	 3307	 3128	 3224	 3496	 3652	 3590	 3314	 3046	 2972	 3005	 3127	 3230	 3197	 3224	 3462	 3777	 4098	 4301	 4366	 4371	 4314	 3938	 3296	 2672	 2067	 1555	 1168	881.0	650.3	474.3	364.3	458.5	 1574	 5332	 8629	 3909	134.9	11.96	7.113	6.159	5.324	5.054	5.353	7.095	8.832	10.23	12.18	13.85	16.36	16.94	17.94	16.94	15.63	15.21	14.59	13.99	14.43	14.57	15.10	15.29	15.66	15.87	15.62	15.56	15.43	14.30	14.11	14.76	14.68
435.0	407.1	730.7	 1117	 1664	 2499	 3460	 4199	 4270	 3831	 3362	 3202	 3397	 3555	 3561	 3369	 3225	 3219	 3291	 3411	 3445	 3268	 3148	 3330	 3663	 3998	 4235	 4375	 4458	 4452	 4165	 3607	 3030	 2458	 1904	 1468	 1122	840.3	605.2	433.3	355.9	523.3	 1310	 3057	 9362	 2622	39.27	11.51	7.757	6.694	5.953	6.033	7.984	9.753	12.11	14.51	16.94	19.53	20.34	22.02	20.74	18.64	17.03	15.42	14.59	14.29	14.17	14.64	14.39	15.01	15.08	15.43	15.56	15.59	15.14	14.81	15.56	16.29
440.0	417.3	767.8	 1203	 1802	 2764	 3866	 4681	 4798	 4237	 3479	 3197	 3340	 3494	 3529	 3413	 3352	 3417	 3505	 3624	 3614	 3315	 3112	 3257	 3574	 3923	 4222	 4385	 4506	 4555	 4329	 3831	 3274	 2707	 2159	 1676	 1284	969.6	701.3	502.9	367.6	315.2	426.3	789.0	 4253	9999.9	 2274	29.26	9.918	7.588	6.564	6.596	8.967	11.00	13.28	16.10	18.33	21.61	23.63	24.27	22.54	21.24	19.04	16.41	14.88	14.25	14.03	14.00	14.60	14.83	15.69	14.96	15.60	15.69	15.59	15.63	16.41	16.91
445.0	472.0	797.8	 1269	 1920	 2990	 4180	 5155	 5267	 4523	 3625	 3200	 3278	 3431	 3497	 3439	 3439	 3553	 3653	 3773	 3741	 3353	 3070	 3173	 3479	 3855	 4164	 4386	 4535	 4619	 4448	 4008	 3465	 2897	 2348	 1846	 1426	 1077	775.2	557.5	397.5	290.5	243.1	272.2	 1094	 5999	 9792	 1512	22.83	9.323	7.597	7.260	9.791	11.56	14.30	17.10	19.93	23.43	25.48	25.77	24.51	22.88	19.70	17.72	15.43	14.07	13.83	14.05	14.80	14.36	15.33	15.15	15.17	16.07	16.08	16.51	16.92	17.71
450.0	482.7	845.3	 1335	 2014	 3180	 4519	 5569	 5715	 4814	 3708	 3129	 3150	 3321	 3411	 3435	 3499	 3659	 3790	 3912	 3843	 3341	 2957	 3020	 3338	 3721	 4052	 4300	 4494	 4626	 4526	 4152	 3647	 3071	 2522	 2016	 1569	 1187	859.3	617.5	440.3	311.2	223.1	170.6	313.7	 1501	 5202	 7949	 3481	25.22	10.47	9.075	10.64	12.81	15.16	18.69	21.90	24.97	27.80	28.62	26.54	24.45	21.24	18.08	15.78	14.07	13.25	13.62	14.18	14.03	14.83	15.05	15.17	15.90	16.28	16.54	17.41	17.94
455.0	481.8	870.0	 1345	 2048	 3280	 4695	 5853	 5927	 4959	 3701	 3022	 3004	 3149	 3285	 3351	 3476	 3686	 3818	 3953	 3847	 3274	 2807	 2852	 3153	 3532	 3858	 4140	 4373	 4536	 4487	 4173	 3724	 3168	 2605	 2104	 1663	 1266	918.2	661.1	475.9	335.1	233.2	161.6	150.6	387.0	 1202	 2845	 8296	 2151	28.88	11.87	12.42	13.81	16.28	19.78	22.22	26.57	28.66	29.54	27.17	25.21	22.18	18.07	15.39	13.61	12.77	12.96	13.00	13.24	14.13	14.67	14.75	15.19	15.42	16.29	17.58	18.85
460.0	460.8	898.8	 1307	 2042	 3272	 4683	 5835	 5905	 4931	 3627	 2905	 2870	 3001	 3148	 3236	 3405	 3620	 3772	 3886	 3771	 3176	 2686	 2697	 2993	 3351	 3684	 3969	 4223	 4393	 4374	 4107	 3694	 3160	 2607	 2113	 1680	 1296	938.1	676.1	490.5	348.4	246.4	167.1	121.0	146.2	309.7	683.2	 3682	 8509	 1702	24.85	13.94	14.78	16.78	20.31	21.74	26.62	28.88	29.41	27.55	24.73	21.89	18.14	14.59	13.11	12.50	12.16	12.32	12.39	13.50	13.16	14.50	15.03	15.62	16.49	17.27	17.84
465.0	458.1	859.0	 1314	 2022	 3218	 4632	 5739	 5824	 4834	 3517	 2785	 2714	 2860	 2992	 3102	 3291	 3509	 3652	 3763	 3651	 3037	 2552	 2549	 2829	 3169	 3495	 3772	 4035	 4208	 4218	 3988	 3591	 3096	 2573	 2079	 1662	 1290	944.5	680.5	494.0	354.2	251.3	175.4	121.3	99.57	116.1	188.3	915.1	 5113	 7767	 1242	23.88	15.84	17.05	20.23	21.97	26.55	28.65	29.51	27.06	23.81	21.43	17.32	14.35	12.78	12.06	11.51	12.16	11.81	12.92	12.82	14.24	14.34	15.13	15.51	16.36	17.84
470.0	432.1	775.8	 1237	 1948	 3062	 4351	 5382	 5487	 4534	 3291	 2554	 2508	 2622	 2749	 2862	 3057	 3276	 3406	 3514	 3389	 2810	 2335	 2320	 2573	 2894	 3200	 3474	 3705	 3882	 3912	 3721	 3368	 2917	 2441	 1985	 1578	 1232	922.1	671.6	488.1	352.3	257.4	181.8	129.4	96.83	81.48	84.45	237.6	 1272	 4169	 6010	 2728	28.30	19.01	20.01	21.90	25.77	27.14	27.37	25.41	23.08	20.03	16.37	13.68	11.99	11.18	10.70	11.13	11.36	11.62	12.22	12.44	13.50	13.89	14.57	15.40	16.36
475.0	399.7	730.0	 1115	 1799	 2842	 3996	 4938	 5040	 4143	 3023	 2338	 2274	 2360	 2478	 2596	 2776	 2969	 3108	 3208	 3074	 2546	 2099	 2080	 2318	 2591	 2881	 3126	 3354	 3512	 3551	 3393	 3095	 2694	 2262	 1847	 1473	 1154	872.6	650.0	477.1	350.5	256.9	187.1	138.5	103.7	82.01	67.89	92.60	313.9	955.6	 2033	 6016	 2035	34.49	20.82	20.50	24.37	25.10	25.71	23.42	20.77	18.49	15.23	12.60	10.68	10.38	10.03	10.10	9.915	10.10	11.05	11.71	12.10	12.26	13.20	14.24	14.37
480.0	350.6	666.9	 1027	 1673	 2663	 3726	 4578	 4645	 3851	 2811	 2162	 2108	 2190	 2309	 2400	 2573	 2759	 2877	 2970	 2846	 2345	 1937	 1922	 2137	 2387	 2646	 2877	 3092	 3250	 3283	 3147	 2877	 2508	 2121	 1734	 1393	 1096	828.9	628.7	470.4	344.4	256.3	190.5	142.5	110.1	86.92	68.12	63.29	102.3	239.3	485.9	 2517	 6238	 1726	32.24	20.87	23.43	24.22	23.71	21.67	19.58	16.67	14.33	11.77	10.26	9.346	9.152	8.973	10.05	9.578	10.00	10.57	11.06	11.40	12.06	12.74	13.76
485.0	347.4	622.1	937.1	 1559	 2488	 3469	 4233	 4316	 3578	 2610	 2030	 1960	 2041	 2128	 2225	 2378	 2549	 2651	 2740	 2642	 2173	 1793	 1774	 1961	 2198	 2437	 2654	 2852	 2992	 3031	 2924	 2675	 2342	 1982	 1633	 1313	 1034	787.0	595.1	456.6	343.1	254.0	193.6	146.6	114.4	91.19	72.07	61.02	58.70	82.00	131.7	615.5	 3565	 6099	281.5	28.09	22.49	22.64	21.88	20.83	18.59	16.08	13.57	11.14	9.709	8.573	8.932	8.378	9.327	8.815	9.143	9.694	10.29	10.60	11.28	12.45	13.12
490.0	304.6	559.4	859.9	 1373	 2225	 3105	 3773	 3840	 3170	 2333	 1839	 1774	 1823	 1894	 1976	 2107	 2260	 2353	 2433	 2335	 1934	 1600	 1582	 1749	 1952	 2167	 2358	 2530	 2660	 2696	 2613	 2401	 2105	 1789	 1481	 1200	949.7	722.5	550.6	428.2	333.3	253.9	194.1	150.0	120.6	97.07	78.07	63.65	52.37	49.62	54.97	159.4	869.6	 2968	 4725	 2337	33.01	22.52	20.65	18.79	16.97	14.48	12.32	9.849	8.955	8.029	8.041	8.069	8.095	8.445	8.209	8.701	9.002	9.576	10.21	10.81	11.62
495.0	280.8	492.7	770.5	 1231	 1915	 2725	 3274	 3318	 2766	 2038	 1623	 1559	 1609	 1653	 1719	 1823	 1965	 2028	 2099	 2020	 1679	 1396	 1382	 1518	 1700	 1884	 2053	 2190	 2305	 2336	 2270	 2095	 1844	 1569	 1306	 1068	850.9	659.5	507.5	396.8	312.5	248.2	194.3	152.2	124.4	100.8	83.19	68.25	54.74	44.76	40.46	58.31	213.6	681.9	 1753	 5371	 2138	37.88	20.17	17.33	14.86	13.06	10.93	9.068	7.801	7.142	7.209	6.835	7.548	7.390	7.341	7.485	7.920	8.092	9.050	9.500	10.00
500.0	248.2	429.2	684.4	 1098	 1709	 2386	 2937	 2899	 2451	 1826	 1453	 1406	 1432	 1472	 1535	 1629	 1734	 1793	 1843	 1784	 1492	 1243	 1238	 1360	 1515	 1675	 1810	 1944	 2043	 2075	 2013	 1868	 1645	 1407	 1175	960.0	774.7	604.3	469.3	368.9	292.9	239.3	194.1	153.0	125.1	104.3	85.00	69.96	55.86	45.09	38.73	37.73	67.63	170.4	419.5	 2278	 5749	 1756	32.07	16.53	13.76	12.18	9.943	7.865	7.146	6.754	6.751	6.423	6.515	6.563	6.409	6.997	7.109	7.478	8.008	8.635	8.883
505.0	225.4	391.4	637.9	975.7	 1499	 2072	 2627	 2583	 2158	 1621	 1310	 1272	 1282	 1315	 1367	 1441	 1542	 1586	 1637	 1580	 1325	 1110	 1109	 1216	 1352	 1484	 1612	 1733	 1824	 1839	 1796	 1664	 1470	 1255	 1055	864.5	704.4	552.3	435.5	343.8	277.2	225.9	187.7	151.0	124.0	104.1	86.18	72.07	57.03	45.43	37.85	33.36	35.71	56.56	110.3	555.6	 3154	 5476	300.8	24.03	13.15	11.23	9.497	7.523	6.588	6.085	6.017	5.938	6.176	5.984	5.869	6.493	6.244	6.767	7.158	7.125	7.762
510.0	169.6	333.9	530.5	828.3	 1270	 1745	 2152	 2201	 1823	 1369	 1123	 1094	 1113	 1130	 1158	 1217	 1295	 1337	 1379	 1328	 1118	948.4	949.4	 1040	 1149	 1260	 1368	 1463	 1533	 1560	 1521	 1411	 1253	 1077	908.4	749.5	611.5	487.5	389.3	312.7	252.5	207.3	175.3	148.2	123.1	102.6	84.76	71.20	57.65	47.46	39.08	32.61	29.55	31.15	41.92	139.6	767.0	 2635	 3861	 1286	26.87	10.81	8.299	6.970	6.217	5.175	5.396	5.132	5.030	5.171	5.016	5.396	5.556	5.618	5.883	6.254	6.534
515.0	158.9	275.8	439.1	687.0	 1035	 1413	 1725	 1812	 1547	 1152	953.5	928.6	943.2	952.4	970.9	 1006	 1062	 1096	 1138	 1098	928.5	797.0	797.2	870.1	960.4	 1050	 1139	 1211	 1268	 1291	 1264	 1172	 1049	901.2	766.4	637.5	521.8	421.0	340.5	278.4	228.3	190.6	159.1	140.1	120.3	101.3	83.82	69.98	58.54	47.07	39.49	33.13	28.36	25.21	26.02	46.02	184.7	601.4	 1309	 3935	 1992	31.46	8.243	6.508	5.331	4.675	4.618	4.292	4.111	4.423	4.333	4.525	4.645	4.554	4.876	5.073	5.396
520.0	143.7	242.5	374.6	598.8	880.6	 1203	 1469	 1545	 1372	 1016	845.5	817.4	820.8	826.2	846.1	879.6	919.5	950.5	975.8	945.7	808.5	695.0	696.3	758.3	834.9	915.3	981.8	 1048	 1100	 1120	 1095	 1016	910.1	783.3	669.6	560.1	464.3	378.7	307.7	255.3	210.6	177.1	147.4	131.1	116.8	100.3	82.11	69.36	56.97	46.30	39.37	33.25	27.63	24.47	22.41	24.76	54.84	146.2	309.7	 1686	 4307	 1437	22.60	6.218	4.757	4.365	4.439	4.118	3.910	3.859	3.896	4.117	3.901	4.361	4.323	4.720	5.050
525.0	129.2	214.7	336.1	498.6	779.5	 1060	 1267	 1311	 1219	932.0	749.1	724.7	721.5	732.4	745.6	773.7	799.5	826.9	849.8	826.9	711.3	614.4	617.6	676.4	737.0	801.8	862.3	916.7	960.9	982.0	957.1	890.1	793.8	690.4	590.9	496.6	418.2	338.7	280.6	231.1	194.5	165.3	139.4	121.2	109.4	98.03	82.32	67.84	56.10	45.52	39.10	33.27	27.96	23.88	20.99	20.00	25.13	44.67	79.73	408.8	 2270	 3905	284.1	13.67	5.155	4.486	4.167	3.729	3.650	3.518	3.274	3.386	3.423	3.753	3.701	4.339	4.447
530.0	110.6	179.3	273.9	414.1	647.5	865.5	 1045	 1061	986.1	859.1	664.8	622.2	618.4	620.3	619.6	639.3	668.9	687.9	706.3	686.4	595.3	520.4	525.5	569.3	620.6	669.0	721.7	765.7	802.4	816.8	799.0	745.6	667.1	583.7	502.5	424.5	357.8	293.7	246.5	205.2	174.1	148.4	128.6	112.2	100.0	89.90	79.33	66.54	53.40	44.01	37.84	32.62	26.99	23.70	20.72	18.41	18.16	21.29	27.65	99.87	544.6	 1871	 2396	 1163	20.66	4.689	3.941	3.200	3.164	3.202	2.822	2.983	3.257	3.214	3.151	3.426	3.669
535.0	96.75	136.4	222.5	356.7	534.9	711.3	830.1	848.1	767.7	731.0	650.7	528.8	519.9	516.1	515.2	526.5	547.7	560.3	579.0	561.3	488.8	431.6	433.6	473.0	512.0	553.5	595.3	631.3	653.4	669.2	658.8	611.4	552.3	482.5	418.4	356.5	303.0	253.6	212.8	179.4	154.1	132.5	115.6	101.1	91.67	81.29	74.28	64.37	51.92	42.92	35.88	30.84	26.11	23.17	19.93	18.31	16.74	15.24	15.85	30.16	128.1	424.1	839.7	 2826	 1677	26.98	4.317	3.224	2.929	2.773	2.771	2.535	2.756	2.741	2.921	2.777	2.855
540.0	75.39	127.4	204.1	300.1	452.5	604.3	695.3	713.8	647.8	600.4	645.6	489.9	454.2	451.8	445.3	453.3	473.9	478.2	490.5	480.4	421.8	374.7	377.2	408.9	442.8	478.9	512.9	545.2	563.2	578.8	566.1	530.1	474.6	418.8	364.4	312.9	266.2	226.2	189.5	163.1	141.7	122.2	106.7	93.52	84.37	75.62	68.30	61.72	51.46	40.92	34.72	29.86	25.09	22.14	19.24	17.70	15.73	13.83	12.53	14.69	34.92	99.93	197.1	 1177	 3096	303.9	18.93	3.556	2.933	2.821	2.681	2.430	2.268	2.386	2.317	2.405	2.402
545.0	61.06	115.5	174.0	256.7	390.5	509.9	594.5	615.6	557.7	487.9	575.0	510.6	402.4	396.0	388.9	397.6	409.8	419.1	426.4	416.8	368.5	327.6	336.3	358.3	389.8	415.7	448.3	474.6	488.9	501.1	493.2	457.2	416.2	369.3	320.6	278.4	236.4	199.8	170.8	147.3	128.2	112.0	99.11	87.86	78.64	71.63	62.37	56.98	49.90	40.09	33.75	28.40	24.40	21.20	18.45	16.88	14.69	13.05	11.17	10.67	14.27	27.79	48.90	283.4	 1607	 2441	271.7	9.755	3.065	2.303	2.508	2.477	2.220	2.183	1.956	2.087	2.389
550.0	62.23	97.74	143.1	214.3	313.1	418.5	493.4	502.3	453.1	393.1	424.5	525.5	381.0	332.7	327.9	333.7	336.8	344.5	352.0	343.2	304.2	275.4	281.4	300.2	325.0	348.9	370.6	391.7	405.0	415.5	408.5	380.2	345.5	309.8	268.6	232.6	201.5	171.7	148.4	129.7	112.4	99.70	87.65	78.56	71.99	65.20	56.86	49.83	44.84	38.54	31.93	26.84	22.40	20.18	17.31	15.91	13.96	12.07	10.57	9.470	9.300	11.55	15.51	67.27	385.2	 1242	 1938	865.7	18.41	2.656	2.316	2.219	1.992	1.911	1.778	1.781	1.981
555.0	42.79	85.20	112.4	168.8	252.3	330.4	387.7	394.4	363.5	315.1	303.6	415.7	430.6	283.0	264.8	268.0	269.5	277.8	282.7	273.7	249.0	223.0	226.9	244.1	263.3	280.4	297.8	312.8	323.8	330.7	326.6	308.5	277.9	248.0	218.6	190.0	167.2	143.7	125.7	109.5	95.73	86.74	76.07	69.54	62.98	56.76	50.41	44.01	38.54	34.69	30.59	25.26	20.81	18.66	16.05	14.63	12.85	11.55	9.731	8.787	7.648	7.492	7.509	18.72	89.24	280.6	638.6	 1951	 1193	24.87	2.328	2.003	1.853	1.766	1.645	1.396	1.471
560.0	33.72	72.02	93.47	135.5	195.1	271.7	318.3	336.5	290.6	260.6	251.4	305.5	435.7	281.2	227.5	225.8	226.7	233.1	235.0	229.8	208.2	188.4	193.6	204.7	218.4	235.3	248.7	260.3	273.8	275.4	272.3	258.8	233.8	209.5	184.9	161.2	141.6	124.4	107.1	94.45	84.11	75.08	67.26	60.60	55.89	51.09	45.46	40.40	33.80	30.66	27.79	24.41	19.59	16.93	14.81	13.54	11.87	11.21	9.488	8.157	6.682	6.093	5.493	7.266	22.82	65.26	148.3	793.3	 2081	303.9	14.93	2.128	1.915	1.597	1.361	1.316	1.509
565.0	23.37	57.85	81.47	119.8	169.5	226.4	260.2	272.8	248.8	218.9	212.6	226.6	356.5	328.7	195.9	187.2	191.2	195.1	199.7	193.3	175.0	160.8	163.3	173.9	185.8	200.7	209.3	219.6	229.0	230.8	228.2	215.8	196.7	176.7	155.6	139.0	121.1	105.2	92.69	81.49	73.82	66.30	58.74	53.58	49.35	45.77	39.68	35.57	30.88	26.86	24.98	22.17	17.66	15.29	13.67	12.55	11.21	10.03	8.736	7.338	6.476	5.589	4.704	4.827	8.050	17.27	35.45	189.8	 1055	 1720	242.9	5.784	1.556	1.428	1.144	1.103	1.110
570.0	27.72	39.97	62.43	94.85	130.1	175.1	198.9	210.3	191.1	174.5	173.5	174.8	231.9	338.6	199.1	149.3	147.6	152.7	153.5	149.7	138.4	126.0	127.6	136.1	145.8	156.6	164.0	170.9	177.5	180.6	177.9	167.2	153.7	137.8	123.1	109.0	96.43	83.83	74.46	66.71	59.69	54.07	48.55	44.56	41.10	37.98	33.91	29.97	25.61	22.40	20.27	18.68	16.31	13.39	12.15	10.86	9.536	8.615	7.349	6.667	5.624	5.082	4.407	4.014	4.322	6.408	10.08	44.60	250.9	819.3	 1201	515.4	16.17	1.552	1.220	0.921	1.172
575.0	19.05	35.88	47.64	71.00	100.5	124.8	142.1	150.0	147.5	135.5	133.0	138.2	149.5	231.5	287.7	121.9	112.7	114.7	115.7	112.5	105.5	96.62	97.95	103.2	111.5	119.3	123.2	126.9	133.2	134.1	133.5	126.2	114.5	103.4	93.41	81.96	73.55	64.97	56.32	52.33	46.51	42.85	38.24	36.58	32.83	30.58	26.65	24.08	20.83	18.06	15.89	14.84	13.45	12.22	10.48	9.344	8.430	7.600	6.341	5.531	4.946	4.451	3.657	3.480	3.247	3.497	4.296	11.61	57.40	184.8	389.7	 1119	312.2	20.24	1.329	0.890	0.968
580.0	16.22	28.99	39.62	62.27	82.70	100.5	115.4	119.6	118.7	113.5	111.7	116.7	114.8	155.2	298.5	152.3	91.15	90.08	92.00	92.01	84.24	78.12	79.79	82.96	89.36	95.43	98.19	102.0	105.3	108.1	106.4	101.3	92.94	83.72	75.10	66.30	59.81	53.40	47.64	43.16	38.72	35.87	32.74	30.38	27.76	25.69	22.48	21.01	17.73	15.43	13.98	12.69	11.26	10.97	9.198	8.183	6.976	6.465	5.852	5.329	4.348	4.053	3.432	3.111	2.844	2.573	2.564	4.035	14.38	42.56	101.4	453.9	 1070	269.9	9.325	1.083	0.948
585.0	11.90	24.99	35.03	50.01	66.60	82.20	88.28	100.2	92.59	92.89	96.98	98.63	94.61	109.0	220.5	228.1	76.11	73.93	75.61	76.11	69.84	64.83	66.95	69.08	74.42	78.09	80.10	84.15	85.76	88.28	87.66	84.20	75.60	68.65	61.70	54.10	50.24	44.88	40.44	37.18	32.95	30.24	27.75	25.87	23.44	22.07	20.08	18.05	15.17	13.63	11.67	10.76	9.451	9.487	8.615	7.700	6.165	6.060	5.159	4.507	4.090	3.488	3.081	2.836	2.450	2.194	2.290	2.423	4.741	10.84	26.76	108.7	562.7	947.0	193.6	3.209	0.682
590.0	7.703	19.70	28.53	42.44	54.31	64.95	71.84	77.79	76.67	75.98	79.35	82.93	82.19	82.01	123.4	241.6	117.2	58.35	59.28	58.19	53.97	51.55	52.55	55.09	58.20	60.37	62.45	65.76	67.73	68.90	68.25	64.90	59.56	54.03	48.42	43.54	39.59	36.12	32.65	29.43	26.51	24.39	22.44	20.81	19.71	17.75	16.27	14.52	12.50	11.34	9.775	8.940	7.821	7.619	7.281	7.045	5.672	5.068	4.443	3.783	3.622	2.965	2.746	2.518	2.455	1.953	1.871	1.940	2.164	3.647	7.010	25.27	134.1	440.5	670.8	179.1	13.96
595.0	4.237	14.37	24.11	35.04	46.51	45.62	57.01	56.62	61.19	61.25	66.51	71.29	72.71	69.80	70.12	143.7	234.8	54.90	45.92	44.89	42.29	39.91	40.14	42.41	43.87	46.71	49.01	51.11	52.48	52.97	52.28	48.97	44.93	40.95	37.83	33.64	30.19	27.18	25.53	22.31	21.37	19.15	17.66	16.64	15.94	14.33	13.04	11.65	10.38	8.903	8.276	7.281	6.301	5.961	5.576	5.499	5.323	4.289	3.849	3.305	3.007	2.710	2.457	2.150	2.194	1.982	1.501	1.462	1.377	1.698	2.489	6.405	30.74	99.14	213.8	581.8	293.6
600.0	10.55	14.19	21.85	28.80	38.35	40.55	46.76	45.64	52.35	51.19	57.09	64.65	66.48	59.92	55.45	80.29	242.6	103.8	37.08	36.69	33.35	33.18	32.81	35.44	36.99	38.46	39.66	42.27	42.54	42.41	42.74	40.70	36.91	34.83	31.23	28.08	25.47	22.55	21.15	18.95	17.73	16.31	15.15	14.25	13.47	12.03	11.01	10.22	8.676	7.913	7.085	6.182	5.568	5.225	4.597	4.946	4.874	4.074	3.373	2.936	2.652	2.542	2.495	2.008	1.989	1.581	1.452	1.286	1.302	1.080	1.484	2.277	7.599	22.85	49.63	237.2	617.7
605.0	5.303	8.289	23.18	29.02	32.27	34.34	38.61	43.68	41.95	46.40	54.42	63.08	60.18	59.12	49.07	49.57	162.1	203.3	33.14	30.05	28.93	26.69	27.65	30.00	31.04	32.81	33.03	35.60	35.08	35.75	35.58	34.38	31.13	28.72	25.92	23.37	22.00	19.85	17.80	16.72	15.27	13.99	13.15	12.43	11.41	10.41	9.574	8.401	7.566	6.784	5.983	5.203	5.047	4.411	3.916	4.268	4.063	3.541	3.185	2.506	2.521	2.231	2.288	1.803	1.493	1.603	1.426	1.319	1.258	1.198	1.192	1.151	2.427	5.757	11.73	56.81	310.9
610.0	5.056	18.28	21.47	28.78	28.55	29.01	29.89	32.36	36.02	41.49	49.61	57.14	57.66	54.56	44.97	34.84	75.18	231.5	86.68	24.53	23.20	22.67	22.06	23.83	25.05	25.50	26.43	27.16	28.74	28.67	27.90	26.72	24.69	22.61	20.64	18.99	17.09	15.53	14.16	13.00	12.21	11.09	10.26	9.743	9.009	8.654	7.673	6.898	6.475	5.523	5.177	4.469	4.273	3.668	3.488	3.135	3.301	3.111	2.836	2.429	2.037	1.741	1.763	1.439	1.350	1.407	1.234	1.264	1.020	1.078	0.837	0.946	1.120	1.978	3.238	13.20	73.98
615.0	12.43	7.371	20.20	24.48	25.20	21.34	24.13	25.53	31.89	35.15	42.96	49.32	55.26	51.00	41.91	29.37	35.62	120.9	243.8	30.78	18.16	17.33	18.09	18.25	19.35	19.62	20.15	20.69	22.57	22.35	22.26	20.76	19.17	17.64	15.79	14.32	13.36	12.51	11.35	10.12	9.388	8.743	8.269	7.743	7.534	6.855	6.059	5.757	4.899	4.526	4.345	3.651	3.358	3.054	2.831	2.630	2.757	2.527	2.614	2.030	1.680	1.752	1.493	1.323	1.087	1.371	1.018	1.042	0.926	0.993	0.673	0.735	0.768	0.887	1.291	3.222	16.87
620.0	9.862	8.154	15.97	22.78	23.81	20.01	17.89	23.41	27.84	33.38	38.79	46.14	50.64	48.25	38.29	26.70	23.81	57.27	262.9	91.27	16.50	14.41	15.48	15.17	15.50	16.30	16.78	17.06	18.54	17.96	18.30	16.85	15.96	14.37	12.96	12.04	11.15	10.41	8.654	8.615	7.595	7.467	7.150	6.278	6.242	5.894	5.265	4.498	4.020	3.794	3.519	2.967	2.954	2.485	2.208	2.242	2.075	1.828	2.253	2.071	1.507	1.460	1.203	1.235	0.961	1.236	1.075	1.029	0.860	0.866	0.619	0.816	0.508	0.735	0.764	1.119	4.184
625.0	10.84	9.674	18.74	24.00	22.63	17.56	18.79	23.22	26.53	26.06	38.17	42.77	47.32	45.76	36.67	25.51	20.24	28.69	165.1	233.6	16.03	12.44	13.36	13.44	13.49	13.46	14.55	14.59	15.87	14.89	15.00	13.10	13.21	11.69	11.08	10.36	8.952	8.586	7.611	7.562	6.710	6.070	5.679	5.464	4.989	4.950	4.486	3.916	3.466	3.133	2.856	2.785	2.278	2.033	1.964	1.820	1.913	1.747	1.723	1.792	1.562	1.218	1.146	0.994	0.929	1.026	1.021	0.754	0.796	0.770	0.875	0.732	0.503	0.521	0.543	0.511	1.191
630.0	9.911	12.83	16.68	18.95	20.51	15.37	15.95	17.45	20.84	25.56	35.28	40.18	43.07	44.01	35.79	24.80	19.68	20.31	65.54	276.8	114.9	10.80	10.73	11.34	10.83	11.64	11.73	11.94	12.08	12.04	12.20	11.17	10.48	9.363	8.791	7.904	7.251	6.810	5.898	5.756	5.260	4.816	4.403	4.353	3.963	3.945	3.609	3.225	2.932	2.687	2.360	2.223	1.857	1.901	1.754	1.603	1.428	1.482	1.329	1.442	1.371	1.099	1.061	0.913	0.855	0.867	0.979	0.685	0.677	0.720	0.760	0.578	0.493	0.413	0.516	0.361	0.478
635.0	-0.363	16.69	15.15	17.41	20.34	12.86	11.65	15.59	22.03	23.99	33.41	38.77	46.94	42.63	36.09	24.84	20.20	18.64	25.36	129.9	319.0	23.31	9.218	8.649	9.056	9.028	9.168	9.245	9.667	9.566	9.536	8.771	8.011	6.926	7.106	5.964	5.995	5.198	4.481	4.463	3.886	3.844	3.530	3.563	3.124	3.158	2.675	2.558	2.241	2.188	1.992	1.874	1.542	1.624	1.349	1.323	1.179	1.136	1.033	1.185	1.251	1.144	0.809	0.739	0.639	0.565	0.773	0.747	0.760	0.597	0.599	0.533	0.448	0.553	0.433	0.410	0.550
640.0	-0.727	15.96	16.75	16.46	22.17	11.10	11.60	16.55	22.62	23.11	32.10	36.52	45.30	42.68	34.86	25.93	20.36	17.20	16.71	52.78	348.8	85.17	7.665	7.647	7.507	7.408	7.609	8.025	8.205	7.688	7.981	7.180	6.621	6.173	5.495	5.397	4.669	4.684	3.656	3.744	3.131	3.207	2.925	2.886	2.629	2.684	2.236	2.032	2.047	1.903	1.617	1.409	1.400	1.434	1.184	1.062	1.108	0.998	0.976	1.080	0.960	0.955	0.948	0.705	0.493	0.540	0.753	0.489	0.548	0.547	0.469	0.457	0.497	0.422	0.291	0.255	0.384
645.0	7.277	7.477	17.33	17.63	21.90	12.29	10.70	13.57	18.35	22.66	34.24	39.16	43.38	42.86	35.48	26.25	20.53	17.87	13.52	23.40	212.3	289.3	10.25	6.989	6.897	6.970	6.601	7.323	7.107	6.845	6.659	5.892	5.975	5.052	4.772	4.325	3.969	3.983	3.360	2.974	2.619	2.511	2.516	2.421	2.225	2.060	1.786	1.652	1.844	1.564	1.373	1.209	1.274	1.152	1.146	0.925	1.178	1.004	0.947	0.661	0.870	0.748	0.939	0.868	0.517	0.514	0.561	0.617	0.693	0.564	0.556	0.597	0.492	0.431	0.498	0.335	0.312
650.0	4.975	8.581	16.93	16.63	16.70	12.08	14.90	15.69	19.88	24.96	29.34	38.01	44.47	42.74	38.65	28.81	21.29	18.28	15.04	14.90	90.35	407.3	54.23	6.508	6.106	5.395	6.093	5.928	6.049	6.056	5.894	5.318	4.803	4.437	3.996	3.880	3.224	3.404	2.919	2.845	2.532	2.199	2.139	1.999	1.782	1.921	1.585	1.491	1.441	1.343	1.217	1.019	0.986	0.878	0.765	0.939	0.803	0.865	0.846	0.746	0.647	0.642	0.766	0.834	0.654	0.457	0.557	0.559	0.562	0.447	0.608	0.426	0.273	0.447	0.448	0.383	0.220
