Sample:	'1
File name:	Default_20230105_142016.FD3
Run date:	'14:13:55, 01/05/2023
Operator:	dsjg
Comment:	'

Instrument
Model:	F-2700 FL Spectrophotometer
Serial number:	2198-001
ROM Version:	4J14000 07

Instrument parameters
Measurement type:	3-D scan
Data mode:	Fluorescence
EX  Start WL:	220.0 nm
EX  End WL:	600.0 nm
EX Sampling interval:	5.0 nm
EM  Start WL:	230.0 nm
EM  End WL:	650.0 nm
EM Sampling interval:	5.0 nm
Scan speed:	12000 nm/min
EX Slit:	5.0 nm
EM Slit:	5.0 nm
PMT Voltage:	700 V
Response:	Auto 
Corrected spectra:	Off
Contour interval:	50.000

Peak integration
Integration method:	Rectangular
Sensitivity:	1
Threshold:	1.000

Peaks
No.	ApexEX/EM(nm)	Height(Data)
1	225.0/305.0	101.3
2	225.0/580.0	12.33
3	225.0/640.0	7.028
4	230.0/345.0	312.4
5	230.0/505.0	101.7
6	235.0/515.0	92.59
7	240.0/385.0	300.1
8	240.0/525.0	81.70
9	245.0/390.0	294.0
10	245.0/540.0	71.14
11	250.0/410.0	285.9
12	250.0/550.0	57.68
13	255.0/430.0	266.5
14	255.0/560.0	48.18
15	260.0/575.0	37.48
16	265.0/295.0	241.6
17	265.0/585.0	33.26
18	270.0/300.0	319.2
19	270.0/400.0	267.1
20	270.0/595.0	28.17
21	275.0/305.0	371.6
22	275.0/610.0	26.41
23	280.0/310.0	342.2
24	280.0/340.0	258.9
25	280.0/385.0	274.3
26	280.0/620.0	21.94
27	285.0/320.0	352.2
28	285.0/630.0	17.58
29	290.0/325.0	354.4
30	295.0/330.0	298.5
31	300.0/335.0	293.2
32	305.0/340.0	257.5
33	310.0/350.0	217.7
34	315.0/355.0	205.7
35	320.0/360.0	202.3
36	325.0/370.0	183.0
37	330.0/375.0	178.0
38	335.0/380.0	188.3
39	345.0/395.0	149.1
40	350.0/400.0	157.4
41	355.0/405.0	154.5
42	365.0/420.0	114.3
43	370.0/425.0	110.2
44	380.0/440.0	79.47
45	385.0/445.0	69.06
46	400.0/465.0	41.81
47	415.0/485.0	23.64
48	420.0/490.0	19.38
49	430.0/505.0	14.20
50	435.0/510.0	11.38
51	440.0/515.0	9.995
52	445.0/525.0	8.775
53	455.0/540.0	5.976
54	460.0/545.0	4.964
55	470.0/560.0	3.197
56	535.0/270.0	30.85
57	540.0/295.0	1.843
58	545.0/300.0	2.034
59	550.0/305.0	2.110
60	560.0/310.0	2.124
61	570.0/315.0	2.164
62	575.0/290.0	37.75
63	575.0/320.0	2.189
64	580.0/325.0	2.183

Data points
	220.0	225.0	230.0	235.0	240.0	245.0	250.0	255.0	260.0	265.0	270.0	275.0	280.0	285.0	290.0	295.0	300.0	305.0	310.0	315.0	320.0	325.0	330.0	335.0	340.0	345.0	350.0	355.0	360.0	365.0	370.0	375.0	380.0	385.0	390.0	395.0	400.0	405.0	410.0	415.0	420.0	425.0	430.0	435.0	440.0	445.0	450.0	455.0	460.0	465.0	470.0	475.0	480.0	485.0	490.0	495.0	500.0	505.0	510.0	515.0	520.0	525.0	530.0	535.0	540.0	545.0	550.0	555.0	560.0	565.0	570.0	575.0	580.0	585.0	590.0	595.0	600.0
230.0	93.42	 1506	 3547	315.9	7.691	2.648	2.315	1.902	1.866	1.615	1.505	1.257	1.177	0.892	0.805	0.741	0.655	0.710	0.600	0.581	0.552	0.562	0.565	0.571	0.511	0.519	0.433	0.423	0.407	0.391	0.424	0.353	0.360	0.364	0.344	0.437	0.369	0.347	0.309	0.282	0.305	0.294	0.255	0.251	0.217	0.229	0.479	2.230	5.972	5.652	2.370	0.447	0.168	0.151	0.121	0.120	0.132	0.095	0.079	0.080	0.072	0.060	0.046	0.049	0.050	0.042	0.035	0.039	0.032	0.026	0.024	0.001	0.022	0.003	0.001	0.002	-0.007
235.0	36.57	495.1	 3526	 2567	340.6	9.044	3.464	2.476	2.364	1.744	1.916	1.561	1.527	1.136	1.143	0.701	0.672	0.655	0.483	0.535	0.609	0.494	0.625	0.575	0.567	0.526	0.517	0.378	0.380	0.475	0.351	0.345	0.310	0.361	0.306	0.350	0.394	0.323	0.312	0.315	0.279	0.302	0.242	0.243	0.353	0.272	0.325	0.676	2.058	4.392	7.770	9.177	4.575	0.744	0.137	0.130	0.124	0.115	0.104	0.106	0.060	0.052	0.038	0.048	0.038	0.051	0.040	0.049	0.025	0.023	0.056	-0.009	0.025	-0.008	-0.011	0.013	-0.016
240.0	42.31	132.9	 1304	 3001	 2750	261.2	6.434	3.459	3.467	2.463	2.158	1.544	1.396	1.160	1.033	0.793	0.731	0.975	0.644	0.635	0.759	0.592	0.543	0.553	0.599	0.516	0.587	0.406	0.356	0.457	0.378	0.367	0.275	0.384	0.306	0.345	0.281	0.359	0.407	0.325	0.307	0.321	0.326	0.290	0.334	0.392	0.354	0.335	0.637	1.369	3.887	9.774	13.59	10.64	3.462	0.482	0.134	0.076	0.118	0.098	0.112	0.088	0.051	0.048	0.066	0.043	0.052	0.043	0.041	0.039	0.053	-0.008	0.027	0.004	-0.010	0.002	-0.009
245.0	50.71	81.99	325.5	 1384	 4068	 2295	169.5	5.781	3.753	2.974	3.212	2.112	1.576	1.182	1.084	1.058	0.807	0.863	0.764	0.750	0.694	0.693	0.655	0.551	0.540	0.595	0.598	0.533	0.426	0.441	0.435	0.402	0.328	0.365	0.331	0.388	0.244	0.318	0.364	0.352	0.309	0.350	0.276	0.247	0.234	0.376	0.490	0.402	0.408	0.449	1.040	3.475	8.732	15.95	16.63	9.429	1.937	0.142	0.101	0.113	0.095	0.115	0.065	0.049	0.072	0.060	0.071	0.057	0.055	0.045	0.031	-0.011	0.053	0.018	-0.010	0.004	-0.006
250.0	28.03	75.91	158.5	356.2	 1651	 3372	 3186	824.2	33.64	4.621	4.428	2.699	2.218	1.586	1.376	1.288	1.141	1.052	0.729	0.683	0.819	0.631	0.642	0.594	0.593	0.620	0.561	0.495	0.515	0.492	0.453	0.514	0.338	0.350	0.322	0.324	0.276	0.339	0.321	0.347	0.339	0.312	0.318	0.252	0.254	0.302	0.346	0.448	0.536	0.507	0.510	0.942	2.263	5.229	9.806	14.56	18.89	15.34	8.415	2.227	0.256	0.122	0.088	0.085	0.058	0.074	0.071	0.073	0.040	0.066	0.027	0.015	0.034	0.003	0.003	-0.002	0.010
255.0	16.69	34.39	118.0	189.5	398.0	 1003	 3638	 5028	 1311	24.37	6.018	4.710	3.048	2.366	1.770	1.419	1.173	1.109	0.766	0.761	0.783	0.792	0.659	0.743	0.575	0.578	0.678	0.534	0.545	0.558	0.564	0.480	0.419	0.370	0.378	0.268	0.278	0.317	0.308	0.316	0.329	0.314	0.346	0.280	0.277	0.323	0.275	0.355	0.255	0.482	0.679	0.834	0.866	1.303	2.344	3.605	7.336	16.04	27.68	25.00	14.09	2.466	0.179	0.140	0.077	0.098	0.092	0.057	0.054	0.057	0.021	0.037	0.027	0.009	0.003	-0.005	0.014
260.0	14.14	17.69	54.20	159.7	177.9	246.9	 1321	 5044	 6890	213.2	15.04	5.879	4.724	2.770	2.085	1.806	1.448	1.184	0.851	1.084	0.972	0.782	0.724	0.732	0.564	0.563	0.677	0.764	0.586	0.646	0.579	0.453	0.496	0.387	0.373	0.331	0.276	0.299	0.229	0.308	0.291	0.375	0.346	0.361	0.314	0.282	0.279	0.268	0.243	0.333	0.420	0.885	1.074	0.734	0.754	1.042	1.820	4.554	12.60	26.31	37.09	22.96	9.613	1.039	0.145	0.085	0.086	0.092	0.073	0.090	0.078	0.038	0.035	0.018	0.029	0.021	0.009
265.0	15.47	14.92	22.32	93.71	185.3	115.0	323.6	 2033	 8214	 4610	174.4	8.370	5.813	3.829	2.530	2.124	1.718	1.303	1.152	1.177	1.001	0.771	0.762	0.828	0.777	0.664	0.619	0.602	0.612	0.653	0.524	0.466	0.536	0.375	0.356	0.369	0.313	0.289	0.286	0.256	0.250	0.349	0.327	0.370	0.323	0.286	0.270	0.270	0.244	0.254	0.242	0.474	0.964	1.095	0.853	0.584	0.602	1.143	3.085	8.250	21.08	36.64	28.55	19.99	5.086	0.295	0.099	0.117	0.064	0.076	0.092	0.047	0.047	0.032	0.024	0.016	0.030
270.0	21.71	20.69	19.13	34.15	109.6	165.1	150.9	498.1	 2839	 5368	 6588	 1876	42.14	5.482	3.895	3.074	2.117	1.702	1.475	1.376	1.158	1.030	0.910	0.888	0.800	0.785	0.728	0.654	0.571	0.665	0.609	0.590	0.530	0.462	0.407	0.390	0.366	0.335	0.325	0.263	0.279	0.253	0.318	0.342	0.317	0.334	0.286	0.281	0.263	0.249	0.246	0.267	0.404	0.592	0.833	0.910	0.892	0.722	0.934	2.005	5.111	11.07	17.30	30.85	30.18	30.43	13.12	5.411	0.343	0.116	0.082	0.089	0.090	0.077	0.060	0.053	0.040
275.0	38.35	40.99	33.57	23.12	38.51	98.16	205.5	209.8	661.2	 1455	 5225	 7950	 1121	45.35	6.135	4.355	3.323	2.386	1.767	1.779	1.424	0.991	1.015	1.001	0.953	0.909	0.758	0.676	0.760	0.724	0.680	0.683	0.626	0.466	0.412	0.427	0.428	0.417	0.356	0.259	0.329	0.299	0.301	0.329	0.403	0.470	0.447	0.432	0.308	0.378	0.262	0.248	0.275	0.293	0.374	0.478	0.893	1.319	1.172	0.881	1.325	2.661	4.118	7.353	10.50	24.60	43.49	50.15	19.99	4.417	0.232	0.139	0.119	0.113	0.047	0.081	0.087
280.0	49.19	58.89	47.87	27.12	22.37	43.54	153.1	230.5	217.1	360.3	 1675	 5994	 7693	863.3	20.94	5.559	3.992	2.954	2.301	2.204	1.778	1.334	1.201	1.208	1.022	0.910	0.798	0.866	0.720	0.696	0.802	0.694	0.645	0.562	0.519	0.516	0.482	0.415	0.347	0.265	0.344	0.275	0.295	0.357	0.349	0.386	0.436	0.468	0.412	0.382	0.301	0.299	0.281	0.284	0.240	0.334	0.499	0.833	1.381	1.381	0.985	0.885	1.161	1.883	2.599	6.688	16.99	38.72	53.77	29.51	13.62	1.317	0.164	0.093	0.077	0.089	0.058
285.0	65.61	78.75	60.26	35.87	22.60	25.69	76.13	204.5	215.3	133.8	423.5	 2101	 6911	 6966	104.8	9.898	5.137	3.701	3.145	2.360	1.931	1.662	1.384	1.233	1.193	1.066	0.892	0.928	0.793	0.807	0.652	0.743	0.593	0.626	0.560	0.493	0.493	0.390	0.322	0.345	0.307	0.297	0.265	0.296	0.367	0.429	0.510	0.453	0.523	0.433	0.378	0.340	0.315	0.230	0.231	0.329	0.305	0.494	0.740	1.370	1.517	1.213	0.749	0.715	0.844	1.804	4.205	11.52	26.16	46.57	57.37	24.90	6.426	0.262	0.131	0.076	0.064
290.0	72.86	88.23	74.37	43.40	27.73	25.62	42.52	102.4	211.9	211.7	175.5	527.5	 2184	 5366	 6294	 2349	30.77	5.903	4.090	3.301	2.437	1.896	1.723	1.524	1.288	1.210	1.098	1.042	0.965	0.758	0.774	0.729	0.639	0.546	0.603	0.514	0.505	0.431	0.433	0.403	0.330	0.319	0.310	0.334	0.375	0.431	0.466	0.517	0.520	0.477	0.395	0.368	0.320	0.285	0.297	0.280	0.287	0.345	0.399	0.648	0.932	1.329	1.448	1.278	0.827	0.754	1.274	2.908	6.388	13.61	25.75	37.75	34.83	37.91	13.96	4.765	0.232
295.0	80.25	94.63	79.67	51.61	36.12	32.73	41.10	60.29	114.3	241.6	230.7	198.8	539.7	 1351	 3528	 8556	 3338	35.69	6.226	4.083	3.474	2.416	2.323	1.654	1.643	1.421	1.241	1.165	1.042	0.912	0.898	0.783	0.718	0.718	0.513	0.527	0.558	0.452	0.500	0.453	0.331	0.353	0.315	0.390	0.401	0.408	0.432	0.489	0.555	0.563	0.464	0.373	0.336	0.345	0.399	0.401	0.356	0.382	0.351	0.465	0.544	0.688	0.948	1.493	1.843	1.307	0.787	1.015	1.715	3.291	6.063	9.104	11.74	27.87	53.98	63.32	20.10
300.0	83.91	95.64	82.56	60.47	44.64	44.35	52.75	65.79	92.42	182.2	319.2	206.9	200.9	360.3	 1060	 5174	 8976	556.6	21.57	5.959	4.576	3.432	2.569	2.079	1.767	1.592	1.304	1.231	1.208	1.020	0.904	0.806	0.884	0.814	0.669	0.666	0.537	0.489	0.460	0.419	0.348	0.388	0.350	0.359	0.365	0.443	0.482	0.539	0.550	0.514	0.485	0.449	0.442	0.379	0.358	0.335	0.442	0.430	0.427	0.483	0.554	0.598	0.705	0.933	1.634	2.034	1.724	0.987	0.863	1.125	1.738	2.353	3.073	7.580	20.49	48.97	66.73
305.0	86.26	101.3	93.24	66.25	58.37	60.74	71.65	87.47	111.9	160.4	285.7	371.6	179.1	169.9	313.2	 1603	 6385	 8367	438.4	11.02	5.736	4.104	2.995	2.722	2.191	1.822	1.475	1.373	1.322	1.049	0.988	0.901	0.909	0.794	0.675	0.580	0.533	0.579	0.503	0.419	0.375	0.382	0.411	0.362	0.412	0.516	0.490	0.519	0.477	0.610	0.512	0.554	0.489	0.431	0.387	0.462	0.488	0.466	0.567	0.543	0.650	0.660	0.778	0.832	1.156	1.686	2.110	2.054	1.381	0.901	0.904	1.053	1.217	2.103	5.172	14.15	31.93
310.0	84.00	95.95	93.95	78.28	68.76	74.28	89.51	101.8	128.6	157.8	214.6	316.6	342.2	206.4	163.6	432.1	 1836	 5478	 5846	 1803	24.78	6.046	4.316	3.327	2.640	2.179	1.754	1.624	1.530	1.253	1.107	0.975	0.968	0.895	0.675	0.660	0.616	0.618	0.536	0.502	0.455	0.395	0.417	0.385	0.402	0.468	0.478	0.545	0.520	0.497	0.513	0.582	0.578	0.497	0.486	0.531	0.574	0.602	0.685	0.659	0.707	0.819	0.904	0.925	1.022	1.243	1.359	1.800	2.124	1.818	1.373	0.941	0.918	1.047	1.587	3.593	7.915
315.0	91.80	99.45	105.3	87.35	84.00	86.89	99.40	116.5	137.3	168.3	199.4	244.3	308.6	348.9	195.5	183.8	482.3	 1339	 3194	 9220	 2827	30.05	6.038	4.610	3.419	2.518	2.189	1.799	1.652	1.513	1.242	1.132	1.041	0.881	0.783	0.746	0.632	0.671	0.585	0.534	0.497	0.430	0.465	0.398	0.427	0.460	0.510	0.580	0.595	0.522	0.498	0.670	0.582	0.562	0.575	0.597	0.659	0.704	0.723	0.787	0.881	0.882	0.938	1.012	0.988	1.150	1.208	1.306	1.433	1.681	2.164	1.828	1.245	0.959	0.915	1.345	2.265
320.0	98.30	127.9	127.9	102.1	92.18	97.39	113.1	130.8	151.7	182.2	209.5	234.3	259.2	352.2	304.8	154.7	193.6	364.5	882.3	 5100	 9567	419.7	19.20	6.155	4.211	3.068	2.684	2.074	1.830	1.720	1.251	1.399	1.130	0.846	0.867	0.834	0.664	0.739	0.527	0.535	0.508	0.466	0.496	0.505	0.417	0.505	0.590	0.605	0.679	0.555	0.506	0.605	0.596	0.631	0.654	0.658	0.765	0.670	0.816	0.706	0.841	0.972	1.062	1.141	1.064	1.060	1.257	1.177	1.237	1.423	1.679	2.189	2.151	1.402	0.988	0.982	1.170
325.0	118.1	168.6	176.6	129.5	105.8	108.3	122.6	140.1	158.4	189.5	218.6	240.0	246.7	285.4	354.4	226.0	142.8	154.2	244.1	 1437	 6843	 8418	349.2	10.26	5.242	4.033	3.054	2.431	2.186	1.882	1.473	1.412	1.236	1.058	1.012	0.770	0.720	0.683	0.579	0.638	0.548	0.545	0.554	0.479	0.490	0.605	0.714	0.760	0.845	0.683	0.603	0.784	0.590	0.676	0.787	0.677	0.768	0.727	0.775	0.948	0.885	0.997	1.126	1.200	1.229	1.090	1.225	1.205	1.209	1.369	1.434	1.494	2.183	2.147	1.521	0.944	1.004
330.0	138.3	208.3	230.2	179.5	135.5	119.8	128.7	146.8	163.0	193.4	223.9	252.5	249.8	247.8	276.3	298.5	206.9	121.5	111.0	362.3	 1833	 5728	 7725	 1533	22.81	5.916	4.192	3.197	2.564	2.367	1.946	1.524	1.380	1.140	1.046	0.918	0.802	0.741	0.668	0.599	0.518	0.508	0.537	0.495	0.511	0.625	0.661	0.912	0.993	0.970	0.829	0.882	0.757	0.747	0.814	0.818	0.777	0.849	0.871	0.898	0.908	0.993	1.062	1.118	1.202	1.149	1.283	1.216	1.360	1.369	1.473	1.372	1.603	1.741	1.937	1.822	1.437
335.0	153.3	240.3	273.0	218.3	163.8	136.8	137.7	151.7	172.1	203.6	236.0	254.0	257.1	245.1	231.3	239.5	293.2	179.6	95.94	129.8	443.5	 1347	 3766	 9868	 2436	27.69	5.880	4.583	3.311	2.726	2.322	1.811	1.531	1.384	1.096	0.995	0.902	0.798	0.787	0.658	0.633	0.602	0.599	0.495	0.630	0.743	0.774	0.966	1.164	1.150	0.988	1.113	0.856	0.926	0.836	0.727	0.918	0.972	0.967	0.894	0.917	1.079	1.089	1.141	1.185	1.177	1.351	1.397	1.464	1.365	1.507	1.472	1.379	1.400	1.431	1.545	2.016
340.0	158.5	254.8	294.7	240.9	177.9	148.5	149.5	157.9	176.8	205.3	230.9	254.8	258.9	245.2	225.5	205.9	251.4	257.5	119.1	85.35	139.5	331.8	965.1	 5751	 9993	368.1	17.83	5.615	4.328	2.986	2.577	1.966	1.670	1.539	1.228	1.049	1.022	0.834	0.841	0.732	0.688	0.543	0.633	0.539	0.599	0.800	0.846	0.986	1.237	1.207	1.034	1.179	0.982	0.978	0.877	0.861	0.924	1.009	1.079	1.026	0.982	1.107	1.117	1.116	1.212	1.274	1.399	1.450	1.404	1.484	1.544	1.458	1.432	1.268	1.257	1.294	1.562
345.0	162.3	250.4	312.4	257.3	190.7	166.4	156.5	163.1	177.1	204.5	230.5	252.8	254.2	244.0	222.3	196.4	196.7	256.5	187.2	88.45	78.03	110.3	244.8	 1589	 7716	 8352	312.9	9.297	5.182	4.091	2.963	2.347	1.938	1.651	1.258	1.066	1.123	0.971	0.897	0.695	0.689	0.557	0.572	0.592	0.618	0.793	0.833	1.036	1.191	1.287	1.188	1.221	1.076	0.977	0.864	0.900	0.936	0.994	1.011	0.957	0.959	1.062	1.143	1.119	1.179	1.329	1.432	1.338	1.392	1.471	1.367	1.369	1.400	1.183	1.170	1.147	1.180
350.0	153.6	234.6	297.1	270.0	211.3	176.6	171.3	172.5	181.9	202.2	226.2	243.3	249.1	239.6	219.2	194.0	176.9	190.1	217.7	160.8	82.70	71.66	90.36	383.8	 2069	 6297	 7337	 1341	20.88	5.569	4.049	2.903	2.265	1.896	1.506	1.175	1.193	1.000	0.947	0.741	0.665	0.668	0.633	0.609	0.667	0.799	0.843	1.015	1.117	1.188	1.191	1.230	1.101	1.075	0.921	0.916	0.962	1.005	0.999	1.016	1.022	1.059	1.275	1.146	1.195	1.221	1.242	1.388	1.364	1.380	1.300	1.387	1.350	1.302	1.144	1.153	1.202
355.0	141.7	228.9	285.1	266.9	227.9	195.6	193.0	187.8	190.3	201.0	226.6	237.0	240.8	233.8	217.1	196.9	176.7	163.6	165.3	205.7	147.8	79.21	66.97	122.3	487.6	 1463	 3811	 9001	 2286	25.87	5.437	3.677	2.921	2.340	1.712	1.325	1.190	1.116	1.011	0.846	0.770	0.778	0.677	0.511	0.703	0.709	0.780	1.042	1.084	1.189	1.143	1.272	1.158	1.141	1.124	0.958	1.019	1.062	1.084	1.082	1.194	1.057	1.136	1.240	1.133	1.219	1.185	1.412	1.343	1.330	1.244	1.422	1.346	1.318	1.030	1.189	1.219
360.0	133.2	214.3	283.8	268.1	234.6	210.0	207.0	194.3	203.7	206.4	225.9	233.6	236.3	233.6	215.7	197.9	180.4	163.4	149.6	174.9	202.3	111.3	67.08	70.82	141.0	350.8	970.3	 5475	 9485	358.1	15.57	4.746	3.635	2.670	1.886	1.551	1.329	1.257	0.991	0.968	0.779	0.774	0.662	0.617	0.775	0.722	0.802	1.077	1.189	1.142	1.132	1.198	1.149	1.195	1.077	1.037	1.107	1.115	1.087	1.138	1.126	1.215	1.109	1.272	1.134	1.152	1.179	1.358	1.350	1.321	1.402	1.357	1.394	1.260	1.193	1.190	1.196
365.0	128.8	204.5	267.4	262.9	242.9	226.0	217.3	209.7	206.9	213.2	223.5	232.4	235.7	232.0	216.2	198.7	183.6	166.1	151.0	148.8	193.6	172.4	87.37	66.63	70.79	108.2	239.9	 1527	 7712	 7852	278.3	8.575	4.624	3.229	2.313	1.677	1.392	1.237	1.145	0.978	0.829	0.782	0.709	0.669	0.698	0.739	0.869	0.915	1.182	1.087	1.105	1.211	1.265	1.268	1.104	1.108	1.065	1.186	1.091	1.180	1.200	1.247	1.220	1.262	1.170	1.161	1.168	1.373	1.280	1.326	1.276	1.354	1.327	1.205	1.288	1.144	1.159
370.0	129.0	197.4	257.7	270.4	253.1	240.6	235.1	222.7	220.0	220.9	229.4	233.8	238.9	230.6	215.5	201.9	190.1	175.1	160.5	146.7	154.6	183.0	153.0	87.26	65.84	62.79	84.58	366.1	 2103	 6210	 7228	 1256	17.92	4.439	3.198	2.262	1.799	1.424	1.291	1.061	0.952	0.755	0.754	0.706	0.702	0.780	0.770	0.982	1.125	1.088	1.134	1.274	1.297	1.247	1.263	1.215	1.193	1.285	1.210	1.183	1.326	1.224	1.206	1.270	1.222	1.280	1.300	1.333	1.263	1.249	1.241	1.322	1.259	1.252	1.312	1.155	1.154
375.0	129.2	192.5	252.8	272.7	274.9	270.2	253.1	245.7	236.9	231.7	242.0	243.3	254.8	238.7	214.5	204.1	192.8	183.8	170.6	156.1	146.2	150.1	178.0	152.3	84.24	66.31	63.38	120.2	497.6	 1447	 4083	 8860	 1938	21.97	4.593	2.989	2.328	1.778	1.514	1.197	1.203	0.899	0.842	0.729	0.764	0.871	0.739	0.977	1.174	1.055	1.142	1.399	1.306	1.384	1.350	1.367	1.336	1.286	1.279	1.375	1.303	1.192	1.277	1.405	1.316	1.312	1.352	1.360	1.392	1.433	1.308	1.239	1.239	1.355	1.303	1.287	1.270
380.0	122.3	187.5	242.4	279.8	291.1	282.2	260.9	250.6	242.8	243.8	252.6	253.0	266.5	241.5	216.1	204.0	197.6	186.1	176.7	162.8	149.6	143.4	156.2	188.3	125.4	78.49	70.45	77.61	149.6	353.3	 1076	 5809	 8403	299.0	12.36	3.750	2.764	2.039	1.766	1.254	1.074	1.080	0.930	0.724	0.753	0.875	0.867	1.012	1.158	1.056	1.039	1.374	1.247	1.493	1.399	1.388	1.449	1.468	1.339	1.440	1.363	1.281	1.329	1.279	1.472	1.447	1.372	1.253	1.311	1.435	1.329	1.268	1.383	1.366	1.178	1.239	1.325
385.0	119.8	178.8	236.4	276.2	300.1	290.2	270.7	263.4	250.3	252.1	261.8	259.9	274.3	244.7	216.8	204.4	196.4	188.9	178.0	169.4	158.2	145.5	142.9	176.0	172.7	99.72	79.82	75.78	77.42	113.9	281.1	 1651	 7182	 6463	231.0	5.772	3.427	2.490	1.962	1.402	1.166	1.058	1.040	0.815	0.817	0.877	0.905	1.102	1.101	1.087	1.099	1.418	1.416	1.490	1.391	1.507	1.321	1.487	1.436	1.392	1.371	1.363	1.226	1.427	1.346	1.337	1.397	1.325	1.341	1.526	1.352	1.325	1.289	1.326	1.279	1.312	1.231
390.0	122.6	179.2	237.5	273.4	292.4	294.0	277.6	268.5	256.3	258.6	262.8	255.9	266.0	238.6	213.8	203.5	196.5	188.6	181.7	172.8	162.1	150.4	141.4	144.9	163.6	145.1	98.94	78.40	64.81	62.53	100.0	406.9	 2078	 5390	 4506	977.8	14.41	3.447	2.440	1.861	1.458	1.204	1.014	0.862	0.822	0.961	0.968	1.017	1.104	1.018	1.110	1.315	1.395	1.455	1.430	1.581	1.419	1.476	1.420	1.350	1.476	1.410	1.381	1.429	1.375	1.339	1.421	1.320	1.339	1.547	1.345	1.334	1.379	1.288	1.250	1.275	1.245
395.0	115.6	172.9	231.2	261.3	285.1	290.9	284.7	273.5	265.5	262.7	262.3	254.4	256.5	233.8	211.0	200.2	192.8	186.3	180.2	173.0	164.5	155.0	144.9	138.6	133.8	149.1	144.9	94.16	68.02	55.91	60.77	127.7	484.4	 1244	 3034	 6878	 1571	17.51	3.345	2.429	1.753	1.466	1.162	1.094	0.805	1.011	1.026	1.048	1.071	1.038	1.029	1.371	1.422	1.468	1.365	1.559	1.408	1.552	1.507	1.566	1.427	1.416	1.427	1.464	1.370	1.416	1.269	1.265	1.379	1.405	1.346	1.415	1.296	1.275	1.266	1.333	1.193
400.0	113.5	168.6	227.4	262.5	284.9	290.4	286.6	276.7	272.5	258.6	267.1	256.9	257.2	231.2	210.2	196.0	187.1	185.6	179.4	173.7	164.1	156.2	147.5	140.2	128.4	128.6	157.4	127.7	77.34	60.11	57.84	71.97	133.4	292.0	770.5	 4635	 6595	257.3	9.616	2.903	2.331	1.625	1.343	1.206	1.040	1.076	0.968	1.009	1.077	1.069	1.085	1.342	1.359	1.431	1.526	1.506	1.542	1.535	1.418	1.607	1.465	1.424	1.426	1.436	1.413	1.462	1.366	1.260	1.401	1.491	1.349	1.287	1.347	1.271	1.182	1.215	1.304
405.0	101.8	165.2	227.8	260.1	282.9	284.0	283.4	279.0	275.1	267.4	266.1	258.1	259.4	226.1	205.5	191.7	185.7	182.0	176.7	171.3	165.0	156.8	149.2	142.6	130.1	120.8	140.0	154.5	96.05	66.90	63.13	63.72	58.66	81.16	184.0	 1289	 5389	 5233	196.8	4.659	2.500	1.826	1.508	1.269	1.102	1.176	0.906	1.011	1.132	1.226	1.110	1.393	1.349	1.484	1.417	1.445	1.660	1.519	1.414	1.627	1.457	1.306	1.404	1.309	1.409	1.490	1.368	1.341	1.336	1.570	1.224	1.195	1.217	1.345	1.147	1.155	1.127
410.0	105.1	166.4	219.6	246.1	276.2	280.3	285.9	282.9	275.5	267.3	264.3	250.6	250.6	221.7	199.8	184.8	179.4	175.1	171.1	166.6	162.2	154.6	147.7	141.4	128.8	117.9	117.7	133.2	125.7	83.29	64.25	59.37	42.02	35.94	53.49	297.9	 1471	 4374	 3747	856.5	12.15	2.536	1.878	1.543	1.290	1.115	1.036	1.046	1.153	1.111	1.071	1.306	1.326	1.400	1.402	1.394	1.566	1.504	1.489	1.531	1.541	1.356	1.324	1.366	1.345	1.480	1.328	1.294	1.234	1.447	1.254	1.207	1.189	1.222	1.214	1.235	1.135
415.0	104.1	157.2	203.7	231.7	273.3	272.6	282.6	278.0	269.8	260.1	258.9	245.7	238.6	210.9	192.8	178.7	173.1	169.4	166.6	158.7	154.1	151.8	143.7	136.1	127.5	117.0	109.7	107.5	115.2	112.7	74.87	56.45	39.31	28.12	26.22	77.14	335.8	 1010	 2467	 5586	 1329	15.23	2.738	1.923	1.499	1.351	1.150	1.005	1.123	1.107	1.158	1.227	1.340	1.382	1.388	1.413	1.351	1.544	1.569	1.448	1.463	1.328	1.518	1.460	1.425	1.371	1.358	1.372	1.194	1.311	1.153	1.128	1.219	1.192	1.170	1.139	1.086
420.0	100.5	146.5	202.5	230.8	261.9	265.2	266.7	268.6	270.7	260.7	250.3	238.8	226.5	201.6	183.8	172.8	169.1	164.7	159.0	153.3	149.4	146.5	140.3	134.8	125.5	115.4	108.0	101.7	99.05	114.3	96.71	59.97	40.54	27.99	21.93	29.02	83.78	232.5	623.2	 3600	 5227	228.7	8.772	2.402	1.805	1.629	1.253	1.138	1.081	1.105	1.119	1.175	1.441	1.472	1.355	1.293	1.396	1.462	1.522	1.402	1.588	1.383	1.371	1.394	1.448	1.297	1.214	1.250	1.173	1.139	1.084	1.103	1.156	1.063	1.256	1.100	1.118
425.0	98.33	147.9	190.1	224.1	254.0	266.2	267.1	265.2	270.4	265.1	252.2	235.4	221.1	198.6	180.3	167.9	163.5	158.1	153.8	149.3	146.3	142.2	137.7	132.4	124.2	115.8	107.4	100.3	91.62	99.21	110.2	74.26	43.17	30.09	22.39	20.39	28.46	59.54	145.9	989.8	 4313	 4090	185.3	3.588	2.027	1.794	1.431	1.325	1.175	1.180	1.033	1.203	1.385	1.370	1.441	1.283	1.474	1.375	1.470	1.474	1.593	1.459	1.364	1.393	1.378	1.365	1.158	1.135	1.265	1.176	1.117	1.126	1.085	0.965	1.124	1.056	1.004
430.0	91.00	143.2	186.4	218.3	245.4	257.8	262.1	266.5	266.2	261.9	250.8	229.9	216.8	192.5	174.7	162.7	157.0	151.4	148.3	143.8	140.8	137.7	132.7	128.5	123.1	113.2	107.3	100.7	90.32	85.75	95.72	93.84	58.02	34.58	25.38	20.07	18.09	22.12	39.56	227.1	 1187	 3246	 3124	795.5	11.02	2.182	1.683	1.535	1.308	1.219	1.131	1.270	1.400	1.320	1.380	1.376	1.424	1.454	1.539	1.486	1.425	1.422	1.375	1.329	1.378	1.317	1.165	1.151	1.181	1.225	1.098	0.986	1.077	1.003	1.036	1.114	1.021
435.0	118.9	136.9	181.0	210.3	238.3	250.9	262.0	264.6	263.0	253.7	244.2	223.7	207.6	186.3	169.6	157.8	151.2	145.9	142.6	138.6	136.4	131.9	127.7	124.3	120.2	112.6	105.6	99.34	90.02	83.35	80.08	84.64	77.31	46.74	28.86	22.26	18.03	14.94	16.58	56.84	269.1	747.8	 2010	 4655	 1203	13.38	2.279	1.821	1.688	1.282	1.254	1.324	1.355	1.342	1.326	1.485	1.491	1.509	1.361	1.404	1.486	1.481	1.357	1.338	1.323	1.299	1.186	1.114	1.148	1.183	0.994	1.003	0.990	0.992	0.989	1.126	1.041
440.0	207.1	131.7	179.7	208.3	227.0	241.9	252.3	262.6	257.9	248.9	238.7	222.9	203.7	182.9	163.7	152.6	144.4	138.8	136.2	132.5	132.6	127.9	125.7	120.0	115.7	110.3	104.4	97.94	89.21	82.80	76.23	72.07	79.47	60.97	33.95	24.73	18.23	14.52	12.20	19.21	65.24	171.3	517.0	 3197	 4552	202.0	5.697	2.161	1.936	1.483	1.268	1.389	1.403	1.340	1.340	1.373	1.467	1.489	1.371	1.535	1.482	1.377	1.331	1.296	1.247	1.166	1.119	1.021	1.156	1.130	1.030	0.906	0.921	0.926	0.901	1.031	0.998
445.0	403.7	145.5	168.7	201.0	221.7	233.9	249.0	253.0	254.4	245.4	234.6	216.3	197.3	176.4	158.3	148.1	139.0	136.2	131.6	129.3	126.7	124.6	120.9	116.7	112.4	107.3	101.5	96.82	89.26	81.45	74.40	65.56	67.52	69.06	43.85	26.33	20.21	15.32	11.95	11.28	19.81	42.75	120.6	938.7	 4155	 3471	25.31	3.494	1.979	1.589	1.397	1.429	1.363	1.428	1.330	1.223	1.399	1.339	1.462	1.467	1.624	1.427	1.411	1.340	1.255	1.223	1.164	1.088	1.080	1.227	1.049	0.979	1.012	0.975	0.905	0.960	0.941
450.0	655.3	446.0	172.4	188.4	209.7	230.4	237.5	241.4	246.0	239.9	228.6	208.2	188.4	169.0	152.4	139.0	130.9	126.6	123.2	120.5	118.3	116.3	114.0	110.3	107.4	102.9	97.73	92.97	86.93	80.83	73.65	64.42	58.15	59.10	56.47	34.83	22.41	16.58	12.83	10.31	10.35	14.33	31.30	214.4	 1175	 3154	 2807	655.1	9.073	2.044	1.594	1.566	1.486	1.427	1.322	1.342	1.395	1.404	1.373	1.368	1.391	1.402	1.404	1.350	1.289	1.172	1.130	1.139	1.065	1.043	1.010	0.954	0.891	0.946	0.895	0.907	0.929
455.0	454.3	 1193	317.4	170.0	196.5	214.1	226.9	227.9	232.2	227.1	217.4	199.0	179.3	159.8	140.3	128.4	121.7	119.2	113.7	111.3	109.9	106.9	106.9	104.0	100.0	96.51	91.29	87.48	83.66	78.57	70.65	62.72	53.28	48.82	49.54	47.86	29.84	17.59	13.96	10.74	8.827	8.334	11.26	51.62	265.2	733.1	 1854	 3983	977.6	9.805	2.034	1.673	1.560	1.563	1.343	1.423	1.406	1.302	1.342	1.289	1.255	1.414	1.307	1.209	1.252	1.119	1.032	1.190	0.971	0.997	0.954	0.968	0.857	0.883	0.932	0.791	0.785
460.0	203.7	 1700	730.8	167.3	183.4	202.8	211.3	212.8	217.0	210.9	204.1	191.2	169.5	150.5	132.8	121.0	113.3	111.2	106.5	103.9	103.2	100.9	99.83	98.48	94.40	92.23	87.41	83.64	80.28	75.70	69.19	60.80	51.18	44.72	40.99	47.43	37.73	20.70	14.24	11.30	8.482	7.454	6.905	15.36	62.63	167.0	476.2	 2730	 3633	157.6	5.505	1.986	1.620	1.602	1.439	1.450	1.424	1.280	1.304	1.273	1.191	1.231	1.215	1.202	1.160	1.096	1.087	1.025	0.946	0.858	0.897	0.860	0.737	0.819	0.774	0.792	0.895
465.0	99.34	 1374	 1419	237.6	174.6	190.4	202.3	207.5	208.7	205.9	199.2	177.7	160.7	141.9	126.1	116.2	106.9	105.0	99.90	97.83	96.18	94.26	92.67	92.32	89.46	87.48	82.41	79.90	76.12	71.41	66.30	58.76	49.98	43.07	36.77	39.50	41.81	25.73	15.00	11.50	8.949	7.572	6.392	7.308	17.70	40.68	110.2	798.0	 3348	 2680	118.2	3.188	1.769	1.689	1.470	1.349	1.439	1.284	1.463	1.270	1.361	1.306	1.228	1.312	1.169	0.984	0.977	1.018	0.874	0.838	0.817	0.856	0.822	0.766	0.734	0.760	0.774
470.0	75.29	551.4	 1652	768.7	182.6	175.6	183.9	192.9	193.3	189.8	184.4	167.2	147.5	130.8	117.7	105.3	98.19	96.07	90.69	89.66	86.26	86.20	85.66	84.04	81.74	78.87	76.08	72.64	70.45	66.99	62.57	55.65	47.95	41.19	34.31	31.58	33.94	32.47	20.41	12.66	9.300	7.636	6.487	5.882	7.629	12.41	27.73	181.9	953.5	 2391	 2044	596.0	8.670	2.112	1.671	1.510	1.442	1.324	1.297	1.218	1.293	1.146	1.178	1.262	1.135	1.041	0.930	0.886	0.846	0.784	0.805	0.791	0.761	0.696	0.668	0.670	0.698
475.0	70.93	190.1	912.6	 1539	414.7	162.6	170.4	174.2	175.7	173.2	167.8	152.4	136.1	119.7	107.4	96.54	90.05	84.81	82.38	80.49	79.30	77.44	76.25	75.57	73.09	70.09	69.13	66.42	64.25	60.22	57.11	51.27	44.59	38.47	32.52	27.82	25.41	27.83	27.33	16.61	9.758	7.700	6.573	5.614	5.202	5.997	9.064	43.25	214.7	553.2	 1279	 2949	797.2	10.42	1.849	1.550	1.423	1.350	1.301	1.162	1.124	1.010	1.092	1.138	1.017	0.933	0.898	0.855	0.941	0.712	0.710	0.686	0.681	0.749	0.645	0.608	0.635
480.0	67.17	99.61	356.7	 1528	 1044	158.7	155.1	160.2	162.7	165.1	156.9	140.3	127.3	113.1	99.15	89.96	83.13	77.18	76.73	74.52	71.62	70.92	68.93	70.38	68.78	65.33	64.69	61.87	59.78	57.32	53.70	48.87	42.52	36.41	30.62	26.09	22.82	21.54	26.26	21.53	11.66	7.844	6.567	5.403	4.854	4.435	4.886	12.21	50.10	125.7	324.9	 1845	 2709	173.5	5.147	1.768	1.539	1.364	1.219	1.198	1.122	0.966	1.027	0.986	0.904	0.877	0.859	0.792	0.792	0.666	0.747	0.675	0.614	0.635	0.556	0.580	0.606
485.0	66.37	81.56	160.5	 1001	 1715	272.0	146.4	151.1	154.6	155.5	145.9	134.3	118.9	105.7	95.02	83.21	77.94	72.29	72.30	68.83	68.51	65.27	65.25	64.72	63.43	60.81	59.29	57.69	56.80	54.27	50.55	45.95	40.33	35.35	29.16	25.23	21.03	18.68	21.05	23.64	15.42	8.566	6.566	5.502	4.856	4.535	3.822	5.362	13.39	30.08	75.06	500.9	 2399	 1577	25.40	2.951	1.686	1.423	1.353	1.293	1.074	0.907	1.051	0.967	0.948	0.785	0.816	0.685	0.716	0.685	0.752	0.701	0.671	0.600	0.599	0.557	0.550
490.0	62.41	87.05	109.2	382.3	 1618	966.6	160.8	135.8	143.4	141.0	132.7	126.8	108.3	95.63	85.29	75.95	70.73	65.34	64.32	62.28	61.30	59.42	58.95	58.10	57.70	55.71	53.20	52.11	51.25	49.32	46.34	42.08	37.21	32.65	27.25	23.57	20.19	17.17	16.03	19.12	19.38	11.99	7.028	5.763	4.986	4.479	3.671	3.817	5.218	8.708	18.79	114.1	654.4	 1654	 1985	610.2	9.366	1.686	1.393	1.231	1.168	0.996	0.910	0.930	0.948	0.782	0.793	0.694	0.730	0.633	0.690	0.594	0.598	0.632	0.541	0.544	0.605
495.0	49.16	85.17	88.43	160.8	759.9	 1818	358.8	123.1	130.3	125.5	124.4	113.7	98.64	86.57	77.31	68.75	63.60	59.65	57.08	55.48	53.97	53.09	51.94	52.20	50.81	48.98	48.14	46.77	44.91	43.90	40.93	38.52	34.16	28.91	25.52	21.77	18.84	15.59	14.04	13.46	16.53	16.20	9.784	5.915	5.008	4.536	3.716	3.625	3.422	3.954	6.055	27.01	147.5	383.8	 1284	 2721	212.9	10.74	1.688	1.342	1.205	1.053	0.861	0.943	0.810	0.717	0.706	0.712	0.762	0.541	0.607	0.586	0.547	0.553	0.500	0.482	0.479
500.0	43.01	77.76	92.46	103.6	287.8	 1767	 1061	132.1	115.1	111.8	115.2	102.4	92.38	79.16	70.63	63.92	58.86	54.08	51.97	49.59	49.08	47.89	47.63	47.00	46.86	44.28	43.28	41.44	40.50	40.18	37.30	34.75	31.10	26.22	23.39	20.20	17.75	14.58	12.94	11.43	11.87	15.63	12.83	6.959	4.851	4.261	3.662	3.371	3.234	2.964	3.137	7.673	34.56	87.44	330.6	 1759	 2440	186.0	4.384	1.564	1.153	1.034	1.002	0.836	0.747	0.680	0.623	0.616	0.727	0.619	0.492	0.517	0.604	0.425	0.502	0.406	0.498
505.0	35.21	67.38	101.7	84.48	135.6	 1076	 1735	258.9	107.2	104.2	102.7	97.02	82.67	72.07	63.12	56.75	53.12	49.48	46.64	45.62	45.29	44.21	43.43	43.59	41.78	40.63	38.70	37.72	37.89	36.03	34.84	31.47	28.23	24.37	21.39	18.89	16.63	13.86	11.94	10.78	9.785	12.09	14.20	9.138	5.453	4.123	3.623	3.241	2.941	2.695	2.354	3.201	9.121	21.04	75.77	485.0	 2133	 1636	26.85	2.196	1.232	1.147	0.963	0.821	0.700	0.647	0.657	0.668	0.594	0.607	0.494	0.478	0.522	0.419	0.499	0.397	0.445
510.0	33.56	47.52	94.89	87.18	87.90	376.4	 1546	 1086	130.3	92.94	89.93	82.74	73.73	63.58	56.66	50.19	46.51	44.19	40.92	39.83	39.52	38.27	37.76	37.96	35.88	35.01	33.56	33.16	33.23	31.52	30.23	27.57	25.20	21.99	19.45	17.13	15.04	12.69	10.93	9.848	8.473	8.603	11.03	11.38	7.661	4.407	3.571	3.169	2.731	2.437	2.233	2.236	3.383	6.028	18.33	110.0	585.0	 1480	 1684	544.2	9.118	1.199	0.990	0.837	0.715	0.666	0.659	0.621	0.509	0.531	0.482	0.407	0.381	0.400	0.369	0.375	0.443
515.0	28.44	36.98	67.38	92.59	72.93	140.3	645.7	 1792	281.4	84.25	80.07	74.89	65.16	55.94	49.93	44.61	39.64	38.24	34.79	34.91	34.40	32.96	31.71	32.37	30.29	30.14	29.27	28.58	29.35	27.86	26.23	23.92	22.00	19.42	17.29	15.18	13.36	11.06	10.00	8.276	7.746	6.990	7.236	9.986	9.995	5.895	3.561	3.037	2.389	2.355	2.139	2.102	2.072	2.492	5.281	25.70	131.5	339.2	918.7	 2078	204.7	10.03	1.178	0.822	0.707	0.697	0.576	0.552	0.441	0.346	0.515	0.404	0.350	0.389	0.271	0.330	0.389
520.0	23.05	29.40	49.96	86.17	71.84	80.57	228.5	 1483	 1222	94.22	72.56	66.74	60.38	50.48	45.93	38.29	36.37	33.31	31.74	31.27	30.66	28.76	28.12	28.11	27.54	26.41	26.49	25.37	25.47	24.93	23.43	21.48	19.38	16.95	15.60	13.88	11.91	10.48	9.079	7.664	6.941	6.494	5.731	7.232	9.722	7.741	4.096	3.021	2.424	2.264	1.854	1.986	1.691	1.652	2.316	6.945	30.47	76.97	228.3	 1296	 1716	177.1	3.301	0.940	0.779	0.682	0.499	0.547	0.480	0.407	0.404	0.376	0.378	0.335	0.295	0.282	0.331
525.0	19.95	26.57	39.87	75.45	81.70	57.44	99.83	803.2	 1973	207.5	65.06	58.92	53.78	46.65	41.71	35.52	32.40	30.88	28.33	27.59	26.64	26.41	24.88	25.37	24.93	24.35	23.35	22.89	22.67	22.57	21.38	19.24	17.37	15.66	14.05	12.60	10.97	9.654	8.376	7.013	6.421	5.865	5.096	5.478	8.010	8.775	5.394	3.051	2.423	2.076	1.811	1.747	1.802	1.556	1.511	2.635	7.830	18.35	52.43	350.4	 1506	 1428	27.66	1.552	0.808	0.688	0.552	0.556	0.512	0.444	0.414	0.258	0.307	0.273	0.268	0.285	0.284
530.0	18.52	26.16	36.72	52.87	79.60	60.42	63.55	263.7	 1551	 1153	104.1	52.30	45.84	40.20	35.44	31.34	28.42	26.91	25.01	23.77	23.22	22.60	22.23	22.01	21.79	21.12	20.01	19.70	19.57	19.48	18.28	16.73	15.34	13.67	12.06	11.00	9.719	8.377	7.348	6.516	5.743	5.279	4.583	4.471	5.206	7.090	7.066	4.156	2.424	1.950	1.749	1.720	1.475	1.493	1.371	1.523	2.696	5.022	12.71	79.31	401.1	 1092	 1219	387.6	7.920	0.827	0.618	0.539	0.441	0.385	0.354	0.295	0.286	0.222	0.262	0.267	0.272
535.0	17.45	24.89	29.31	35.85	62.76	67.21	52.39	94.53	572.7	 1677	610.8	45.87	39.25	33.96	30.59	28.11	23.73	23.23	21.78	20.99	19.78	18.86	18.92	18.76	18.18	17.40	17.16	16.84	16.81	16.49	15.80	14.15	12.97	11.64	10.53	9.272	8.466	7.547	6.337	5.851	5.218	4.436	4.064	3.708	3.897	4.526	6.230	5.695	3.412	1.810	1.557	1.499	1.277	1.276	1.291	1.368	1.432	1.986	3.700	18.46	90.19	248.9	633.8	 1430	208.8	8.540	0.766	0.582	0.408	0.375	0.355	0.318	0.290	0.287	0.199	0.210	0.268
540.0	15.04	21.24	28.54	29.67	47.47	71.14	48.41	53.78	180.7	 1254	 1341	83.12	36.94	31.47	27.83	24.12	21.69	20.19	19.26	18.18	17.43	17.27	16.51	16.56	16.61	15.33	15.43	14.81	14.87	14.74	14.22	13.03	11.76	10.88	9.215	8.205	7.207	6.583	5.748	5.458	4.987	4.227	3.689	3.684	3.441	3.198	4.480	5.976	4.448	2.114	1.477	1.400	1.217	1.169	1.233	1.242	1.173	1.182	1.599	4.815	20.89	56.41	154.8	850.7	 1304	165.6	2.740	0.671	0.439	0.410	0.332	0.306	0.301	0.210	0.228	0.215	0.226
545.0	15.13	18.96	25.33	27.42	36.78	64.07	51.18	40.58	74.82	631.9	 1731	187.1	33.77	28.13	24.68	22.06	19.42	17.91	17.34	16.62	15.79	15.51	15.20	14.29	14.50	13.88	13.56	13.64	13.07	13.00	12.33	11.82	10.90	9.382	8.360	7.335	6.677	5.993	5.140	4.999	4.185	3.729	3.457	3.365	2.926	2.834	3.201	4.811	4.964	2.760	1.580	1.260	1.123	1.123	1.119	1.185	1.089	0.959	1.016	1.792	5.350	13.33	35.56	228.0	 1041	 1057	26.90	1.183	0.543	0.365	0.343	0.316	0.268	0.227	0.219	0.197	0.215
550.0	16.57	16.53	21.92	21.90	28.60	45.33	57.68	38.25	43.31	199.0	 1124	 1177	76.22	24.12	21.14	18.96	17.13	15.52	14.97	14.31	13.45	12.94	13.24	12.35	11.99	12.01	11.59	11.28	11.14	11.17	10.69	10.10	9.019	7.680	7.023	6.315	5.825	5.285	4.597	4.147	3.729	3.279	3.059	2.925	2.529	2.354	2.427	2.977	4.275	3.711	2.201	1.257	0.945	1.024	0.917	0.986	0.921	0.922	0.868	0.965	1.787	3.657	8.606	51.66	275.3	769.4	891.8	121.0	6.737	0.490	0.367	0.354	0.284	0.253	0.208	0.170	0.182
555.0	16.05	18.28	17.84	21.91	22.38	29.35	50.00	44.52	32.15	66.41	373.0	 1390	597.5	22.75	18.47	16.12	13.82	13.12	12.19	11.89	11.17	10.61	11.02	10.40	10.01	9.898	9.800	8.883	9.262	8.997	8.915	8.300	7.393	6.733	5.965	5.490	5.073	4.469	3.914	3.618	2.981	2.718	2.530	2.533	2.263	2.008	1.923	1.854	2.614	3.522	3.143	1.538	0.936	0.930	0.841	0.853	0.726	0.806	0.775	0.775	0.870	1.329	2.481	12.02	61.81	174.7	433.8	 1011	203.9	5.874	0.450	0.343	0.254	0.240	0.167	0.222	0.187
560.0	12.90	15.05	19.58	19.28	20.26	21.52	38.57	48.18	29.54	34.13	113.5	881.5	 1170	60.07	15.90	14.34	12.70	11.08	10.66	9.852	9.078	9.311	9.323	8.797	8.979	8.638	8.281	7.808	7.875	7.781	7.537	7.077	6.398	5.735	5.150	4.750	4.226	3.688	3.336	3.091	2.702	2.587	2.195	2.130	2.038	1.778	1.702	1.504	1.679	2.526	3.197	2.127	1.019	0.872	0.677	0.697	0.666	0.657	0.715	0.627	0.625	0.788	0.968	3.068	14.23	39.48	105.2	594.5	916.7	142.8	1.793	0.406	0.331	0.284	0.179	0.221	0.170
565.0	14.27	15.61	17.63	17.33	15.39	19.09	28.51	45.96	30.27	25.04	44.26	391.4	 1347	355.8	14.00	12.71	10.52	9.800	8.885	8.152	7.926	7.974	7.845	7.652	7.389	7.517	6.666	6.703	6.589	6.466	6.179	6.056	5.504	4.883	4.341	4.017	3.642	3.212	2.939	2.747	2.412	2.146	1.899	1.851	1.808	1.496	1.477	1.284	1.260	1.665	2.537	2.486	1.315	0.742	0.654	0.578	0.606	0.558	0.659	0.655	0.629	0.555	0.525	1.049	3.532	9.245	24.02	154.9	677.2	707.7	26.11	0.692	0.282	0.237	0.194	0.192	0.121
570.0	12.27	15.93	17.17	14.23	13.20	13.81	17.77	34.48	37.15	22.09	25.47	115.2	756.7	969.9	59.65	10.03	8.731	7.967	7.401	6.885	6.506	6.439	6.273	6.178	5.785	5.732	5.380	5.333	5.267	5.273	4.974	4.674	4.199	3.955	3.605	3.275	2.981	2.711	2.510	2.131	1.905	1.761	1.609	1.498	1.407	1.313	1.146	1.181	1.039	1.034	1.440	2.054	1.697	0.985	0.626	0.543	0.557	0.466	0.443	0.556	0.613	0.487	0.432	0.544	1.128	2.403	5.696	35.01	176.4	481.3	540.0	116.4	4.830	0.287	0.199	0.142	0.104
575.0	9.159	9.879	13.65	12.51	10.14	10.32	12.01	22.51	37.48	24.31	17.95	37.76	229.3	914.5	599.6	10.02	6.920	6.214	5.883	5.580	5.050	4.867	4.806	4.990	4.561	4.718	4.347	3.985	4.125	4.087	3.922	3.651	3.332	3.117	2.855	2.660	2.215	2.100	1.781	1.726	1.415	1.376	1.295	1.270	1.082	1.034	0.937	0.851	0.766	0.761	0.761	1.115	1.687	1.268	0.787	0.513	0.431	0.421	0.346	0.463	0.414	0.480	0.436	0.326	0.469	0.836	1.558	8.119	39.58	109.0	257.0	561.6	164.3	3.119	0.289	0.130	0.110
580.0	9.598	12.33	11.80	10.36	10.24	10.49	11.12	15.01	31.89	29.20	15.79	18.42	63.60	503.2	 1026	55.51	5.759	5.147	4.878	4.255	4.186	3.939	3.815	4.049	3.854	3.828	3.492	3.584	3.446	3.363	3.265	2.977	2.846	2.556	2.316	2.183	1.839	1.638	1.549	1.436	1.278	1.209	0.998	1.044	0.965	0.821	0.843	0.832	0.620	0.594	0.583	0.696	1.189	1.442	0.867	0.531	0.399	0.342	0.290	0.350	0.335	0.439	0.477	0.355	0.297	0.362	0.543	2.006	9.096	24.54	61.34	322.4	499.4	28.61	0.827	0.201	0.151
585.0	7.424	10.69	10.90	9.517	8.571	8.922	9.516	11.65	23.02	33.26	16.22	12.46	23.02	204.5	992.8	374.8	4.983	4.435	4.013	3.888	3.524	3.345	3.161	3.466	3.126	2.896	2.938	2.867	3.052	2.579	2.564	2.508	2.350	2.060	2.143	1.859	1.549	1.455	1.360	1.147	1.025	1.000	0.982	0.926	0.831	0.726	0.663	0.666	0.586	0.601	0.488	0.511	0.761	1.167	0.979	0.688	0.332	0.309	0.261	0.275	0.316	0.331	0.376	0.427	0.232	0.299	0.294	0.725	2.230	5.739	14.00	83.26	361.2	364.6	22.09	0.437	0.151
590.0	6.646	9.698	10.37	6.887	7.155	6.502	7.563	8.879	14.20	30.37	22.48	11.31	11.98	57.18	465.8	844.4	46.48	4.163	3.469	3.386	2.984	2.662	2.710	2.603	2.411	2.433	2.398	2.465	2.302	2.291	2.103	2.032	1.868	1.606	1.549	1.467	1.282	1.173	1.074	1.031	0.843	0.809	0.769	0.757	0.770	0.646	0.580	0.470	0.500	0.473	0.434	0.415	0.438	0.688	1.055	0.899	0.511	0.317	0.241	0.238	0.268	0.264	0.293	0.362	0.339	0.274	0.223	0.326	0.683	1.424	3.322	18.80	93.25	243.9	264.9	91.99	3.300
595.0	5.351	7.366	9.963	6.088	6.533	5.329	6.760	7.483	10.90	21.13	28.17	14.27	9.329	18.88	128.2	662.9	502.1	6.044	2.961	3.016	2.422	2.212	2.313	2.247	2.088	2.013	1.935	1.832	1.840	1.872	1.825	1.649	1.492	1.411	1.242	1.145	1.068	0.956	0.847	0.752	0.824	0.631	0.619	0.558	0.553	0.530	0.436	0.437	0.394	0.351	0.313	0.323	0.325	0.402	0.656	0.906	0.616	0.388	0.243	0.237	0.240	0.190	0.246	0.234	0.283	0.306	0.218	0.254	0.304	0.456	0.872	4.353	20.91	55.14	128.8	310.1	31.28
600.0	5.544	6.207	7.911	5.195	4.304	5.491	6.555	7.427	10.61	14.69	27.34	18.07	9.078	10.09	34.70	319.8	798.7	48.28	2.981	2.380	2.318	2.019	2.004	2.022	1.680	1.604	1.726	1.553	1.508	1.520	1.430	1.343	1.362	1.064	1.035	0.831	0.846	0.781	0.744	0.685	0.645	0.527	0.558	0.477	0.503	0.494	0.413	0.354	0.308	0.325	0.276	0.259	0.315	0.301	0.397	0.721	0.690	0.447	0.241	0.221	0.147	0.189	0.176	0.176	0.218	0.363	0.222	0.235	0.166	0.231	0.296	1.084	4.812	12.44	30.70	166.2	251.5
605.0	6.716	6.052	7.011	5.983	5.166	5.822	5.911	7.006	9.117	11.73	23.23	23.21	10.31	8.165	13.66	114.9	707.8	318.4	3.364	2.143	2.041	2.011	1.722	1.677	1.564	1.547	1.447	1.450	1.475	1.362	1.256	1.104	1.200	1.072	0.925	0.816	0.698	0.739	0.738	0.644	0.550	0.531	0.541	0.497	0.466	0.438	0.410	0.340	0.316	0.309	0.284	0.251	0.239	0.226	0.259	0.480	0.650	0.531	0.367	0.189	0.163	0.187	0.176	0.139	0.177	0.251	0.300	0.191	0.126	0.158	0.198	0.343	1.231	2.898	6.983	42.58	189.8
610.0	5.211	6.741	6.756	5.568	4.883	5.289	5.467	7.801	9.189	11.24	16.96	26.41	14.49	8.874	9.107	31.50	300.5	643.2	41.45	2.221	1.911	1.694	1.521	1.435	1.221	1.323	1.195	1.239	1.173	1.178	1.147	0.952	0.940	0.966	0.739	0.682	0.611	0.564	0.637	0.577	0.517	0.469	0.425	0.432	0.394	0.373	0.321	0.287	0.276	0.269	0.263	0.185	0.191	0.188	0.219	0.333	0.399	0.583	0.460	0.235	0.178	0.168	0.160	0.154	0.141	0.187	0.246	0.239	0.190	0.161	0.141	0.180	0.378	0.748	1.718	9.615	48.46
615.0	4.159	6.945	6.741	5.774	4.557	5.167	5.641	7.050	8.397	10.23	12.00	21.10	19.40	8.821	7.372	10.96	79.16	451.5	461.9	5.030	1.688	1.360	1.356	1.261	1.165	1.192	0.983	0.940	0.968	0.897	0.942	0.778	0.764	0.804	0.629	0.585	0.525	0.513	0.502	0.460	0.413	0.437	0.368	0.342	0.345	0.295	0.257	0.243	0.218	0.206	0.197	0.186	0.167	0.169	0.204	0.203	0.218	0.393	0.531	0.284	0.165	0.185	0.152	0.146	0.173	0.136	0.189	0.197	0.219	0.167	0.120	0.136	0.190	0.238	0.464	2.221	10.88
620.0	6.263	6.904	4.267	4.898	4.573	3.962	5.424	6.887	8.087	9.502	10.36	15.51	21.94	9.912	6.571	6.731	21.64	196.7	678.3	48.81	1.740	1.331	1.276	1.109	1.082	0.966	0.898	0.892	0.870	0.875	0.843	0.761	0.660	0.621	0.641	0.591	0.519	0.429	0.355	0.441	0.328	0.392	0.309	0.276	0.310	0.271	0.324	0.236	0.209	0.208	0.213	0.196	0.140	0.142	0.173	0.189	0.153	0.279	0.410	0.346	0.230	0.139	0.135	0.125	0.195	0.136	0.120	0.170	0.207	0.182	0.128	0.114	0.122	0.127	0.162	0.568	2.509
625.0	4.491	5.589	4.452	4.693	5.597	4.932	4.834	6.512	8.122	8.537	9.583	12.69	20.60	13.53	6.855	5.595	8.669	64.79	555.0	307.6	2.048	1.336	1.139	1.016	1.116	0.840	0.722	0.759	0.737	0.705	0.725	0.730	0.635	0.509	0.529	0.493	0.483	0.382	0.317	0.353	0.285	0.302	0.313	0.269	0.332	0.234	0.308	0.261	0.196	0.184	0.146	0.192	0.155	0.130	0.149	0.149	0.122	0.198	0.299	0.384	0.287	0.138	0.151	0.083	0.132	0.097	0.150	0.111	0.149	0.183	0.165	0.094	0.108	0.068	0.119	0.191	0.675
630.0	3.903	4.948	4.282	4.896	4.403	5.051	5.113	5.989	7.471	7.819	9.714	10.69	15.94	17.58	7.936	5.362	5.738	18.04	214.1	546.4	90.36	1.399	1.135	0.925	0.872	0.804	0.770	0.740	0.723	0.684	0.578	0.564	0.553	0.524	0.428	0.465	0.421	0.376	0.330	0.328	0.311	0.290	0.270	0.254	0.286	0.224	0.248	0.235	0.211	0.188	0.151	0.158	0.148	0.126	0.128	0.149	0.160	0.147	0.188	0.247	0.281	0.187	0.123	0.101	0.124	0.102	0.141	0.104	0.122	0.130	0.163	0.120	0.099	0.073	0.060	0.112	0.201
635.0	3.531	5.207	5.790	5.133	4.497	4.189	5.484	6.473	7.356	7.201	8.843	10.48	12.43	17.38	11.26	5.902	5.329	7.034	52.91	340.9	418.8	5.177	1.132	0.832	0.888	0.782	0.834	0.668	0.606	0.654	0.584	0.507	0.505	0.460	0.459	0.533	0.340	0.424	0.290	0.264	0.279	0.247	0.272	0.264	0.218	0.212	0.228	0.209	0.204	0.167	0.151	0.154	0.131	0.129	0.105	0.128	0.104	0.150	0.128	0.164	0.229	0.178	0.146	0.115	0.120	0.122	0.107	0.118	0.082	0.111	0.110	0.148	0.100	0.092	0.088	0.078	0.084
640.0	3.945	7.028	5.553	4.171	4.393	4.186	6.001	5.202	6.690	7.710	8.710	9.939	10.78	15.19	15.02	6.252	5.395	4.702	14.09	131.3	575.4	44.50	1.149	0.852	0.919	0.639	0.786	0.573	0.596	0.500	0.537	0.442	0.374	0.438	0.420	0.430	0.322	0.329	0.287	0.270	0.193	0.190	0.229	0.217	0.215	0.180	0.188	0.196	0.166	0.189	0.183	0.132	0.156	0.114	0.156	0.134	0.127	0.127	0.105	0.133	0.182	0.200	0.170	0.103	0.096	0.118	0.084	0.104	0.128	0.100	0.063	0.097	0.126	0.061	0.083	0.051	0.049
645.0	5.095	6.301	5.635	5.068	3.970	4.323	5.385	5.425	6.564	7.475	8.862	9.520	10.04	11.38	16.53	7.006	5.141	4.226	5.318	39.98	437.6	283.7	2.019	1.005	0.847	0.613	0.603	0.526	0.527	0.486	0.592	0.400	0.454	0.405	0.359	0.325	0.300	0.311	0.251	0.261	0.208	0.170	0.233	0.150	0.220	0.188	0.218	0.166	0.119	0.165	0.167	0.144	0.125	0.121	0.125	0.110	0.120	0.118	0.111	0.104	0.151	0.168	0.174	0.154	0.106	0.073	0.096	0.094	0.111	0.136	0.089	0.121	0.130	0.098	0.087	0.054	0.036
650.0	3.130	5.634	6.027	5.207	4.875	4.477	4.722	5.161	5.699	7.339	8.350	8.382	8.723	9.757	15.24	9.590	4.923	4.155	3.509	11.22	198.2	484.7	23.62	1.027	0.811	0.692	0.619	0.578	0.608	0.461	0.493	0.519	0.397	0.357	0.316	0.338	0.262	0.239	0.254	0.257	0.208	0.169	0.179	0.207	0.172	0.189	0.234	0.139	0.191	0.164	0.149	0.160	0.126	0.131	0.122	0.134	0.092	0.100	0.076	0.082	0.074	0.120	0.155	0.147	0.135	0.101	0.120	0.108	0.081	0.091	0.070	0.064	0.115	0.142	0.079	0.056	0.022
