Sample:	'1
File name:	c2025052202²ÜÐÁ×¯´å¶«ÇÅ.FD3
Run date:	'12:30:19, 05/23/2025
Operator:	Administrator
Comment:	'

Instrument
Model:	F-2700 FL Spectrophotometer
Serial number:	23B8-004
ROM Version:	4J14000 07

Instrument parameters
Measurement type:	3-D scan
Data mode:	Fluorescence
EX  Start WL:	220.0 nm
EX  End WL:	600.0 nm
EX Sampling interval:	5.0 nm
EM  Start WL:	230.0 nm
EM  End WL:	650.0 nm
EM Sampling interval:	5.0 nm
Scan speed:	12000 nm/min
EX Slit:	5.0 nm
EM Slit:	5.0 nm
PMT Voltage:	700 V
Response:	Auto 
Corrected spectra:	Off
Contour interval:	50.000

Peak integration
Integration method:	Rectangular
Sensitivity:	1
Threshold:	1.000

Peaks
No.	ApexEX/EM(nm)	Height(Data)
1	225.0/580.0	72.06
2	225.0/615.0	67.25
3	225.0/635.0	75.89
4	230.0/340.0	2239
5	230.0/600.0	62.83
6	240.0/265.0	334.7
7	240.0/520.0	258.1
8	245.0/270.0	336.3
9	245.0/535.0	217.2
10	250.0/545.0	174.5
11	255.0/280.0	532.2
12	255.0/560.0	141.6
13	260.0/285.0	559.7
14	260.0/570.0	113.6
15	265.0/585.0	113.7
16	270.0/600.0	98.78
17	275.0/410.0	1010
18	275.0/610.0	122.7
19	280.0/310.0	1830
20	280.0/625.0	114.1
21	285.0/320.0	1772
22	285.0/635.0	91.60
23	445.0/525.0	21.41
24	475.0/345.0	6.553
25	505.0/275.0	3.053
26	510.0/280.0	3.036
27	520.0/285.0	3.775
28	530.0/290.0	3.708
29	565.0/310.0	9.299
30	570.0/315.0	9.118
31	580.0/320.0	9.353
32	585.0/325.0	8.994

Data points
	220.0	225.0	230.0	235.0	240.0	245.0	250.0	255.0	260.0	265.0	270.0	275.0	280.0	285.0	290.0	295.0	300.0	305.0	310.0	315.0	320.0	325.0	330.0	335.0	340.0	345.0	350.0	355.0	360.0	365.0	370.0	375.0	380.0	385.0	390.0	395.0	400.0	405.0	410.0	415.0	420.0	425.0	430.0	435.0	440.0	445.0	450.0	455.0	460.0	465.0	470.0	475.0	480.0	485.0	490.0	495.0	500.0	505.0	510.0	515.0	520.0	525.0	530.0	535.0	540.0	545.0	550.0	555.0	560.0	565.0	570.0	575.0	580.0	585.0	590.0	595.0	600.0
230.0	56.20	959.5	2403	702.7	35.06	7.522	6.770	5.868	5.091	4.526	4.022	3.743	3.434	3.112	2.564	2.152	1.799	1.593	1.492	1.354	1.114	1.243	1.014	0.991	0.961	0.947	0.819	0.728	0.743	0.725	0.747	0.708	0.654	0.602	0.581	0.512	0.534	0.515	0.471	0.489	0.458	0.618	0.579	0.459	0.415	0.450	1.486	5.472	8.882	6.207	2.080	0.534	0.290	0.341	0.337	0.298	0.334	0.329	0.320	0.329	0.314	0.314	0.303	0.289	0.331	0.324	0.347	0.328	0.299	0.303	0.308	0.300	0.312	0.294	0.311	0.303	0.325
235.0	102.3	274.2	1516	2717	572.6	57.40	7.627	6.017	4.763	4.584	4.549	3.684	3.345	3.631	2.866	2.107	1.781	1.631	1.598	1.228	1.345	1.184	1.139	1.060	0.989	0.988	0.871	0.790	0.780	0.735	0.754	0.760	0.618	0.586	0.632	0.472	0.472	0.517	0.534	0.503	0.419	0.489	0.558	0.657	0.568	0.501	0.623	1.690	3.878	6.806	9.533	9.770	4.445	1.108	0.350	0.347	0.331	0.326	0.337	0.343	0.363	0.302	0.276	0.297	0.308	0.311	0.361	0.359	0.240	0.285	0.303	0.301	0.281	0.321	0.350	0.300	0.339
240.0	151.4	140.2	454.7	2274	3009	453.6	30.48	7.875	5.800	4.920	5.641	4.840	3.417	3.217	2.606	2.004	1.755	1.830	1.546	1.321	1.193	1.183	1.215	0.992	0.805	0.940	0.807	0.935	0.762	0.725	0.703	0.697	0.668	0.645	0.667	0.509	0.479	0.530	0.453	0.514	0.461	0.422	0.487	0.532	0.726	0.737	0.607	0.690	1.149	2.211	5.523	13.14	15.79	10.48	3.642	0.689	0.333	0.303	0.369	0.313	0.342	0.279	0.299	0.308	0.337	0.274	0.362	0.368	0.284	0.329	0.335	0.316	0.253	0.297	0.272	0.350	0.329
245.0	111.2	186.3	166.8	763.6	3190	3172	344.4	15.98	6.761	5.421	5.992	5.073	4.417	3.533	2.855	2.451	2.132	1.984	1.504	1.276	1.308	1.063	1.104	1.017	0.848	0.890	0.876	0.881	0.882	0.802	0.668	0.722	0.625	0.619	0.581	0.498	0.457	0.532	0.448	0.496	0.424	0.444	0.436	0.424	0.579	0.706	0.847	0.748	0.610	0.778	1.537	4.535	11.38	18.67	18.49	9.657	2.459	0.603	0.371	0.297	0.330	0.316	0.338	0.330	0.286	0.294	0.353	0.335	0.298	0.327	0.356	0.337	0.306	0.333	0.338	0.309	0.407
250.0	52.82	137.1	226.3	262.2	994.2	2955	3799	1288	84.26	7.781	6.974	5.786	4.933	3.844	3.251	2.492	2.213	1.845	1.703	1.417	1.362	1.132	1.249	0.997	0.962	1.095	0.970	0.845	0.910	0.822	0.764	0.778	0.703	0.658	0.619	0.522	0.520	0.543	0.481	0.481	0.479	0.528	0.460	0.398	0.472	0.480	0.629	0.784	0.994	0.907	0.806	1.375	2.971	6.134	11.55	16.92	21.18	18.47	10.19	2.924	0.470	0.324	0.381	0.347	0.339	0.321	0.380	0.357	0.317	0.374	0.391	0.361	0.303	0.337	0.341	0.387	0.418
255.0	39.83	52.65	156.2	307.4	313.9	737.6	2777	6036	1829	96.87	9.189	6.928	6.038	4.427	3.569	2.826	2.531	2.051	1.870	1.496	1.441	1.342	1.211	1.072	1.124	1.071	0.993	0.882	0.935	0.873	0.825	0.876	0.756	0.576	0.650	0.564	0.562	0.518	0.470	0.479	0.427	0.506	0.459	0.460	0.427	0.422	0.413	0.530	0.579	0.834	1.225	1.346	1.191	1.693	2.851	4.235	7.916	19.28	33.39	28.51	16.37	3.129	0.452	0.360	0.361	0.368	0.351	0.401	0.385	0.348	0.372	0.343	0.295	0.333	0.315	0.322	0.358
260.0	37.15	29.72	65.11	250.6	306.8	224.6	818.1	4530	6966	1438	53.09	9.426	6.892	4.802	4.077	3.146	3.014	2.158	1.685	1.719	1.665	1.265	1.330	1.275	1.163	1.089	1.183	1.073	0.971	1.036	0.862	0.796	0.723	0.708	0.596	0.570	0.591	0.541	0.527	0.533	0.433	0.569	0.517	0.474	0.420	0.460	0.373	0.446	0.457	0.517	0.844	1.616	1.736	1.210	1.062	1.262	2.107	5.330	14.20	29.86	44.82	27.37	12.99	1.681	0.411	0.372	0.437	0.353	0.406	0.311	0.392	0.450	0.314	0.365	0.354	0.321	0.355
265.0	35.59	28.03	33.48	112.7	334.7	246.1	223.7	1444	6474	7415	238.4	24.40	8.825	6.818	5.388	3.737	2.953	2.577	1.883	1.618	1.604	1.377	1.276	1.393	1.295	1.087	1.067	1.098	0.876	1.008	0.959	0.872	0.811	0.643	0.526	0.574	0.567	0.573	0.538	0.532	0.464	0.572	0.448	0.481	0.444	0.490	0.432	0.444	0.410	0.354	0.479	0.889	1.499	1.917	1.513	0.822	0.904	1.535	3.626	8.857	23.64	42.79	50.80	24.88	7.912	0.955	0.458	0.354	0.323	0.311	0.378	0.396	0.388	0.361	0.348	0.335	0.371
270.0	54.45	42.90	37.19	49.35	152.1	336.3	286.1	383.5	1924	6016	8348	3047	69.26	9.975	6.878	4.667	4.001	3.172	2.538	2.127	1.837	1.629	1.404	1.399	1.241	1.100	1.076	1.084	0.951	1.100	1.009	0.847	0.876	0.740	0.719	0.608	0.656	0.588	0.552	0.513	0.455	0.526	0.478	0.560	0.488	0.484	0.489	0.463	0.475	0.415	0.414	0.508	0.749	1.146	1.715	1.966	1.802	1.345	1.256	2.424	5.769	12.29	24.26	36.98	37.01	42.34	17.04	7.339	1.069	0.388	0.455	0.419	0.362	0.385	0.458	0.386	0.437
275.0	113.6	102.8	86.57	61.59	67.24	149.0	416.8	361.6	489.3	1456	4688	9999.9	1338	83.63	10.70	6.987	5.045	4.126	3.078	2.737	2.022	1.714	1.560	1.479	1.450	1.316	1.238	1.151	1.170	1.026	0.893	0.884	0.827	0.699	0.725	0.658	0.732	0.634	0.642	0.594	0.484	0.641	0.661	0.613	0.657	0.641	0.636	0.594	0.586	0.528	0.443	0.437	0.542	0.564	0.825	1.127	2.151	3.053	2.365	1.561	1.789	3.246	6.022	9.020	11.14	27.90	57.07	71.83	27.45	8.794	0.821	0.506	0.438	0.405	0.391	0.367	0.420
280.0	186.8	192.7	156.8	97.55	67.55	82.49	252.4	532.2	310.0	403.7	1277	6735	9999.9	1071	46.93	9.588	6.056	4.884	3.551	3.155	2.438	1.986	2.014	1.740	1.546	1.396	1.362	1.295	1.124	1.051	0.977	0.841	0.877	0.892	0.813	0.821	0.764	0.648	0.758	0.652	0.717	0.637	0.690	0.660	0.727	0.794	0.847	0.800	0.818	0.563	0.570	0.552	0.643	0.516	0.634	0.683	1.023	1.884	3.036	2.989	1.898	1.339	1.956	2.674	3.109	7.336	19.03	44.86	69.51	69.98	22.96	4.569	0.604	0.501	0.498	0.436	0.355
285.0	245.5	266.9	244.1	160.1	87.39	75.07	132.0	414.8	559.7	255.3	408.7	1925	8739	9270	755.5	21.82	8.330	5.478	3.955	3.224	2.614	2.245	2.351	1.853	1.446	1.284	1.377	1.204	1.219	1.137	1.084	0.955	0.879	0.889	0.958	0.897	0.812	0.833	0.783	0.766	0.849	0.723	0.793	0.861	0.930	0.924	0.990	1.082	0.968	0.865	0.659	0.739	0.672	0.545	0.592	0.639	0.754	1.061	1.654	2.838	3.775	2.450	1.427	1.373	1.616	2.515	5.062	11.81	26.02	56.50	78.32	33.29	17.73	2.291	0.569	0.513	0.486
290.0	350.4	392.8	350.5	239.4	144.1	114.1	126.5	229.3	504.3	619.3	386.1	641.9	2444	6984	8737	2740	44.97	8.515	5.456	4.229	3.396	2.826	2.505	2.080	1.727	1.593	1.511	1.413	1.275	1.150	1.249	1.008	1.026	1.001	1.042	1.064	1.081	1.029	0.962	0.896	0.899	0.902	0.935	1.035	1.001	1.209	1.261	1.452	1.307	1.187	0.911	0.970	0.848	0.727	0.783	0.811	0.865	0.879	1.118	1.583	2.295	3.181	3.708	3.099	2.309	1.810	2.345	3.754	7.010	14.69	27.45	38.52	56.47	49.09	40.98	12.65	2.923
295.0	445.9	517.1	488.3	336.7	219.4	178.2	183.7	240.1	339.1	628.9	873.7	553.1	843.7	1785	4025	9999.9	3743	53.81	8.200	5.615	4.349	3.333	2.955	2.174	2.082	1.678	1.519	1.485	1.507	1.203	1.215	1.150	0.909	1.004	1.067	1.031	1.095	1.105	1.036	1.004	1.013	1.103	1.068	1.161	1.243	1.494	1.572	1.676	1.585	1.410	1.265	1.329	1.196	1.134	1.044	1.112	1.220	1.249	1.279	1.466	1.580	1.969	2.606	4.010	5.535	4.359	2.772	2.469	3.396	4.973	7.703	9.962	14.39	20.97	49.11	77.11	35.53
300.0	548.3	649.9	628.2	435.6	303.2	269.3	300.1	351.5	367.9	645.2	1145	1042	738.6	790.5	1239	5818	9999.9	658.1	33.13	7.740	5.512	4.468	3.443	2.425	2.524	1.873	1.808	1.711	1.550	1.283	1.318	1.196	1.116	0.961	1.127	1.123	1.122	1.213	1.085	0.997	1.016	1.264	1.100	1.202	1.539	1.824	1.760	1.928	1.992	1.644	1.494	1.732	1.471	1.474	1.289	1.383	1.544	1.778	1.777	2.005	2.183	2.404	2.939	3.652	4.951	6.594	5.984	4.355	3.902	3.839	4.107	4.370	5.210	6.466	14.42	34.15	61.74
305.0	631.1	779.5	781.5	561.1	421.9	392.7	460.4	576.6	689.6	932.8	1296	1715	1258	892.4	817.3	1851	7652	9545	496.5	16.14	6.848	5.270	3.694	2.945	2.888	2.087	1.919	1.830	1.540	1.540	1.301	1.197	1.180	1.125	1.141	1.308	1.392	1.425	1.375	1.181	1.252	1.419	1.300	1.451	1.814	1.894	2.124	2.195	2.417	2.059	1.806	2.016	2.005	1.829	1.894	1.736	2.312	2.593	2.811	3.007	3.507	3.739	4.247	4.959	5.333	6.513	8.287	8.305	6.853	5.518	5.086	4.570	4.327	4.698	5.992	10.39	20.06
310.0	733.8	921.5	929.1	711.9	539.7	516.2	610.6	748.7	899.5	1134	1397	1730	1830	1292	925.2	921.5	2348	6296	6620	1941	31.67	6.676	4.911	3.688	3.159	2.518	2.102	1.940	1.717	1.590	1.429	1.384	1.337	1.205	1.174	1.295	1.353	1.405	1.450	1.390	1.310	1.531	1.498	1.673	1.937	2.250	2.517	2.708	3.061	2.498	2.261	2.340	2.245	2.218	2.379	2.276	2.702	3.256	3.591	3.775	4.149	4.599	5.361	6.008	6.142	6.791	7.610	8.377	9.125	9.299	7.636	6.199	5.225	5.107	4.868	5.310	7.336
315.0	826.0	1109	1116	859.3	659.4	615.4	711.3	860.8	997.5	1229	1484	1709	1803	1767	1156	811.9	1002	1720	3357	9064	2675	35.01	7.423	4.944	3.571	2.855	2.367	2.171	2.002	1.681	1.603	1.447	1.192	1.239	1.177	1.296	1.358	1.424	1.521	1.443	1.225	1.570	1.699	1.778	1.979	2.515	2.821	3.425	3.563	3.109	2.692	2.932	2.785	2.536	2.876	2.716	3.070	3.529	3.872	4.051	4.426	5.237	5.592	6.210	6.675	7.256	7.777	7.738	8.344	8.774	9.118	8.772	7.353	6.416	4.958	4.854	4.476
320.0	931.0	1270	1301	989.1	742.9	683.3	761.6	914.4	1049	1282	1540	1749	1772	1772	1501	888.0	755.1	719.1	923.5	5047	8674	488.6	20.75	6.353	4.410	3.563	2.519	2.384	2.212	1.837	1.893	1.539	1.303	1.350	1.169	1.263	1.400	1.345	1.559	1.579	1.443	1.719	1.833	1.938	2.276	2.855	3.159	3.953	4.029	3.431	3.168	3.111	3.026	2.875	3.104	2.996	3.417	3.717	4.131	4.452	4.527	5.219	5.339	6.304	6.984	7.557	8.011	8.268	8.526	8.468	8.344	9.000	9.353	8.360	6.219	5.223	4.827
325.0	1072	1525	1560	1189	836.6	716.1	803.3	932.3	1070	1270	1529	1740	1738	1633	1571	1036	721.5	507.1	346.7	1367	6387	7033	375.5	10.84	5.477	4.168	3.035	2.563	2.393	2.230	1.919	1.629	1.378	1.383	1.318	1.346	1.451	1.235	1.418	1.610	1.534	1.642	1.785	2.110	2.450	3.112	3.856	4.734	4.619	4.202	3.700	3.535	3.316	3.124	3.096	3.165	3.422	3.828	4.148	4.526	4.589	5.000	5.705	6.447	7.105	7.133	7.603	7.886	8.751	8.111	8.026	8.193	8.402	8.994	7.847	5.863	4.991
330.0	1179	1723	1962	1602	1090	839.6	819.8	925.0	1041	1225	1469	1671	1687	1559	1396	1181	842.9	492.1	261.8	416.9	1716	4994	5378	1506	24.38	5.663	4.255	3.112	3.042	2.279	2.114	1.799	1.618	1.455	1.422	1.382	1.464	1.453	1.422	1.531	1.589	1.547	1.869	2.210	2.635	3.487	4.479	5.279	5.621	5.167	4.767	4.834	4.359	3.906	3.598	3.274	3.643	3.895	4.037	4.185	4.569	5.001	5.531	6.140	6.553	6.868	7.385	7.761	8.103	8.069	7.800	7.909	7.492	7.657	7.432	7.024	6.395
335.0	1242	1875	2199	1896	1404	986.5	845.3	913.1	1008	1179	1413	1599	1622	1526	1317	1071	999.9	638.9	303.7	253.0	492.4	1208	3095	7688	2111	27.35	5.803	3.943	2.963	2.757	2.445	1.929	1.568	1.608	1.387	1.322	1.357	1.428	1.546	1.532	1.694	1.534	1.933	2.318	2.868	3.731	4.592	5.880	6.176	5.949	5.490	5.913	5.432	4.857	4.271	3.631	3.901	3.783	4.150	4.287	4.549	4.892	5.274	5.592	6.360	6.808	7.148	7.509	7.840	7.883	7.825	7.708	7.294	7.284	6.518	5.869	5.888
340.0	1287	1916	2239	1994	1501	1048	853.3	900.2	973.9	1133	1340	1513	1540	1463	1259	997.6	905.0	775.6	383.0	246.8	242.7	364.1	827.6	4786	7234	410.0	14.41	5.210	3.666	3.004	2.564	2.132	1.616	1.601	1.312	1.469	1.438	1.436	1.476	1.323	1.553	1.646	1.873	2.083	2.870	3.610	4.655	5.779	6.462	6.218	5.495	6.386	5.715	4.997	4.602	3.908	3.858	3.732	4.191	4.230	4.518	4.818	5.229	5.578	5.916	6.642	6.910	6.587	7.556	7.695	7.389	7.442	6.782	6.737	6.465	5.858	5.114
345.0	1185	1830	2213	2028	1528	1056	843.3	883.1	944.8	1077	1257	1407	1442	1377	1194	952.0	796.0	743.3	520.8	281.6	211.3	199.1	268.6	1324	5908	5751	313.0	8.580	4.688	3.401	2.639	2.422	1.842	1.674	1.450	1.424	1.355	1.346	1.439	1.415	1.504	1.510	1.940	2.267	2.649	3.405	4.548	5.381	6.486	6.076	5.835	6.553	5.867	5.296	4.496	3.675	3.838	3.848	4.113	4.245	4.357	4.642	4.950	5.430	5.645	6.410	6.304	6.606	6.689	7.065	7.171	6.962	6.518	6.584	5.753	5.517	4.979
350.0	1095	1700	2094	1958	1546	1088	869.6	863.8	916.4	1023	1164	1286	1321	1276	1129	916.9	758.8	639.1	582.5	431.2	266.6	202.3	179.5	378.1	1641	4460	4519	1232	20.34	4.931	3.619	2.603	2.033	1.832	1.568	1.479	1.438	1.526	1.360	1.428	1.399	1.550	1.897	2.117	2.477	3.341	3.955	5.226	5.779	5.905	5.542	6.170	6.168	5.236	4.490	3.869	3.843	3.834	3.892	4.158	4.352	4.315	4.693	5.142	5.390	5.793	5.662	6.063	6.476	6.518	6.433	6.414	6.288	6.300	5.852	5.343	5.149
355.0	984.1	1531	1883	1854	1503	1118	895.0	873.0	911.9	997.2	1102	1180	1211	1169	1055	885.1	751.0	623.0	526.8	534.7	403.2	255.7	203.3	201.8	442.6	1068	2884	6289	413.4	22.29	4.844	3.410	2.407	2.185	1.774	1.570	1.542	1.514	1.389	1.376	1.524	1.649	1.781	2.051	2.309	2.969	3.427	4.774	5.183	5.453	5.166	5.842	5.908	5.442	4.637	3.935	4.108	3.978	3.859	3.899	4.210	4.340	4.740	4.872	4.985	5.168	5.600	5.744	5.736	6.029	5.848	6.104	6.092	5.766	5.430	5.248	4.999
360.0	936.6	1407	1745	1748	1465	1112	914.0	888.3	917.9	977.3	1055	1127	1138	1109	1013	855.7	743.3	628.4	521.0	508.8	510.9	339.8	235.5	186.0	196.6	304.7	771.5	4346	5670	363.6	11.48	4.394	3.036	2.451	1.914	1.489	1.410	1.462	1.431	1.461	1.460	1.582	1.552	1.759	2.282	3.015	3.293	4.491	4.834	4.783	4.896	5.492	5.648	5.489	4.772	3.864	4.007	4.009	4.032	4.098	4.238	4.297	4.706	4.909	4.890	5.043	5.423	5.100	5.264	5.530	5.603	5.498	5.629	5.335	5.246	5.301	4.814
365.0	895.9	1279	1608	1597	1379	1112	927.4	890.7	913.6	962.4	1027	1083	1087	1050	965.2	838.2	738.7	640.0	540.2	490.3	511.8	453.6	289.3	210.4	168.0	155.6	231.4	1251	5349	3254	51.41	7.100	3.952	2.536	2.084	1.794	1.631	1.420	1.502	1.565	1.516	1.537	1.595	1.785	2.070	2.918	2.957	3.988	4.492	4.598	4.618	5.115	5.574	5.055	4.517	4.035	4.030	4.001	4.269	4.131	4.042	4.256	4.510	4.760	4.658	5.064	5.201	4.828	4.945	5.495	5.280	5.269	5.385	5.341	5.271	5.333	4.884
370.0	824.8	1165	1460	1495	1344	1119	940.3	909.3	918.1	957.0	1007	1032	1036	999.6	923.3	820.0	736.7	655.8	576.2	518.5	485.9	494.8	415.0	276.5	202.0	156.8	139.8	342.1	1542	3869	4188	1061	17.58	4.018	2.679	2.184	1.900	1.550	1.468	1.467	1.494	1.527	1.537	1.744	2.035	2.580	2.815	3.577	4.312	4.194	4.168	5.076	5.239	4.680	4.437	4.038	4.161	4.127	4.223	4.072	4.153	4.319	4.484	4.580	4.696	4.897	4.880	4.905	4.963	5.206	4.934	5.126	5.109	5.192	5.100	4.694	4.762
375.0	728.2	1077	1334	1383	1293	1101	962.1	912.1	921.5	947.5	994.5	999.2	1001	953.7	884.1	793.9	733.2	666.5	599.2	552.5	500.5	473.0	482.5	397.3	264.4	197.5	160.1	175.9	414.3	947.6	2965	5621	353.4	19.40	4.132	2.834	2.177	1.876	1.527	1.489	1.461	1.473	1.675	1.761	2.152	2.476	2.827	3.250	3.927	3.609	3.911	4.638	5.050	4.692	4.495	4.110	4.332	4.291	4.232	4.256	4.354	4.018	4.626	4.607	4.356	4.565	4.761	4.654	5.025	5.369	4.765	4.915	5.155	4.964	5.084	4.630	4.900
380.0	709.0	1016	1261	1319	1255	1095	968.1	925.3	936.9	958.3	994.2	983.0	985.5	940.5	861.2	778.1	725.9	675.3	616.8	575.8	525.3	480.6	467.6	472.8	336.8	238.4	195.8	167.4	187.1	283.4	828.3	4107	4771	297.1	9.255	3.617	2.653	2.015	1.733	1.605	1.492	1.579	1.781	1.734	1.956	2.337	2.739	3.212	3.450	3.711	3.834	4.682	4.747	4.700	4.506	4.298	4.347	4.288	4.253	4.311	4.201	4.389	4.749	4.485	4.365	4.686	4.848	4.446	4.928	4.894	4.863	4.782	4.833	4.756	4.890	4.790	4.642
385.0	679.2	997.6	1187	1257	1229	1091	978.4	918.6	936.3	943.3	977.0	965.7	972.2	917.5	834.8	764.9	722.3	678.4	633.1	587.7	542.4	498.4	464.5	474.5	426.8	289.2	232.8	192.1	159.9	154.7	264.0	1228	4594	2704	41.60	5.642	3.384	2.423	2.084	1.772	1.606	1.609	1.646	1.816	2.053	2.349	2.558	3.202	3.374	3.419	3.506	4.144	4.771	4.407	4.602	4.164	4.249	4.412	4.185	4.328	4.296	4.501	4.854	4.397	4.708	4.561	4.788	4.511	4.837	4.766	4.995	4.635	4.692	4.594	4.639	4.654	4.712
390.0	666.1	920.8	1113	1173	1177	1071	978.3	941.4	929.6	936.9	961.2	945.7	935.4	893.4	811.4	745.9	706.9	670.0	632.1	593.4	554.9	518.4	481.3	454.1	448.3	390.2	291.3	231.5	186.5	154.3	155.8	345.8	1329	3088	3192	838.5	14.99	3.737	2.508	2.027	1.685	1.724	1.840	1.749	1.899	2.196	2.451	3.025	3.222	3.227	3.206	4.178	4.570	4.580	4.308	4.141	4.321	4.247	4.255	4.250	4.339	4.364	4.317	4.311	4.496	4.456	4.506	4.379	4.499	4.721	4.682	4.469	4.558	4.669	4.475	4.649	4.649
395.0	623.0	882.6	1047	1111	1134	1053	974.1	946.8	945.0	932.7	954.9	942.5	918.5	882.9	800.7	743.0	701.1	657.0	634.6	600.3	570.4	543.7	508.8	477.0	445.3	445.2	395.7	293.5	238.2	195.5	168.2	175.6	358.6	753.7	2222	4197	291.8	17.97	3.783	2.636	1.982	1.766	1.734	1.847	1.843	2.328	2.309	2.885	3.160	2.907	3.274	3.994	4.443	4.214	4.253	4.044	4.453	4.266	4.223	4.070	4.263	4.464	4.315	4.254	4.213	4.600	4.407	4.095	4.423	4.369	4.402	4.418	4.663	4.519	4.363	4.502	4.482
400.0	634.4	852.8	1013	1098	1108	1064	966.1	956.9	946.2	947.0	962.0	949.9	939.7	896.7	802.1	739.3	690.6	662.6	635.7	598.3	583.6	561.2	532.8	504.5	468.6	451.5	463.2	376.3	293.5	244.9	207.6	169.4	164.4	226.7	612.7	2987	3604	258.8	9.758	3.194	2.124	2.078	1.923	1.899	1.880	2.186	2.192	2.970	3.081	2.987	3.165	3.844	4.296	4.133	4.167	3.995	4.473	4.252	4.243	4.069	4.387	4.197	4.309	4.288	4.191	4.546	4.396	4.220	4.568	4.557	4.611	4.394	4.545	4.441	4.272	4.465	4.484
405.0	634.3	815.4	956.1	1055	1077	1034	985.2	966.5	960.9	968.4	998.3	989.5	962.3	904.6	822.2	744.6	694.3	657.1	633.4	605.9	591.5	578.4	556.5	536.6	506.6	475.4	488.8	466.6	360.8	295.1	253.8	201.9	148.8	128.1	193.1	878.2	3356	2302	37.79	5.631	2.744	2.091	2.078	1.925	2.024	2.287	2.306	2.975	2.968	2.905	3.157	3.815	3.881	4.123	4.235	3.987	4.314	4.270	4.311	4.259	4.173	4.485	4.399	4.435	4.498	4.579	4.388	4.139	4.407	4.434	4.637	4.731	4.211	4.166	4.188	4.088	4.517
410.0	616.4	779.6	933.6	1011	1029	1002	966.0	960.1	967.7	986.9	1009	1010	966.2	908.9	813.1	742.7	678.2	639.5	619.8	601.3	589.6	583.6	569.7	559.0	537.6	509.1	494.3	495.3	450.3	359.7	299.1	239.7	174.0	130.1	117.0	252.0	968.4	2334	2526	738.4	13.36	3.059	2.366	2.033	2.106	2.329	2.374	2.811	2.963	3.020	2.889	3.754	3.996	4.164	4.246	3.934	4.266	4.460	4.367	4.267	4.324	4.435	4.359	4.579	4.419	4.630	4.370	4.274	4.254	4.505	4.545	4.439	4.200	4.247	4.109	4.155	4.347
415.0	557.7	758.3	876.0	956.4	987.2	963.6	960.7	946.0	957.4	985.7	992.0	976.4	941.9	874.4	792.5	710.2	647.5	610.8	590.9	577.2	567.1	566.8	563.4	559.9	537.6	519.1	496.2	472.9	465.1	420.6	327.1	260.6	191.9	144.7	110.2	119.1	259.1	565.5	1614	3154	266.4	15.52	3.095	2.354	2.171	2.523	2.465	2.704	2.839	2.933	2.787	3.587	3.710	3.887	4.069	3.913	4.120	4.402	4.170	4.249	4.465	4.124	4.304	4.527	4.280	4.238	4.355	4.201	4.151	4.154	4.365	4.374	4.039	4.319	3.997	4.158	4.169
420.0	520.1	749.5	833.3	948.2	967.7	931.2	921.7	933.0	934.4	944.3	969.5	947.7	906.8	835.7	756.5	675.7	621.3	582.7	562.4	557.6	549.6	547.2	552.0	546.4	530.7	514.3	488.4	462.1	444.9	434.3	356.2	268.6	197.3	150.5	114.6	93.70	104.0	155.5	424.6	2110	2198	238.5	8.418	2.755	2.370	2.461	2.393	2.805	2.998	2.651	2.770	3.449	3.748	3.921	3.839	3.725	4.017	4.255	4.117	4.028	4.117	4.171	4.298	4.435	4.109	4.205	4.122	4.048	4.088	4.271	4.033	4.027	4.037	3.942	4.074	3.971	3.821
425.0	522.2	705.8	828.7	909.2	915.5	907.6	905.6	907.6	902.1	929.3	947.0	934.3	879.9	810.7	730.5	643.3	598.8	555.5	540.3	533.3	529.3	525.5	530.3	529.0	517.5	503.0	485.7	456.0	430.5	417.2	387.0	285.6	208.0	158.3	121.2	92.42	74.08	66.86	116.0	588.2	2254	2077	35.58	4.778	2.709	2.430	2.287	2.711	2.817	2.580	2.699	3.316	3.609	3.579	3.854	3.858	3.959	4.113	4.264	4.070	3.899	3.920	4.386	4.428	4.141	4.257	4.160	3.981	4.050	4.086	4.072	4.163	3.921	3.942	3.816	3.714	3.747
430.0	585.3	663.1	778.1	852.0	870.5	873.4	879.8	901.0	909.9	922.5	934.2	917.8	855.7	791.3	705.0	624.8	563.8	530.9	511.8	505.8	503.8	508.1	511.6	514.7	510.0	494.4	482.7	460.5	431.8	403.9	382.6	328.5	236.4	175.7	134.6	104.0	76.07	54.39	51.64	148.8	617.9	1700	2051	695.2	13.59	3.173	2.738	2.819	2.673	2.547	2.696	3.305	3.516	3.537	3.650	3.753	3.911	4.036	4.053	4.090	3.982	3.996	4.227	4.239	4.049	4.002	3.914	4.023	4.060	3.897	3.857	3.572	3.830	3.680	3.778	3.504	3.608
435.0	806.3	627.7	730.8	807.7	844.6	853.7	862.5	878.5	897.3	915.0	917.1	900.3	829.1	759.1	678.7	599.6	540.1	500.6	481.8	480.6	478.4	484.4	492.0	499.0	493.1	483.3	474.3	457.8	431.7	402.1	364.3	333.3	273.8	198.3	149.9	117.0	84.34	59.03	43.28	54.74	153.2	398.6	1126	2622	994.5	18.22	3.293	2.935	2.851	2.661	2.542	3.299	3.439	3.361	3.415	3.528	3.836	3.825	3.949	4.134	4.032	4.165	4.076	4.133	3.922	3.749	3.834	3.923	3.937	3.760	3.592	3.742	3.788	3.387	3.570	3.334	3.317
440.0	1079	710.7	721.7	773.6	814.1	813.0	832.8	861.6	872.0	881.2	910.1	871.5	811.8	728.8	649.7	574.1	512.8	482.5	463.7	458.9	458.5	465.8	470.7	474.6	474.6	468.3	459.8	445.8	424.5	395.2	354.0	315.1	281.5	218.3	159.8	122.9	91.10	65.43	44.56	36.79	52.46	102.8	285.9	1583	2639	240.3	10.70	3.197	2.967	2.636	2.538	3.130	3.404	3.334	3.595	3.538	3.687	3.719	3.688	3.946	3.977	4.088	3.963	4.136	3.830	4.032	3.615	3.895	3.744	3.531	3.624	3.609	3.498	3.453	3.326	3.199	3.082
445.0	1151	953.4	688.6	745.5	767.6	787.7	805.9	823.1	842.6	858.6	877.9	833.1	765.2	698.5	613.4	542.7	485.3	460.1	442.2	433.6	433.1	438.7	445.8	453.9	453.3	449.0	438.8	426.0	406.3	380.7	343.9	299.0	263.8	230.2	169.5	125.8	96.67	69.28	49.23	36.65	33.20	38.59	75.77	420.4	1916	1989	182.2	6.830	3.386	2.798	2.559	3.174	3.303	3.474	3.332	3.277	3.554	3.652	3.759	3.829	3.912	3.956	3.869	3.798	3.863	3.562	3.692	3.728	3.571	3.430	3.535	3.363	3.379	3.119	3.359	3.059	2.978
450.0	770.8	1533	849.4	712.5	715.9	739.2	761.1	777.6	792.2	804.5	813.5	771.7	712.0	643.2	567.5	495.6	447.4	420.8	400.9	395.0	397.1	396.4	403.6	410.7	411.3	408.8	398.6	387.8	375.7	353.9	321.4	280.0	238.1	212.8	182.4	135.6	99.05	73.08	54.47	41.01	32.39	27.32	30.82	105.0	496.8	1391	1849	708.0	13.48	3.174	2.693	2.986	3.254	3.247	3.153	3.096	3.537	3.388	3.545	3.648	3.565	3.661	3.731	3.769	3.656	3.445	3.398	3.500	3.214	3.225	3.347	3.061	3.205	2.965	3.173	2.874	2.927
455.0	451.5	1508	1318	689.2	669.6	688.3	712.8	717.8	742.9	746.1	746.2	711.0	651.1	587.9	509.6	450.6	406.4	378.7	364.8	360.6	357.2	355.7	363.6	368.2	370.2	366.6	359.7	349.7	343.3	326.0	297.1	261.7	221.5	190.3	172.8	149.1	105.8	75.62	57.59	44.78	36.05	27.90	23.34	36.18	120.3	321.0	816.9	2129	968.5	17.08	3.203	2.904	3.124	3.083	3.016	2.902	3.359	3.233	3.346	3.524	3.445	3.402	3.555	3.455	3.360	3.476	3.200	3.308	3.226	2.979	3.098	2.993	2.816	2.752	2.876	2.753	2.596
460.0	369.4	1011	2101	842.7	627.3	636.1	666.5	677.3	696.3	708.1	686.1	662.9	607.4	543.0	471.7	418.7	377.2	348.6	332.6	329.9	326.0	328.9	330.7	339.2	338.3	336.8	333.9	327.0	317.0	305.4	280.2	249.5	209.1	178.1	156.1	146.3	115.4	79.44	59.80	47.02	37.58	29.97	23.59	22.30	37.80	80.46	197.7	1068	2112	192.2	12.56	3.275	3.125	2.964	2.932	2.684	2.983	3.133	3.273	3.363	3.196	3.087	3.295	3.207	3.154	3.290	3.032	3.019	2.975	2.805	2.919	2.854	2.690	2.662	2.488	2.487	2.430
465.0	323.8	616.9	2147	1406	597.9	609.8	629.8	638.3	643.7	669.7	654.9	618.9	562.6	505.1	440.5	385.0	352.1	321.9	309.1	302.2	299.1	300.8	306.2	310.2	310.8	309.6	308.7	302.1	295.5	285.0	261.2	234.6	200.2	170.7	144.3	132.8	118.9	85.74	61.62	49.17	39.26	31.27	25.27	20.42	20.22	27.57	51.74	267.4	1296	1539	167.5	9.802	3.362	2.986	2.933	2.768	2.974	3.172	3.282	3.035	3.180	3.002	3.088	3.193	2.999	3.158	2.924	2.752	2.652	2.946	2.775	2.437	2.416	2.596	2.370	2.362	2.572
470.0	318.9	428.9	1257	2239	867.8	547.0	571.1	571.6	589.6	602.7	586.5	564.2	507.2	453.4	394.3	346.4	309.0	287.9	274.3	269.0	265.0	263.5	271.7	272.6	274.9	273.0	272.2	268.2	262.8	253.4	236.9	211.1	182.2	156.5	133.2	116.1	107.4	92.58	67.80	50.30	40.31	32.98	26.72	21.07	17.79	16.87	20.33	67.04	321.4	888.6	1246	696.6	15.82	3.403	2.936	2.587	2.768	2.748	2.873	2.872	2.905	2.959	2.851	2.927	2.845	2.831	2.676	2.635	2.532	2.546	2.460	2.324	2.325	2.230	2.183	2.081	2.203
475.0	323.9	355.0	605.3	1910	1831	524.9	503.2	511.3	525.9	536.0	524.8	500.5	452.4	400.4	344.7	302.3	270.6	252.6	240.5	235.6	233.9	226.8	237.4	236.5	239.6	240.0	234.1	231.5	228.2	222.8	210.0	186.2	163.5	140.5	121.5	104.1	91.61	83.46	74.28	53.94	41.03	33.66	27.41	22.33	18.81	15.16	13.78	22.66	77.83	203.8	424.2	1295	855.7	21.67	3.039	2.584	2.599	2.757	2.551	2.477	2.606	2.545	2.687	2.520	2.618	2.491	2.300	2.350	2.264	2.229	2.195	2.139	2.145	2.057	1.994	1.857	1.976
480.0	285.4	349.1	426.5	1153	2493	777.3	464.3	475.4	482.2	489.9	484.1	461.0	417.6	365.5	315.9	276.7	248.5	230.2	218.4	212.0	207.5	205.0	210.1	212.7	212.1	213.7	209.5	211.4	207.0	199.8	191.8	171.2	149.1	131.0	114.0	98.46	84.30	74.80	72.78	59.93	42.92	34.14	27.71	23.30	19.24	15.76	12.84	13.10	24.16	51.01	101.0	513.1	1464	685.4	16.54	2.768	2.586	2.725	2.537	2.603	2.459	2.401	2.555	2.589	2.498	2.593	2.315	2.285	2.259	1.926	2.010	2.147	2.093	1.922	1.900	1.772	1.741
485.0	261.0	341.7	365.5	615.9	2372	1453	449.1	442.6	459.6	454.3	443.4	431.9	384.8	337.3	289.0	257.7	228.5	212.7	203.4	193.8	190.4	190.4	191.3	194.2	192.3	194.1	193.5	191.7	191.2	184.0	175.6	158.6	139.2	122.7	107.7	92.54	79.65	68.63	64.26	62.30	47.23	35.54	28.67	24.01	20.30	16.52	14.43	12.02	12.83	17.47	27.71	124.3	743.8	1429	208.7	10.59	2.810	2.543	2.438	2.513	2.353	2.281	2.488	2.518	2.421	2.183	2.079	2.234	2.185	1.940	2.084	1.921	1.814	1.719	1.736	1.776	1.773
490.0	223.4	338.8	348.7	404.6	1306	2348	736.9	407.6	416.2	416.2	409.3	390.6	348.0	304.8	264.5	232.9	206.2	191.7	180.5	176.1	172.2	170.5	169.8	172.9	172.1	173.7	172.0	172.6	169.4	166.7	156.7	143.0	126.9	113.2	99.20	85.80	75.57	63.88	57.17	55.72	51.28	39.98	29.70	24.11	20.86	17.37	14.94	12.69	11.31	10.44	11.55	32.43	178.6	608.8	1063	681.3	18.29	3.151	2.423	2.359	2.233	2.201	2.370	2.183	2.186	1.915	2.102	2.116	1.933	1.814	1.780	1.742	1.796	1.532	1.656	1.461	1.614
495.0	188.1	289.2	357.8	329.8	562.4	1950	1802	415.4	375.2	370.8	366.1	346.8	312.8	271.9	238.3	207.7	182.9	171.5	160.1	155.8	149.8	152.1	149.1	151.8	151.5	151.3	152.4	151.1	148.8	146.6	140.8	127.7	114.8	102.2	90.96	79.25	69.51	59.41	51.89	47.03	47.53	43.32	32.31	24.82	20.55	17.75	15.16	13.36	11.31	9.058	8.295	12.19	43.94	139.1	337.2	1118	946.8	26.28	2.831	2.257	2.116	2.040	2.161	2.118	2.143	1.950	1.975	1.851	1.629	1.564	1.510	1.609	1.484	1.367	1.542	1.536	1.412
500.0	164.7	247.5	350.9	314.4	348.1	1133	2553	632.9	338.4	341.8	337.4	316.0	284.9	250.9	216.4	189.5	167.9	154.2	145.2	139.2	136.8	137.3	134.7	135.8	136.7	136.5	136.8	135.3	134.6	134.1	127.0	118.7	106.6	92.62	82.77	74.19	63.69	56.09	48.72	43.45	40.90	42.03	35.49	26.40	20.79	17.85	15.45	13.31	11.54	9.357	7.776	7.706	14.14	34.69	79.38	411.8	1329	719.1	20.01	2.223	2.339	2.014	2.043	2.011	1.843	1.847	1.710	1.759	1.499	1.565	1.482	1.620	1.414	1.348	1.311	1.250	1.496
505.0	153.9	221.2	314.1	316.8	280.7	549.4	2468	1334	323.7	308.4	306.6	293.0	258.7	224.9	196.5	171.2	152.2	139.2	132.2	127.5	123.7	124.9	122.2	122.5	122.8	123.0	123.9	120.9	121.3	121.2	116.0	107.9	96.18	86.20	76.23	68.35	60.41	52.83	45.78	41.16	36.56	36.64	36.28	27.94	21.08	17.56	15.46	13.22	11.48	9.338	7.802	7.074	7.471	11.62	21.25	97.89	589.0	1305	232.6	12.35	2.393	1.943	1.921	1.860	1.880	1.681	1.562	1.529	1.517	1.542	1.379	1.381	1.294	1.322	1.384	1.280	1.370
510.0	140.3	177.9	246.2	296.9	251.8	317.6	1307	2394	572.6	277.1	274.9	259.8	226.4	200.7	174.5	151.0	133.5	123.2	116.3	111.6	108.7	107.2	106.6	106.5	107.1	106.5	107.1	105.5	105.9	104.4	99.67	92.98	83.40	76.21	67.60	61.39	54.30	48.01	42.13	37.78	33.34	30.90	31.44	30.31	23.74	17.70	15.12	13.13	11.23	9.450	8.066	6.984	5.979	6.466	7.976	24.91	139.3	522.1	885.0	546.6	17.60	2.188	1.927	1.792	1.620	1.539	1.428	1.488	1.445	1.372	1.277	1.282	1.288	1.182	1.270	1.150	1.291
515.0	127.2	145.1	188.6	267.1	241.1	229.2	487.2	2108	1676	273.0	236.1	222.8	194.4	175.2	151.6	130.7	117.1	107.0	100.2	96.27	93.67	90.90	91.67	91.38	92.07	91.33	90.94	90.41	90.58	89.21	86.31	79.53	73.80	66.28	59.37	53.71	47.24	43.11	38.47	33.47	29.86	27.27	25.15	26.44	25.01	19.31	14.37	12.34	10.82	8.990	7.745	7.095	5.841	5.450	5.248	8.621	34.07	119.1	260.2	839.3	703.4	25.03	2.201	1.757	1.450	1.359	1.289	1.353	1.340	1.414	1.083	1.281	1.161	1.137	1.163	1.052	1.082
520.0	110.5	134.9	152.8	223.2	258.1	203.1	256.3	1170	2617	487.2	208.7	199.9	176.4	158.6	137.0	117.9	103.6	96.74	91.01	86.97	82.84	80.27	82.65	79.69	81.53	79.63	80.45	79.31	78.52	78.54	76.72	70.43	65.69	59.24	53.44	47.53	42.73	38.24	34.69	31.35	27.39	25.05	22.33	22.56	24.13	20.65	15.19	11.95	10.45	8.800	7.683	7.159	6.022	5.257	4.553	4.845	10.22	29.15	60.76	302.6	949.9	248.5	18.09	1.905	1.437	1.421	1.236	1.184	1.156	1.171	1.161	1.178	1.049	1.058	1.004	0.984	0.973
525.0	94.19	125.1	142.5	180.4	246.5	197.5	196.9	503.9	2665	1204	201.1	182.2	162.5	142.2	123.4	107.3	94.10	86.37	81.75	77.35	73.26	72.35	73.14	71.70	72.53	71.09	71.16	72.34	70.06	72.12	68.35	63.84	59.31	53.31	48.75	43.73	40.22	35.38	31.68	28.85	25.55	22.95	20.59	20.07	20.96	21.41	16.63	11.97	10.07	8.360	7.825	6.843	5.967	5.469	4.349	4.038	4.947	9.023	15.86	71.56	412.3	856.3	220.1	9.784	1.511	1.430	1.332	1.157	1.208	1.061	1.120	1.018	1.000	0.992	0.968	0.898	0.836
530.0	89.88	107.6	129.3	144.7	210.5	210.6	164.3	237.7	1383	2432	448.3	160.0	141.9	123.5	105.9	93.27	82.84	75.55	70.30	67.66	65.88	62.16	62.22	62.15	63.43	61.38	61.22	61.41	61.50	61.35	58.84	55.79	50.56	46.17	42.04	37.84	34.89	31.26	27.99	25.52	23.09	20.32	18.30	17.15	16.69	18.30	17.32	12.77	9.756	8.126	7.127	6.325	5.469	5.220	4.515	3.874	3.663	4.456	5.760	18.02	97.12	348.7	625.9	399.4	16.62	1.606	1.221	1.160	1.026	1.024	1.046	0.870	0.944	0.888	0.831	0.903	0.784
535.0	77.29	99.16	105.0	115.0	156.5	217.2	155.7	159.6	448.7	2241	1581	158.7	123.7	106.8	91.06	79.00	69.57	64.49	59.79	57.17	55.58	53.59	53.18	52.78	53.28	51.97	51.72	51.86	51.89	51.74	49.89	47.45	42.71	38.85	35.47	32.62	29.99	26.76	24.38	21.68	20.10	18.04	16.95	14.86	13.95	14.10	15.35	14.50	10.11	7.938	6.370	5.835	4.998	4.585	4.699	4.076	3.426	3.224	3.379	5.766	23.39	79.53	180.9	585.2	488.5	23.09	1.370	1.116	0.963	1.016	0.875	0.811	0.903	0.846	0.808	0.838	0.778
540.0	68.71	92.21	98.17	98.57	120.9	192.9	164.7	131.2	199.1	1167	2687	231.4	109.9	92.03	82.26	70.18	61.11	57.09	54.36	49.11	48.40	47.27	46.57	45.76	45.79	45.30	44.48	44.54	45.21	44.47	43.29	41.08	37.26	34.67	32.26	28.73	27.02	23.78	21.77	20.37	17.96	16.93	15.02	13.83	12.56	11.80	12.45	13.77	10.73	7.804	6.166	5.159	4.919	4.324	4.032	3.850	3.465	2.832	2.830	3.136	6.851	19.36	42.18	206.5	651.7	242.5	15.26	1.323	1.013	0.969	0.837	0.908	0.820	0.792	0.817	0.792	0.651
545.0	68.42	77.42	89.01	92.40	103.0	154.4	174.5	114.0	135.3	442.1	2726	933.9	96.91	83.61	72.28	64.95	54.01	49.76	47.16	43.10	43.24	41.32	41.12	40.02	39.95	39.25	38.82	39.65	39.61	39.14	38.23	35.45	32.90	30.75	29.19	25.72	23.73	21.80	19.05	17.70	16.69	14.99	13.99	12.39	11.36	10.43	10.16	11.90	11.18	8.108	5.851	4.973	4.521	3.989	3.761	3.562	3.665	2.841	2.544	2.407	3.079	5.891	10.84	48.72	275.5	601.3	196.9	6.983	1.137	0.924	0.764	0.816	0.823	0.734	0.701	0.725	0.696
550.0	64.62	71.60	77.97	82.83	84.42	102.9	163.8	118.4	100.3	174.7	1296	2123	268.4	69.24	60.26	53.46	46.99	42.61	40.25	36.65	36.05	33.96	34.00	33.90	32.62	32.12	32.97	32.03	32.60	32.84	31.87	29.60	27.53	25.37	23.42	21.80	20.01	18.10	16.57	15.40	14.07	12.81	11.53	10.55	9.766	8.823	8.502	8.738	9.441	8.491	6.031	4.656	4.035	3.682	3.466	3.121	3.168	2.890	2.434	2.182	2.158	2.791	3.664	12.18	64.66	233.7	419.6	223.3	15.42	1.159	0.845	0.775	0.775	0.714	0.689	0.618	0.651
555.0	62.89	63.25	73.18	67.99	71.01	77.58	126.0	134.9	85.37	101.7	377.3	2067	1149	69.51	50.58	43.39	38.83	35.41	32.45	29.45	29.44	27.23	27.06	27.29	26.42	26.32	25.87	25.41	26.14	26.21	26.06	24.12	22.35	20.38	19.28	17.28	16.63	14.55	13.51	12.87	11.83	10.52	9.718	8.558	8.194	7.518	7.346	6.398	6.973	7.321	6.377	4.540	3.829	3.308	2.961	2.653	2.581	2.762	2.571	2.040	1.641	1.881	1.954	3.887	15.52	53.08	119.5	356.9	248.1	20.75	0.947	0.818	0.704	0.703	0.652	0.556	0.598
560.0	61.64	64.26	73.62	64.00	61.09	66.32	90.53	141.6	85.67	79.82	143.0	1029	2228	136.3	43.96	36.75	32.51	29.77	27.93	26.23	24.58	23.83	22.87	22.61	22.40	22.69	21.33	21.63	21.87	22.24	21.81	20.94	18.65	16.83	16.42	14.66	14.13	12.41	11.20	10.88	9.767	9.014	8.523	7.727	6.892	6.485	5.862	5.699	5.445	5.818	6.269	5.024	3.512	2.844	2.652	2.518	2.500	2.342	2.526	2.251	1.640	1.589	1.427	1.970	4.454	12.84	27.82	125.7	383.5	210.0	12.31	0.873	0.718	0.609	0.636	0.515	0.643
565.0	67.01	61.27	73.14	61.82	54.51	53.76	66.72	128.4	93.17	67.80	82.02	355.4	2372	616.0	38.33	31.63	28.13	25.46	23.12	21.94	20.47	20.71	19.18	19.70	19.45	18.64	18.76	18.91	18.60	19.06	18.26	17.61	16.28	14.71	13.93	12.26	11.96	10.76	9.631	9.563	8.819	8.184	7.390	6.965	5.996	5.471	5.246	4.984	4.559	4.645	5.221	5.341	3.438	2.431	2.438	2.236	2.138	2.030	2.212	2.185	1.785	1.374	1.114	1.435	1.938	3.869	7.138	29.55	158.4	366.9	140.7	4.542	0.725	0.603	0.625	0.518	0.654
570.0	61.49	64.46	65.75	57.78	50.00	45.79	50.44	89.99	113.6	64.81	64.24	125.6	1142	1605	91.97	26.98	23.59	21.44	19.87	17.96	16.84	16.38	15.73	15.87	15.32	15.43	15.13	15.28	15.03	15.33	14.67	14.28	13.00	11.90	11.22	10.06	9.543	9.061	8.220	7.800	7.130	6.726	6.131	5.657	5.288	4.854	4.419	4.227	3.697	3.416	3.781	4.272	3.741	2.704	2.187	1.977	2.019	1.750	1.859	1.832	2.034	1.454	1.311	1.184	1.353	1.838	2.466	7.470	37.24	140.3	250.3	135.3	13.06	0.799	0.643	0.583	0.530
575.0	69.31	70.02	65.32	49.34	42.89	40.15	43.51	54.79	111.5	79.88	59.57	67.12	314.3	1665	763.6	27.14	19.49	17.31	15.90	14.97	14.15	13.14	12.94	12.78	12.80	12.26	12.77	12.48	12.29	11.96	11.59	11.00	10.22	9.433	9.086	8.130	7.717	6.920	6.677	6.276	5.646	5.460	5.021	4.750	4.502	4.101	3.789	3.353	3.254	2.710	2.690	2.840	3.353	2.930	2.310	1.865	1.706	1.651	1.521	1.514	1.695	1.783	1.387	1.139	1.240	1.241	1.293	2.464	9.085	32.00	70.02	207.0	183.3	16.51	0.737	0.544	0.496
580.0	70.93	72.06	61.26	54.77	38.27	37.14	38.81	43.71	89.54	99.26	56.76	53.38	105.7	846.0	1585	68.78	17.46	14.89	13.16	12.72	12.20	11.09	11.06	10.66	10.62	10.24	10.79	10.29	10.21	10.01	10.29	9.454	8.963	7.881	7.596	7.018	6.505	5.907	5.648	5.513	4.729	4.656	4.273	3.956	3.777	3.585	3.410	3.077	2.982	2.417	2.317	2.172	2.711	2.958	2.252	1.694	1.538	1.448	1.249	1.364	1.413	1.639	1.519	1.172	1.029	1.031	1.131	1.348	2.642	7.796	16.34	72.27	231.3	132.5	7.338	0.691	0.567
585.0	66.65	63.31	66.21	50.65	38.58	31.07	36.19	42.67	65.45	113.7	58.30	50.11	56.48	284.4	1780	314.8	15.42	12.95	12.24	10.53	9.809	9.929	9.440	9.496	9.302	8.908	9.283	9.017	8.646	8.357	8.839	8.382	7.764	6.705	6.678	5.891	5.932	5.382	5.024	4.802	4.330	4.114	3.901	3.578	3.308	3.102	3.105	2.658	2.578	2.140	1.968	1.655	2.040	2.720	2.438	1.625	1.373	1.291	1.283	1.216	1.145	1.254	1.561	1.380	1.033	0.990	0.986	1.037	1.281	2.305	4.371	17.09	93.39	216.4	35.71	3.049	0.537
590.0	68.15	63.41	62.56	47.95	36.60	32.88	33.32	35.10	45.61	96.38	79.82	51.33	46.37	91.15	883.9	1051	48.97	10.86	10.25	9.161	8.773	8.107	7.991	7.622	7.494	7.354	7.471	7.284	7.346	7.365	7.028	6.544	6.238	5.593	5.545	4.678	4.807	4.539	4.003	3.897	3.622	3.350	3.100	2.905	2.816	2.716	2.527	2.280	2.207	1.870	1.767	1.640	1.676	1.833	2.306	1.804	1.400	1.196	1.053	1.133	1.125	1.065	1.178	1.349	1.263	1.031	0.885	0.906	0.923	1.162	1.535	4.414	21.92	80.83	136.5	88.32	11.61
595.0	56.34	59.73	61.82	45.31	36.40	33.61	29.79	32.59	38.27	63.82	98.39	55.16	41.39	47.05	235.5	1155	399.3	10.91	8.380	7.326	7.344	6.641	6.438	6.431	5.608	6.063	6.146	5.992	5.773	6.063	5.648	5.181	4.907	4.529	4.415	3.713	3.950	3.359	3.440	3.192	2.962	2.716	2.646	2.294	2.262	2.197	1.944	1.775	1.804	1.562	1.450	1.408	1.314	1.308	1.738	1.937	1.543	1.158	0.989	0.933	0.975	0.902	0.860	0.995	1.253	1.159	0.886	0.877	0.775	0.884	0.879	1.498	5.452	18.43	38.04	118.3	113.8
600.0	58.60	59.89	62.83	43.66	35.92	28.52	33.84	33.73	38.09	51.19	98.78	67.72	43.92	37.63	73.71	620.2	824.2	28.12	7.698	6.759	6.039	6.321	5.406	5.321	5.338	5.245	5.054	5.224	4.805	5.256	4.908	4.448	4.419	3.987	3.731	3.518	3.263	3.096	3.043	2.721	2.468	2.397	2.340	2.106	2.175	2.001	1.863	1.502	1.598	1.409	1.234	1.123	1.253	1.145	1.295	1.687	1.684	1.243	1.024	0.834	0.893	0.846	0.874	0.910	0.978	1.145	0.951	0.979	0.773	0.690	0.708	0.798	1.717	4.541	9.032	39.93	133.3
605.0	61.89	62.66	58.93	45.86	34.49	34.00	32.95	38.73	42.80	52.33	91.53	94.19	54.67	39.62	41.32	212.5	1097	88.96	7.348	6.025	5.380	5.186	4.659	4.664	4.622	4.467	4.490	4.397	4.267	4.439	4.326	3.991	3.801	3.404	3.363	3.136	2.672	2.789	2.739	2.453	2.255	2.108	2.159	1.868	1.872	1.884	1.678	1.321	1.413	1.330	1.129	1.084	1.076	0.982	1.003	1.285	1.598	1.239	0.980	0.970	0.875	0.900	0.793	0.763	0.868	1.149	1.111	0.962	0.759	0.791	0.777	0.705	0.881	1.449	2.420	9.453	51.18
610.0	64.61	65.21	61.53	47.65	37.58	36.49	38.90	45.51	52.31	65.51	88.99	122.7	80.93	55.33	45.60	75.37	608.3	647.2	27.44	5.302	4.572	4.187	4.051	3.741	3.855	3.729	3.773	3.786	3.702	3.546	3.442	3.252	3.184	2.922	2.678	2.634	2.332	2.314	2.163	2.045	1.804	1.760	1.738	1.624	1.553	1.498	1.299	1.186	1.227	1.149	0.967	0.894	0.980	0.957	0.910	1.020	1.201	1.326	1.167	0.926	0.832	0.806	0.883	0.846	0.829	0.992	1.060	1.103	0.899	0.852	0.759	0.732	0.752	0.851	0.994	2.543	12.20
615.0	58.06	67.25	59.14	46.80	36.08	37.37	42.15	49.83	54.44	71.58	86.21	119.1	103.9	65.88	49.87	44.86	178.3	811.6	229.8	5.302	3.945	4.128	3.436	3.099	2.956	3.119	3.039	3.094	3.219	2.980	2.798	2.675	2.435	2.397	2.132	2.101	1.945	1.892	1.795	1.732	1.498	1.646	1.404	1.467	1.320	1.226	1.219	1.186	1.059	0.979	0.838	0.784	0.805	0.840	0.857	0.868	0.849	1.022	1.246	0.892	0.810	0.814	0.787	0.767	0.751	0.809	0.922	1.048	1.080	0.970	0.733	0.685	0.681	0.900	0.659	1.096	3.159
620.0	67.86	65.42	57.19	46.43	38.51	35.66	43.43	48.65	55.54	66.67	79.06	102.2	113.5	67.89	50.72	39.24	64.38	490.1	576.2	11.57	3.903	3.376	3.012	2.660	2.924	2.740	2.818	2.698	2.548	2.413	2.461	2.330	2.058	2.218	1.897	1.739	1.816	1.720	1.604	1.593	1.284	1.282	1.169	1.196	1.140	1.119	1.025	1.179	0.894	0.788	0.716	0.772	0.708	0.677	0.734	0.740	0.782	0.936	1.102	1.045	0.846	0.712	0.922	0.851	0.781	0.752	0.831	0.842	1.148	0.994	0.782	0.722	0.643	0.742	0.530	0.727	1.130
625.0	61.41	64.60	56.83	45.64	37.00	35.83	42.28	47.33	53.38	63.34	75.48	89.21	114.1	73.67	51.03	37.29	37.66	178.7	777.8	57.89	3.760	3.055	2.619	2.502	2.562	2.309	2.217	2.176	2.159	2.311	2.066	1.955	1.904	2.017	1.699	1.634	1.747	1.458	1.402	1.305	1.110	1.091	1.069	1.090	0.984	0.970	0.945	0.982	0.867	0.920	0.625	0.714	0.675	0.647	0.680	0.645	0.741	0.793	0.904	0.918	0.893	0.778	0.797	0.739	0.708	0.795	0.810	0.908	0.984	1.069	0.778	0.682	0.676	0.681	0.519	0.589	0.724
630.0	65.36	61.78	57.92	47.67	39.68	35.78	39.82	45.31	53.08	62.07	73.56	82.00	100.0	87.50	54.23	37.54	31.06	57.53	464.9	418.2	11.81	2.853	2.336	2.303	2.150	2.015	1.796	2.085	1.971	1.954	1.736	1.724	1.783	1.743	1.462	1.386	1.353	1.264	1.097	1.131	1.051	0.940	0.882	0.883	0.863	0.829	0.839	0.811	0.730	0.721	0.593	0.652	0.645	0.570	0.617	0.581	0.709	0.606	0.740	0.807	0.841	0.821	0.778	0.674	0.703	0.739	0.766	0.766	0.805	0.969	0.839	0.748	0.711	0.673	0.611	0.597	0.592
635.0	63.44	75.89	63.74	45.52	40.63	36.82	39.16	46.02	53.76	61.40	73.88	79.58	84.17	91.60	58.94	38.58	30.22	27.74	127.1	602.9	68.19	2.678	2.201	1.829	1.952	1.738	1.593	1.954	1.703	1.617	1.637	1.522	1.615	1.341	1.146	1.128	1.147	1.228	1.019	0.952	0.974	0.881	0.820	0.773	0.766	0.755	0.756	0.748	0.724	0.609	0.501	0.548	0.562	0.654	0.523	0.546	0.536	0.601	0.621	0.641	0.798	0.715	0.809	0.707	0.641	0.745	0.770	0.785	0.667	0.771	0.802	0.831	0.667	0.646	0.649	0.570	0.593
640.0	55.64	69.38	64.94	44.73	40.58	35.15	37.61	42.24	52.05	58.20	70.69	77.37	76.77	89.48	66.29	39.83	29.58	21.41	35.14	398.2	355.5	5.953	2.081	1.873	1.794	1.567	1.461	1.588	1.374	1.280	1.511	1.271	1.362	1.247	1.083	1.137	1.091	1.111	1.131	0.964	0.797	0.853	0.746	0.668	0.691	0.695	0.634	0.675	0.623	0.542	0.516	0.621	0.506	0.608	0.474	0.556	0.570	0.550	0.601	0.624	0.642	0.667	0.698	0.708	0.614	0.732	0.698	0.774	0.717	0.729	0.735	0.764	0.830	0.649	0.579	0.584	0.546
645.0	61.45	66.40	64.00	46.86	38.86	36.02	38.36	41.62	49.04	58.77	69.52	76.98	75.13	77.46	71.88	40.10	30.25	20.19	14.03	150.5	551.6	38.89	2.121	1.783	1.533	1.584	1.378	1.405	1.382	1.311	1.367	1.269	1.103	1.183	1.119	0.934	1.107	0.990	0.934	0.872	0.862	0.668	0.688	0.704	0.749	0.623	0.578	0.677	0.618	0.538	0.458	0.504	0.494	0.459	0.480	0.485	0.611	0.535	0.624	0.628	0.605	0.574	0.723	0.658	0.581	0.715	0.653	0.675	0.726	0.739	0.581	0.762	0.831	0.643	0.528	0.605	0.558
650.0	60.65	75.41	61.63	47.67	37.81	33.49	37.59	39.21	45.61	54.36	65.36	70.58	72.21	66.41	70.55	40.11	29.27	19.87	10.27	42.72	484.7	186.2	2.438	1.566	1.474	1.543	1.346	1.303	1.190	1.226	1.208	1.138	1.067	1.146	0.975	1.017	0.923	0.980	0.802	0.780	0.647	0.675	0.679	0.679	0.596	0.652	0.468	0.608	0.585	0.549	0.504	0.499	0.563	0.465	0.481	0.467	0.608	0.545	0.566	0.589	0.677	0.507	0.652	0.652	0.571	0.623	0.683	0.651	0.683	0.729	0.644	0.697	0.736	0.693	0.552	0.557	0.581
