Sample:	'1
File name:	G2025062002天晟金属西排口.FD3
Run date:	'11:07:57, 06/24/2025
Operator:	Administrator
Comment:	'

Instrument
Model:	F-2700 FL Spectrophotometer
Serial number:	23B8-004
ROM Version:	4J14000 07

Instrument parameters
Measurement type:	3-D scan
Data mode:	Fluorescence
EX  Start WL:	220.0 nm
EX  End WL:	600.0 nm
EX Sampling interval:	5.0 nm
EM  Start WL:	230.0 nm
EM  End WL:	650.0 nm
EM Sampling interval:	5.0 nm
Scan speed:	12000 nm/min
EX Slit:	5.0 nm
EM Slit:	5.0 nm
PMT Voltage:	700 V
Response:	Auto 
Corrected spectra:	Off
Contour interval:	50.000

Peak integration
Integration method:	Rectangular
Sensitivity:	1
Threshold:	1.000

Peaks
No.	ApexEX/EM(nm)	Height(Data)
1	225.0/305.0	2437
2	225.0/425.0	464.9
3	230.0/505.0	267.8
4	235.0/515.0	228.9
5	240.0/525.0	196.9
6	245.0/540.0	169.8
7	250.0/415.0	468.1
8	250.0/435.0	459.0
9	250.0/550.0	141.2
10	255.0/285.0	641.6
11	255.0/560.0	121.3
12	260.0/380.0	453.7
13	260.0/575.0	126.2
14	265.0/385.0	458.8
15	265.0/590.0	136.1
16	270.0/300.0	1823
17	270.0/365.0	457.5
18	270.0/600.0	148.8
19	275.0/305.0	1818
20	275.0/610.0	122.7
21	280.0/625.0	82.92
22	300.0/335.0	433.0
23	305.0/345.0	362.7
24	310.0/350.0	305.2
25	315.0/355.0	288.0
26	320.0/360.0	284.1
27	325.0/370.0	256.2
28	330.0/375.0	252.8
29	335.0/380.0	255.2
30	345.0/395.0	207.8
31	350.0/400.0	206.3
32	360.0/415.0	162.3
33	365.0/420.0	158.8
34	375.0/435.0	120.3
35	380.0/440.0	112.2
36	395.0/305.0	3.971
37	395.0/460.0	68.68
38	410.0/480.0	37.26
39	415.0/485.0	31.59
40	425.0/500.0	22.07
41	430.0/505.0	19.02
42	440.0/520.0	13.51
43	445.0/300.0	5.701
44	445.0/525.0	11.48
45	455.0/305.0	5.652
46	455.0/540.0	7.565
47	470.0/560.0	3.753
48	505.0/275.0	3.219
49	510.0/280.0	3.821
50	520.0/285.0	4.082
51	530.0/290.0	4.786
52	535.0/270.0	45.76
53	545.0/300.0	9.028
54	550.0/305.0	9.615
55	560.0/310.0	7.603
56	570.0/315.0	5.645
57	575.0/290.0	41.48
58	585.0/325.0	4.274

Data points
	220.0	225.0	230.0	235.0	240.0	245.0	250.0	255.0	260.0	265.0	270.0	275.0	280.0	285.0	290.0	295.0	300.0	305.0	310.0	315.0	320.0	325.0	330.0	335.0	340.0	345.0	350.0	355.0	360.0	365.0	370.0	375.0	380.0	385.0	390.0	395.0	400.0	405.0	410.0	415.0	420.0	425.0	430.0	435.0	440.0	445.0	450.0	455.0	460.0	465.0	470.0	475.0	480.0	485.0	490.0	495.0	500.0	505.0	510.0	515.0	520.0	525.0	530.0	535.0	540.0	545.0	550.0	555.0	560.0	565.0	570.0	575.0	580.0	585.0	590.0	595.0	600.0
230.0	277.9	4073	5093	696.4	25.42	9.379	7.025	6.086	4.842	4.635	4.037	3.638	2.852	2.344	1.983	1.675	1.507	1.323	1.179	0.984	1.092	0.899	0.842	0.740	0.705	0.678	0.645	0.554	0.608	0.558	0.591	0.494	0.485	0.467	0.450	0.431	0.442	0.423	0.406	0.390	0.602	0.854	0.665	0.456	0.359	0.613	5.611	16.52	18.60	8.857	2.198	0.515	0.309	0.297	0.267	0.289	0.290	0.275	0.311	0.295	0.264	0.255	0.276	0.241	0.310	0.258	0.280	0.286	0.342	0.287	0.316	0.285	0.274	0.278	0.297	0.299	0.277
235.0	219.1	1198	4686	4970	545.7	35.23	9.252	7.562	5.992	5.630	4.340	3.459	3.242	2.391	2.083	1.715	1.649	1.323	1.165	1.075	1.054	0.911	0.899	0.765	0.790	0.663	0.622	0.568	0.559	0.580	0.508	0.454	0.462	0.523	0.455	0.449	0.426	0.395	0.411	0.340	0.388	0.529	0.847	0.842	0.760	0.485	1.486	4.545	9.669	15.15	18.25	14.27	4.539	0.840	0.285	0.272	0.294	0.249	0.307	0.292	0.276	0.266	0.294	0.269	0.269	0.264	0.315	0.272	0.313	0.315	0.255	0.270	0.266	0.302	0.331	0.296	0.245
240.0	293.2	381.2	1681	5975	4347	406.1	20.16	8.216	6.667	5.986	4.181	3.957	3.222	2.753	1.951	1.758	1.506	1.333	1.159	1.069	1.074	0.822	0.858	0.792	0.861	0.697	0.655	0.604	0.581	0.547	0.567	0.493	0.463	0.472	0.520	0.437	0.449	0.394	0.479	0.400	0.418	0.358	0.577	0.678	0.960	0.963	0.787	1.328	2.569	5.328	13.79	26.48	23.94	13.02	3.330	0.444	0.335	0.280	0.306	0.297	0.340	0.286	0.259	0.274	0.263	0.288	0.261	0.276	0.309	0.322	0.271	0.277	0.242	0.260	0.320	0.351	0.274
245.0	232.9	344.6	454.9	2514	7186	3513	288.7	12.27	8.119	6.653	4.261	4.342	3.715	3.121	2.281	1.636	1.708	1.526	1.006	1.320	1.370	1.009	0.870	0.778	0.760	0.764	0.666	0.616	0.603	0.549	0.513	0.588	0.503	0.523	0.490	0.396	0.441	0.411	0.424	0.380	0.412	0.428	0.494	0.402	0.601	0.945	1.166	0.897	0.889	1.503	3.614	10.83	23.82	33.32	22.93	9.680	1.918	0.399	0.310	0.304	0.291	0.321	0.295	0.297	0.298	0.259	0.313	0.320	0.291	0.326	0.274	0.259	0.230	0.284	0.387	0.309	0.281
250.0	97.62	260.9	348.1	669.6	2705	6112	5527	1163	53.54	8.175	6.543	5.404	4.054	3.229	2.430	1.817	1.961	1.724	1.286	1.331	1.196	1.023	0.948	0.809	0.871	0.774	0.805	0.677	0.624	0.669	0.597	0.620	0.502	0.545	0.474	0.389	0.447	0.380	0.408	0.460	0.454	0.397	0.447	0.398	0.414	0.556	0.800	1.010	1.130	1.085	1.249	2.753	6.097	12.53	20.50	24.52	30.55	18.12	9.892	2.265	0.416	0.339	0.313	0.294	0.313	0.282	0.305	0.322	0.301	0.309	0.325	0.278	0.294	0.322	0.319	0.297	0.283
255.0	48.74	94.22	264.6	437.5	691.8	1713	6398	8566	1521	46.63	8.826	6.737	5.518	3.597	3.009	2.011	2.137	1.915	1.429	1.337	1.306	0.986	0.973	0.838	0.836	0.804	0.761	0.730	0.667	0.695	0.604	0.607	0.475	0.549	0.535	0.444	0.479	0.488	0.390	0.413	0.472	0.426	0.467	0.398	0.444	0.485	0.455	0.488	0.708	1.165	1.545	1.662	1.782	3.147	4.945	6.434	14.69	33.03	49.85	28.08	13.75	1.952	0.362	0.383	0.361	0.332	0.334	0.328	0.308	0.275	0.338	0.289	0.306	0.304	0.330	0.300	0.303
260.0	42.02	48.37	115.5	376.2	415.0	446.1	2202	9114	8135	257.2	21.80	8.941	6.314	4.491	3.621	2.884	2.102	2.095	1.524	1.270	1.361	1.121	0.932	0.979	0.989	0.785	0.782	0.738	0.755	0.768	0.651	0.615	0.539	0.496	0.497	0.461	0.487	0.475	0.388	0.441	0.377	0.396	0.456	0.363	0.395	0.424	0.370	0.430	0.427	0.628	1.071	2.072	1.907	1.379	1.564	1.807	3.784	9.842	26.08	45.82	53.74	25.03	9.020	1.026	0.339	0.406	0.374	0.325	0.285	0.338	0.288	0.308	0.351	0.296	0.297	0.308	0.295
265.0	40.40	36.97	50.69	192.9	451.3	291.9	564.2	3568	9999.9	6984	200.1	13.68	7.821	5.166	4.130	2.852	2.380	1.752	1.760	1.536	1.394	1.175	1.206	1.028	0.989	0.966	0.713	0.736	0.781	0.768	0.690	0.568	0.552	0.496	0.476	0.464	0.466	0.490	0.378	0.407	0.405	0.393	0.428	0.469	0.337	0.400	0.406	0.388	0.386	0.390	0.528	1.313	1.925	2.151	1.518	1.005	1.332	2.674	6.522	15.41	36.90	57.57	32.79	20.57	4.408	0.614	0.431	0.385	0.300	0.336	0.384	0.338	0.402	0.437	0.340	0.342	0.282
270.0	52.66	42.49	38.20	77.67	261.6	467.2	368.7	888.7	3714	9140	8826	810.7	44.60	7.788	5.489	3.807	3.170	2.325	1.976	1.791	1.385	1.341	1.215	0.993	1.040	1.033	0.978	0.790	0.785	0.738	0.702	0.706	0.582	0.558	0.549	0.534	0.553	0.553	0.498	0.458	0.434	0.434	0.437	0.468	0.425	0.472	0.418	0.390	0.362	0.365	0.394	0.645	0.927	1.464	2.095	2.453	2.271	1.522	1.978	3.862	9.174	18.29	28.25	45.76	41.64	39.04	14.29	4.356	0.512	0.356	0.393	0.387	0.310	0.416	0.319	0.328	0.350
275.0	115.7	88.18	57.88	55.85	116.1	287.7	596.3	446.5	887.9	2446	8272	9999.9	1128	39.55	8.655	5.514	3.999	3.181	2.516	1.826	1.655	1.399	1.313	1.010	1.176	1.034	0.991	0.889	0.862	0.876	0.689	0.765	0.621	0.628	0.743	0.701	0.640	0.535	0.596	0.563	0.534	0.580	0.517	0.495	0.523	0.535	0.553	0.540	0.534	0.363	0.409	0.507	0.559	0.784	0.912	1.502	2.847	3.219	2.382	1.725	2.498	4.507	6.784	11.22	15.88	38.95	64.82	32.94	21.42	4.326	0.511	0.439	0.412	0.405	0.391	0.375	0.399
280.0	287.9	240.2	146.2	78.44	87.82	164.6	453.9	630.3	372.1	652.1	2677	9999.9	9449	782.7	19.30	7.421	5.001	3.877	2.690	2.392	1.861	1.510	1.388	1.287	1.242	1.108	0.977	0.873	0.856	0.806	0.648	0.732	0.706	0.761	1.042	0.953	0.903	0.729	0.631	0.682	0.714	0.771	0.789	0.667	0.885	0.985	0.922	0.860	0.754	0.470	0.475	0.463	0.533	0.643	0.785	0.930	1.445	2.758	3.821	3.260	1.837	1.738	2.274	3.178	4.400	10.73	26.91	48.91	68.80	31.91	15.81	1.756	0.459	0.466	0.410	0.350	0.461
285.0	675.2	615.7	355.2	137.8	94.10	130.2	254.1	641.6	601.9	368.1	885.3	3801	9999.9	7288	114.6	10.77	5.918	4.486	3.115	2.613	1.987	1.745	1.458	1.423	1.214	1.251	1.024	0.872	0.841	0.782	0.814	0.718	0.806	0.899	1.467	1.397	1.491	1.238	0.895	0.946	1.035	1.147	1.298	1.144	1.392	1.618	1.743	1.792	1.270	0.811	0.608	0.565	0.593	0.664	0.748	0.815	1.011	1.442	2.490	3.667	4.082	2.654	1.831	1.952	2.413	3.831	7.557	15.00	34.97	58.32	68.76	26.73	8.998	0.754	0.529	0.413	0.469
290.0	1412	1417	783.1	265.6	123.8	137.3	203.7	411.0	827.3	911.9	842.0	1441	3723	8474	7626	450.9	28.46	6.713	4.283	3.054	2.501	2.194	1.655	1.578	1.364	1.257	1.156	1.037	0.991	0.753	0.844	0.794	1.026	1.539	2.155	2.514	2.267	1.747	1.450	1.446	1.569	1.804	2.054	2.202	2.732	3.375	3.254	3.371	2.392	1.599	1.009	0.854	0.724	0.768	0.764	0.800	0.996	1.235	1.607	2.150	3.261	4.559	4.786	4.408	3.526	3.698	4.596	6.150	10.44	18.00	30.96	41.48	38.47	42.18	17.82	7.687	1.177
295.0	2096	2114	1205	398.4	152.2	157.0	228.4	384.0	673.6	1280	1450	1184	1436	2297	5947	9189	672.3	25.36	6.097	4.389	3.147	2.646	2.261	1.882	1.441	1.392	1.286	1.149	1.025	0.948	0.868	0.893	1.300	2.043	2.929	3.541	2.915	2.375	2.033	2.023	2.303	2.578	2.967	3.257	3.876	4.889	4.789	4.873	4.021	2.271	1.370	1.120	0.859	0.778	0.896	0.954	1.099	1.275	1.474	2.058	2.625	3.386	4.549	6.738	7.589	6.421	5.466	5.086	6.048	7.263	9.042	10.46	11.89	27.33	51.34	62.13	28.10
300.0	2321	2415	1397	472.0	187.2	174.0	266.5	410.1	671.5	1150	1823	1420	1017	796.8	1746	7493	5861	495.8	11.73	5.649	3.789	2.910	2.596	1.867	1.605	1.458	1.451	1.103	1.021	1.089	1.006	0.944	1.325	2.360	3.299	3.761	3.419	2.760	2.182	2.460	2.644	2.889	3.408	3.946	4.577	5.701	5.496	5.562	4.367	2.662	1.631	1.256	1.004	0.719	0.927	1.009	1.240	1.472	1.630	2.252	2.707	3.297	4.039	5.450	7.644	9.028	7.863	6.115	5.385	5.058	4.416	3.652	3.542	7.291	16.75	38.87	60.82
305.0	2393	2437	1444	488.6	213.4	200.6	297.1	448.8	711.9	1070	1649	1818	1048	505.1	516.0	2398	7871	4865	72.96	8.201	4.894	3.545	2.732	2.413	1.982	1.491	1.443	1.263	1.205	1.028	1.073	0.930	1.428	2.373	3.232	3.971	3.687	2.809	2.292	2.501	2.588	2.941	3.371	4.124	5.184	5.522	5.648	5.652	4.437	2.732	1.812	1.338	1.046	0.861	0.915	1.164	1.399	1.664	1.832	2.286	2.880	3.562	4.293	5.352	6.241	7.772	9.615	8.848	6.633	5.048	3.692	2.347	1.956	2.516	4.590	10.49	24.04
310.0	2253	2214	1349	480.0	214.5	202.8	300.0	447.3	679.4	983.5	1311	1570	1338	553.4	269.2	633.4	2419	5618	5458	1266	20.56	5.015	3.743	2.848	2.255	1.744	1.614	1.440	1.101	1.068	1.112	0.933	1.342	2.246	3.269	3.605	3.370	2.530	2.192	2.289	2.354	2.692	3.061	3.792	4.276	5.309	5.339	5.421	4.316	2.662	1.622	1.461	1.093	1.019	1.022	1.161	1.464	1.597	1.953	2.294	2.743	3.304	4.250	4.724	5.474	6.067	6.983	7.487	7.603	6.987	4.648	2.593	1.693	1.626	1.897	3.247	6.248
315.0	1903	1922	1186	465.1	220.1	205.5	284.2	408.6	615.3	859.9	1077	1153	1122	849.7	301.4	250.7	625.2	1373	3888	6941	496.3	19.75	5.177	3.519	2.745	1.980	1.808	1.567	1.192	1.275	1.209	0.940	1.237	2.099	2.834	3.192	2.862	2.414	1.957	1.988	2.157	2.531	2.688	3.181	4.109	4.573	4.526	4.502	3.627	2.415	1.550	1.484	1.056	0.948	1.020	1.156	1.314	1.531	1.980	2.155	2.437	3.009	3.748	4.234	4.720	5.035	5.459	5.631	5.450	5.258	5.645	4.522	2.898	1.696	1.424	1.795	2.256
320.0	1649	1710	1091	441.8	222.6	207.2	279.3	380.8	548.1	767.5	942.0	978.2	870.3	815.1	520.1	204.4	236.1	365.1	1059	5064	4266	388.1	10.59	4.260	3.369	2.475	2.176	1.788	1.507	1.339	1.184	0.902	1.231	1.880	2.550	2.677	2.528	2.192	1.766	1.859	2.123	2.243	2.473	2.865	3.412	4.048	4.129	4.051	3.450	2.214	1.424	1.405	1.123	1.069	1.068	1.093	1.296	1.558	1.783	2.094	2.237	2.795	3.131	3.501	4.293	4.559	4.930	4.426	4.413	4.108	3.859	4.333	4.392	3.339	1.727	1.413	1.519
325.0	1473	1589	1075	487.4	239.5	211.7	271.4	356.0	504.1	688.7	835.2	866.8	738.9	599.7	649.2	319.3	163.1	149.8	277.4	1485	5231	3726	58.77	6.197	4.460	2.974	2.298	1.778	1.737	1.358	1.158	1.035	1.172	1.567	2.132	2.264	2.183	1.890	1.769	1.716	1.734	1.985	2.278	2.646	3.094	3.622	3.764	4.197	3.452	2.336	1.596	1.521	1.114	1.089	1.046	1.010	1.246	1.468	1.671	1.813	2.189	2.622	3.044	3.289	3.628	4.028	4.379	4.107	4.074	3.635	3.111	3.213	3.687	4.274	3.383	1.991	1.497
330.0	1323	1422	1060	538.8	282.0	220.4	256.4	332.8	445.5	591.8	721.6	751.5	654.9	479.8	464.4	474.9	270.4	119.4	111.4	367.2	1533	3899	4238	1026	17.58	3.843	2.766	2.068	1.824	1.501	1.366	1.171	1.220	1.469	1.822	1.963	1.885	1.530	1.556	1.727	1.612	1.782	2.083	2.325	2.737	3.183	3.453	3.600	3.133	2.330	1.841	1.657	1.349	1.204	1.031	1.161	1.184	1.348	1.703	1.704	2.043	2.304	2.680	2.847	3.303	3.561	3.437	3.593	3.420	3.221	2.827	2.458	2.526	2.858	2.956	3.057	2.857
335.0	1115	1275	1007	589.1	335.6	238.8	246.4	309.6	403.9	509.9	625.7	655.9	586.2	446.3	359.6	350.5	433.0	217.0	90.94	128.5	375.4	932.8	2870	5213	415.6	16.96	4.347	2.557	2.134	1.642	1.462	1.291	1.244	1.334	1.643	1.562	1.644	1.404	1.363	1.449	1.487	1.734	1.867	2.173	2.544	2.820	3.100	3.250	2.942	2.289	1.856	2.001	1.521	1.419	1.105	1.079	1.283	1.389	1.566	1.692	1.858	2.089	2.346	2.725	2.893	3.070	3.059	3.268	3.251	3.029	2.688	2.597	2.305	2.247	2.048	2.216	2.473
340.0	1031	1159	983.4	606.0	361.6	258.9	260.5	304.1	386.3	472.7	566.2	598.1	552.0	428.0	337.2	277.6	358.1	359.7	134.1	85.00	127.4	241.0	765.5	3717	3495	332.5	8.089	3.260	2.485	1.883	1.586	1.219	1.238	1.324	1.506	1.427	1.410	1.350	1.477	1.350	1.315	1.573	1.686	1.861	2.329	2.653	2.823	3.061	3.029	2.446	1.926	2.099	1.560	1.342	1.251	1.119	1.141	1.274	1.454	1.715	1.950	2.017	2.164	2.569	2.585	2.776	2.963	3.010	2.671	2.937	2.644	2.336	2.184	1.995	2.017	1.949	1.823
345.0	902.3	1051	925.6	635.8	393.6	284.5	271.6	301.5	372.9	449.7	525.5	541.6	512.3	421.6	331.5	260.7	253.9	362.7	248.2	96.03	83.28	95.93	202.5	1076	3984	3055	50.54	4.544	2.891	2.153	1.791	1.523	1.222	1.297	1.462	1.480	1.317	1.318	1.474	1.269	1.342	1.412	1.621	1.710	1.977	2.266	2.595	2.913	2.763	2.356	1.924	1.993	1.652	1.450	1.234	1.210	1.266	1.420	1.509	1.727	1.720	2.007	2.225	2.325	2.449	2.639	2.680	2.736	2.585	2.688	2.638	2.234	2.109	1.961	1.881	1.809	1.671
350.0	819.3	923.0	831.4	615.5	422.8	309.9	288.8	311.2	367.8	426.4	481.9	497.7	470.4	400.9	327.7	261.1	222.0	243.3	305.2	210.1	100.1	77.33	89.60	272.7	1158	2905	3015	770.3	14.91	3.099	2.124	1.604	1.252	1.331	1.484	1.413	1.266	1.295	1.170	1.221	1.260	1.224	1.436	1.588	1.728	1.897	2.311	2.430	2.450	2.137	1.902	1.903	1.706	1.599	1.334	1.432	1.362	1.468	1.579	1.669	1.751	1.878	2.123	2.215	2.292	2.267	2.386	2.543	2.536	2.366	2.374	2.164	2.019	2.093	1.898	1.744	1.692
355.0	747.7	797.4	759.9	596.0	431.3	353.2	319.0	332.6	381.2	420.5	454.6	469.5	440.0	391.3	326.9	269.2	227.1	204.4	218.7	288.0	198.9	97.08	77.53	105.3	289.2	695.6	1989	3370	368.6	15.07	2.914	1.990	1.628	1.395	1.442	1.348	1.348	1.300	1.190	1.151	1.152	1.171	1.323	1.543	1.521	1.913	1.995	2.214	2.225	2.028	1.811	1.882	1.748	1.561	1.415	1.582	1.429	1.644	1.732	1.712	1.838	2.146	2.085	2.170	2.173	2.155	2.251	2.276	2.185	2.293	2.178	2.222	1.995	1.961	2.062	1.878	1.814
360.0	679.1	769.1	697.6	574.6	447.8	389.1	356.2	370.1	401.8	426.4	453.0	453.4	427.8	387.6	336.6	278.7	236.0	207.4	189.8	238.4	284.1	148.0	87.97	76.31	104.5	184.3	529.7	2605	3065	296.7	5.945	2.396	1.855	1.531	1.335	1.306	1.396	1.305	1.211	1.107	1.157	1.124	1.333	1.448	1.541	1.798	1.857	2.057	2.045	1.928	1.684	2.075	1.781	1.858	1.606	1.710	1.702	1.648	1.837	1.843	1.821	2.009	2.059	2.177	2.249	2.258	2.268	2.159	2.296	2.147	2.147	2.272	2.214	2.028	1.902	1.991	1.725
365.0	621.6	696.8	680.7	557.1	470.3	404.8	377.3	395.5	413.0	431.3	457.5	444.2	414.0	382.9	336.8	289.2	246.0	217.5	192.4	192.9	268.6	242.1	117.3	82.22	73.06	75.99	144.2	770.6	3153	2607	46.36	3.797	2.255	1.748	1.276	1.527	1.233	1.410	1.269	1.157	1.128	1.030	1.239	1.399	1.466	1.633	1.679	2.035	2.010	1.798	1.535	2.207	1.816	1.834	1.645	1.682	1.738	1.721	1.739	1.900	1.996	2.178	2.041	2.074	2.231	2.092	2.151	2.135	2.159	2.113	2.094	2.320	2.061	2.151	1.952	1.999	1.845
370.0	623.7	643.7	645.7	542.3	475.9	426.4	403.5	409.5	426.0	445.3	456.3	438.7	405.3	373.6	332.7	288.5	256.2	230.5	205.6	191.7	206.7	256.2	212.5	115.0	80.04	63.60	67.97	197.5	914.9	2394	2482	200.4	12.49	2.235	1.665	1.546	1.293	1.221	1.206	1.116	1.160	1.091	1.277	1.338	1.430	1.529	1.667	1.781	1.865	1.724	1.631	1.946	1.850	1.902	1.790	1.775	1.816	1.830	1.871	2.001	2.031	2.165	1.994	2.155	2.182	2.154	2.118	2.104	2.155	2.171	1.993	2.148	2.150	2.053	1.894	1.854	2.035
375.0	566.1	596.8	602.3	527.2	485.6	448.9	429.6	434.2	439.2	452.9	449.9	439.4	402.2	365.0	327.7	290.7	262.7	239.8	218.9	206.6	194.6	201.2	252.8	205.3	106.6	77.64	63.15	78.46	229.3	574.1	1697	2839	315.0	11.20	2.394	1.882	1.568	1.418	1.367	1.249	1.132	1.126	1.253	1.373	1.327	1.474	1.615	1.597	1.643	1.572	1.602	1.884	1.937	1.869	1.871	1.785	1.830	2.002	1.911	1.892	2.001	2.053	2.091	2.423	2.435	2.239	2.077	2.119	2.112	2.017	2.029	2.215	1.991	2.069	1.975	1.808	1.901
380.0	547.7	585.2	594.7	523.2	498.0	466.2	443.1	438.2	453.7	451.5	452.4	437.2	402.5	363.7	327.3	290.3	272.6	246.6	229.3	215.8	201.4	191.4	212.9	255.2	156.7	95.04	70.66	60.53	82.15	150.2	458.4	2206	2491	231.7	4.611	2.187	1.689	1.428	1.234	1.236	1.035	1.253	1.195	1.390	1.467	1.458	1.532	1.664	1.607	1.567	1.549	1.934	1.951	1.906	1.870	1.842	2.023	2.114	1.866	2.058	2.259	2.126	2.264	2.304	2.336	2.125	2.220	2.146	2.118	2.093	2.036	2.078	1.981	2.037	1.930	1.848	1.929
385.0	530.6	562.8	571.3	530.4	503.7	483.1	447.2	447.6	451.1	458.8	450.1	422.5	398.0	359.3	321.5	286.7	270.1	252.3	234.7	223.0	208.4	194.7	189.8	232.5	223.3	122.8	85.43	64.72	57.17	62.00	123.0	657.3	2448	1917	36.72	2.869	1.783	1.720	1.466	1.387	1.011	1.179	1.308	1.331	1.361	1.379	1.582	1.703	1.573	1.612	1.600	2.015	1.830	1.879	1.885	1.841	2.047	1.999	2.075	2.017	2.352	2.244	2.192	2.241	2.238	2.118	2.257	2.110	1.951	2.063	2.003	1.998	1.966	1.960	1.812	1.927	1.870
390.0	514.6	529.8	553.7	518.5	496.5	482.8	461.2	448.6	447.1	452.2	446.1	413.1	384.5	347.0	312.7	283.1	268.2	254.3	240.9	229.5	216.6	203.6	188.0	192.7	222.5	193.5	114.7	78.47	61.69	51.11	53.75	165.8	713.0	1754	1720	154.5	9.726	2.045	1.576	1.454	1.183	1.255	1.263	1.323	1.265	1.421	1.432	1.555	1.644	1.480	1.562	1.787	1.922	1.888	1.805	2.009	2.007	1.997	2.093	2.020	2.072	2.130	2.133	2.025	2.155	2.169	2.102	1.994	2.039	2.109	1.915	1.949	1.884	1.887	1.989	1.839	1.897
395.0	507.9	507.9	524.7	520.8	502.1	484.9	465.8	454.3	444.8	450.7	432.7	410.5	374.6	336.8	306.9	280.8	262.8	250.2	240.2	230.3	221.2	211.6	194.3	182.4	182.2	207.8	178.3	101.2	74.79	57.58	46.83	61.46	175.4	422.0	1241	2027	247.4	7.300	1.917	1.701	1.232	1.330	1.314	1.339	1.422	1.578	1.392	1.594	1.472	1.407	1.528	1.721	1.989	1.792	1.963	1.959	2.012	2.034	2.101	2.279	2.152	2.224	2.194	2.184	2.112	2.290	2.069	1.881	1.899	1.986	1.858	1.874	1.876	1.709	1.945	1.808	1.779
400.0	483.3	512.3	506.7	515.4	489.0	490.3	468.1	452.8	456.4	445.3	430.7	401.1	368.2	336.6	302.4	276.2	262.9	246.1	239.0	231.0	220.7	210.8	195.5	182.7	172.6	178.3	206.3	139.0	85.27	66.16	51.64	42.01	58.89	108.9	343.1	1611	1732	37.49	3.641	1.882	1.439	1.427	1.212	1.242	1.277	1.425	1.294	1.584	1.490	1.474	1.473	1.961	1.832	1.895	1.888	2.072	2.059	1.934	2.039	2.174	2.095	2.175	2.183	2.037	2.165	1.999	2.116	1.953	1.837	1.965	1.871	1.807	1.976	1.762	1.840	2.055	1.879
405.0	502.6	504.6	485.2	494.0	484.7	478.2	468.0	454.3	447.0	439.6	421.3	389.8	360.6	328.4	296.0	270.4	260.6	246.1	235.9	228.7	219.8	211.3	196.5	184.8	171.2	162.3	186.2	182.7	108.6	75.30	57.10	43.30	37.55	41.05	89.68	484.3	1758	1323	31.43	2.624	1.758	1.454	1.306	1.312	1.309	1.425	1.293	1.588	1.605	1.284	1.404	1.744	1.991	2.023	1.965	1.945	2.036	2.030	2.110	2.123	2.101	2.068	2.091	2.105	2.122	2.011	1.872	1.919	1.873	1.996	1.850	1.771	1.854	1.775	1.643	1.793	1.992
410.0	478.7	487.0	475.8	487.5	477.9	470.8	465.5	448.4	439.0	428.2	415.4	378.8	344.3	312.2	284.6	261.8	250.8	239.1	231.1	222.2	216.6	207.3	197.5	186.8	172.5	158.3	156.3	174.5	156.7	98.37	67.23	50.97	39.20	31.48	35.77	120.1	519.0	1280	1259	142.8	7.769	1.809	1.524	1.352	1.339	1.384	1.412	1.550	1.492	1.344	1.465	1.814	1.806	1.934	1.862	1.958	1.999	2.051	2.091	2.136	1.970	2.098	2.186	2.034	2.004	2.029	2.005	1.842	1.808	1.802	1.758	1.692	1.650	1.801	1.635	1.819	1.851
415.0	452.2	465.3	459.2	462.5	455.5	467.7	468.1	445.2	430.9	411.8	397.8	366.1	333.5	298.0	272.2	246.6	239.3	228.9	221.3	214.4	208.4	200.8	193.4	183.7	170.7	155.9	147.6	142.5	162.3	143.5	84.77	59.82	44.99	33.76	27.86	41.08	125.7	309.1	919.4	1468	213.9	6.080	1.830	1.629	1.502	1.418	1.352	1.600	1.553	1.364	1.391	1.747	1.745	1.841	1.915	2.030	2.035	1.946	2.099	2.174	2.289	2.177	2.050	1.958	2.192	1.857	1.872	1.751	1.891	1.760	1.569	1.808	1.590	1.724	1.591	1.752	1.650
420.0	434.6	453.3	459.2	462.2	448.8	462.2	462.8	440.8	421.1	405.9	387.1	358.0	316.0	286.3	264.6	241.4	229.3	222.4	210.5	207.6	200.6	195.3	186.9	179.3	168.9	154.5	144.4	134.5	140.0	158.8	113.2	67.53	49.94	37.44	29.24	25.75	39.85	78.08	252.2	1162	1303	34.42	2.989	1.650	1.476	1.447	1.435	1.503	1.501	1.326	1.420	1.592	1.720	1.962	1.826	1.867	1.996	1.934	1.925	1.942	1.945	2.070	2.039	1.992	2.038	1.964	1.683	1.664	1.773	1.569	1.793	1.802	1.558	1.643	1.516	1.535	1.705
425.0	443.6	464.9	438.4	438.9	447.3	448.3	451.8	433.3	424.0	398.2	383.0	353.8	304.1	277.2	255.7	232.9	218.4	213.3	207.8	199.6	194.7	189.3	183.9	174.5	165.9	155.7	144.1	132.4	126.1	143.1	139.5	83.22	55.78	42.53	32.12	25.52	23.44	27.32	64.21	350.0	1295	999.4	28.37	2.068	1.778	1.481	1.376	1.430	1.376	1.228	1.158	1.721	1.568	1.850	1.945	1.827	2.051	1.914	1.971	1.954	2.002	1.902	1.983	2.101	1.819	1.790	1.762	1.759	1.709	1.627	1.598	1.713	1.831	1.586	1.475	1.504	1.690
430.0	707.0	423.7	413.8	432.1	437.9	438.5	447.1	435.0	417.7	396.0	369.3	340.2	297.4	268.7	245.1	223.2	213.1	203.6	197.9	191.3	184.6	180.5	175.5	169.7	162.1	153.4	143.9	131.7	123.4	122.2	132.0	115.8	72.57	47.72	37.73	29.00	22.67	18.73	23.31	85.32	376.4	936.5	978.9	132.3	7.721	1.728	1.431	1.564	1.446	1.355	1.325	1.676	1.638	1.868	1.839	1.865	2.065	1.971	2.002	2.037	2.047	2.002	2.027	1.966	1.840	1.713	1.610	1.752	1.749	1.630	1.601	1.511	1.691	1.592	1.461	1.554	1.627
435.0	1888	450.1	406.3	417.5	424.4	429.7	459.0	438.3	416.6	384.0	359.1	325.2	292.9	261.8	237.3	215.1	202.7	194.9	188.4	184.0	174.0	168.7	165.4	161.9	156.8	151.4	141.0	133.3	125.1	116.3	110.9	120.3	103.5	61.54	42.73	33.62	25.72	19.29	16.46	27.22	90.33	223.5	686.9	1231	204.6	6.693	1.794	1.505	1.374	1.303	1.250	1.629	1.506	1.913	1.892	1.824	2.053	1.979	1.875	2.015	1.979	1.973	1.974	1.994	1.710	1.894	1.588	1.661	1.494	1.539	1.496	1.593	1.501	1.426	1.398	1.523	1.505
440.0	3304	663.3	404.6	414.4	424.4	438.3	456.5	444.0	403.5	381.7	354.4	316.0	283.2	253.8	228.6	210.8	198.8	189.0	178.5	176.2	168.9	163.4	161.2	157.1	150.2	147.4	138.7	134.0	125.3	114.7	105.4	105.5	112.2	79.99	48.66	37.02	28.52	21.44	16.82	15.49	27.59	55.42	187.3	950.2	1156	32.17	3.227	1.755	1.501	1.435	1.337	1.675	1.574	1.848	1.779	1.857	2.109	2.098	1.947	2.125	1.975	1.992	2.055	1.987	1.720	1.852	1.611	1.575	1.481	1.574	1.435	1.450	1.536	1.569	1.309	1.418	1.615
445.0	3885	1438	412.4	403.2	419.2	431.9	450.9	438.5	404.6	371.2	347.3	309.1	277.5	247.5	219.2	203.8	190.4	181.4	175.4	170.8	161.0	155.1	153.7	151.1	145.5	144.1	135.5	130.7	124.9	115.6	103.6	95.45	100.2	95.76	58.94	40.16	30.90	23.29	17.77	14.16	14.18	18.54	47.14	284.4	1121	922.7	25.61	2.322	1.654	1.405	1.362	1.630	1.586	1.693	2.062	2.075	2.049	2.055	2.093	2.051	2.100	2.002	1.984	1.828	1.880	1.743	1.667	1.504	1.465	1.687	1.486	1.559	1.385	1.484	1.375	1.359	1.458
450.0	2575	3326	676.6	384.6	400.4	420.3	440.6	426.9	391.1	356.4	325.7	299.0	263.9	234.9	209.8	191.4	178.4	172.6	164.3	158.6	149.6	144.7	143.7	140.6	137.3	135.5	129.4	126.0	120.6	113.6	103.3	91.44	84.22	87.78	77.22	49.67	33.98	25.63	19.83	15.23	12.57	11.11	16.07	68.25	321.4	826.0	908.9	120.1	6.925	1.590	1.458	1.615	1.678	1.732	1.886	1.915	1.914	2.012	2.115	1.952	1.925	1.894	1.878	1.863	1.743	1.692	1.641	1.585	1.407	1.515	1.351	1.497	1.398	1.286	1.402	1.320	1.319
455.0	972.1	3878	2051	382.8	372.5	391.0	415.6	410.7	378.3	343.2	306.5	283.0	242.9	218.8	193.3	178.2	166.1	158.2	152.8	145.7	137.6	132.8	130.5	129.3	127.3	126.6	122.8	118.2	113.7	108.5	101.4	87.98	77.81	71.05	75.95	65.98	39.60	27.84	21.73	16.35	13.12	10.81	9.551	19.99	75.63	195.4	552.8	1041	174.8	6.875	1.535	1.581	1.626	1.720	1.826	1.791	1.857	1.899	2.125	1.921	1.925	1.866	1.745	1.739	1.642	1.473	1.607	1.309	1.316	1.317	1.231	1.265	1.413	1.318	1.242	1.332	1.314
460.0	470.5	2562	3704	582.3	361.3	374.4	398.3	395.4	352.3	322.0	293.3	263.7	229.5	206.7	183.9	164.9	156.1	149.7	144.5	133.7	126.5	122.2	121.5	120.9	120.4	117.3	114.6	111.7	108.0	103.4	98.21	85.09	73.95	64.52	63.35	68.68	49.55	29.72	22.40	18.22	13.77	11.56	9.236	9.357	21.17	47.34	143.1	719.8	932.4	131.0	3.240	1.643	1.678	1.768	1.742	1.742	1.688	1.887	1.821	1.927	1.819	1.810	1.710	1.580	1.675	1.352	1.505	1.324	1.336	1.279	1.180	1.303	1.286	1.350	1.273	1.243	1.324
465.0	347.4	1239	4361	1389	340.8	357.5	374.8	369.9	334.3	299.3	273.5	251.0	220.3	194.0	172.5	152.7	143.7	138.3	132.8	126.4	118.1	113.0	112.4	111.5	109.8	108.9	106.3	104.6	101.7	99.24	93.15	81.91	71.37	61.70	54.25	59.26	57.98	35.28	23.45	18.07	13.83	11.99	9.444	7.739	9.359	14.47	35.26	203.4	839.9	763.5	22.07	2.432	1.815	1.679	1.559	1.681	1.790	1.826	1.911	1.895	1.661	1.668	1.757	1.552	1.582	1.353	1.386	1.261	1.207	1.211	1.260	1.212	1.220	1.362	1.196	1.225	1.230
470.0	328.6	520.1	2730	3391	518.0	331.2	345.3	340.8	305.7	277.3	250.1	229.5	200.1	176.3	154.5	139.2	131.6	124.0	118.1	112.4	105.7	100.6	98.49	100.5	97.60	98.46	96.46	95.51	92.49	90.35	84.61	76.36	66.22	58.11	50.03	46.84	50.17	43.55	28.21	18.65	14.52	12.14	9.938	8.037	7.187	7.181	11.26	48.43	231.8	587.0	656.2	115.2	8.085	1.740	1.564	1.644	1.723	1.665	1.783	1.707	1.546	1.715	1.539	1.485	1.418	1.405	1.301	1.171	1.188	1.189	1.197	1.178	1.091	1.182	1.160	1.073	1.090
475.0	365.3	333.6	961.1	3729	1956	313.8	307.0	307.1	273.7	253.5	224.8	206.1	177.1	158.8	140.4	126.1	117.4	109.9	105.1	99.39	92.58	88.42	86.86	87.45	86.26	87.52	85.53	84.37	83.29	81.11	76.54	68.75	60.13	52.54	45.83	40.39	38.33	41.33	36.36	21.44	14.75	11.78	9.814	7.980	7.060	5.976	6.046	13.66	54.30	135.6	322.9	714.2	179.9	9.448	1.709	1.532	1.622	1.624	1.433	1.454	1.495	1.561	1.349	1.281	1.299	1.267	1.186	1.137	1.129	1.149	0.994	0.963	1.024	1.075	1.014	0.960	1.029
480.0	357.6	295.5	408.1	2386	3492	468.1	281.9	290.8	250.4	234.0	207.8	189.4	166.1	146.9	129.2	114.2	106.3	101.4	96.39	90.28	82.38	80.24	79.64	78.65	79.19	78.78	78.62	77.15	76.78	74.97	70.91	64.99	56.74	49.58	42.86	37.48	32.21	33.59	37.26	27.44	15.72	11.86	9.913	8.125	7.277	6.174	4.960	6.236	14.75	32.62	79.78	403.3	697.2	158.9	4.420	1.573	1.569	1.481	1.398	1.442	1.470	1.492	1.254	1.295	1.317	1.276	1.070	1.165	1.015	0.970	0.949	0.987	0.939	0.990	1.039	0.867	1.042
485.0	313.4	304.6	257.0	1094	4028	1253	260.6	263.5	238.1	219.2	198.7	179.2	154.1	140.1	122.5	107.6	99.10	95.40	88.43	84.96	75.62	73.13	72.73	74.58	72.74	71.69	71.24	71.76	71.05	70.70	67.25	60.60	53.21	47.52	40.71	35.15	30.19	28.64	31.56	31.59	19.58	12.01	10.23	8.358	7.348	6.125	5.231	4.675	5.893	9.768	20.11	106.7	517.1	653.8	27.42	2.435	1.607	1.410	1.451	1.439	1.376	1.454	1.250	1.144	1.192	1.079	1.055	0.977	0.855	1.070	0.883	1.063	0.940	0.824	0.980	0.864	0.964
490.0	239.9	318.1	226.7	418.3	2442	3038	391.1	239.8	215.4	200.1	178.5	160.0	141.3	125.0	110.2	97.74	89.74	83.96	79.91	75.99	69.16	66.18	65.28	66.95	65.34	64.45	64.83	64.39	64.47	63.87	60.38	54.60	48.99	43.97	37.57	32.69	28.43	25.24	24.05	27.65	25.21	15.52	10.30	8.551	7.435	6.171	5.596	4.788	4.217	4.576	6.666	26.01	134.1	392.3	553.3	247.5	10.93	1.625	1.402	1.354	1.346	1.319	1.207	1.168	1.166	1.000	0.925	0.963	0.898	0.924	0.886	0.979	0.876	0.906	0.849	0.838	0.917
495.0	176.3	277.2	250.5	240.4	827.1	3308	1670	232.0	195.9	178.9	162.7	143.2	125.3	113.4	97.46	86.43	79.70	74.29	70.14	67.32	62.71	58.91	57.40	58.63	57.49	57.74	57.36	56.60	56.42	57.14	53.63	48.37	44.47	39.80	34.40	30.51	26.24	22.74	20.42	20.06	23.53	21.01	12.98	8.729	7.335	6.060	5.360	5.019	4.047	3.648	3.586	7.829	31.76	90.11	246.4	656.5	222.0	14.11	1.560	1.374	1.379	1.145	1.114	1.000	0.955	0.929	0.940	0.982	0.912	0.943	0.889	0.926	0.777	0.852	0.809	0.759	0.827
500.0	152.8	215.2	266.9	189.7	326.5	2080	3023	331.7	174.1	159.3	150.7	132.3	115.5	104.5	88.50	77.66	70.19	66.40	63.04	59.53	55.57	52.41	51.29	52.08	51.81	52.06	50.71	52.39	50.81	51.78	49.17	44.68	40.96	35.44	31.50	28.44	24.50	21.36	18.60	16.61	18.95	22.07	16.91	9.275	7.266	6.241	5.340	4.662	4.320	3.679	3.125	3.952	9.030	21.91	59.69	315.6	676.1	191.2	7.527	1.423	1.283	1.167	1.056	1.001	1.005	0.827	0.874	0.799	0.909	0.877	0.813	0.877	0.730	0.812	0.761	0.727	0.817
505.0	142.0	170.7	267.8	186.5	195.1	918.8	3480	979.4	163.4	145.4	135.1	120.6	107.7	96.96	79.37	72.09	64.41	59.93	56.22	54.09	49.89	48.34	47.07	46.89	46.88	46.80	47.09	46.32	45.87	46.68	44.58	41.30	36.71	32.72	29.49	26.16	23.20	20.35	17.70	14.97	14.79	18.93	19.02	11.81	7.355	6.204	5.364	4.681	4.192	3.919	3.146	3.052	3.834	6.532	15.12	78.41	397.4	633.4	145.2	3.311	1.195	1.100	1.008	1.052	0.884	0.820	0.812	0.859	0.800	0.828	0.715	0.733	0.746	0.818	0.701	0.615	0.684
510.0	126.7	136.5	202.5	215.7	156.3	332.1	2078	2531	253.7	128.7	117.2	106.5	94.27	81.39	71.12	61.98	56.43	53.62	49.72	47.15	43.54	41.95	41.11	41.76	40.81	40.74	41.50	40.56	40.85	40.31	39.85	36.12	32.68	29.45	25.93	23.22	20.47	18.12	15.83	13.49	12.61	13.05	16.14	14.98	9.473	6.311	5.080	4.406	4.053	3.553	3.429	2.991	2.778	3.196	5.048	19.12	98.13	316.3	482.0	218.6	11.88	1.186	1.005	0.987	0.880	0.796	0.857	0.787	0.721	0.781	0.667	0.663	0.657	0.733	0.666	0.657	0.639
515.0	111.1	116.2	135.4	228.9	155.9	171.6	686.6	2827	1290	124.5	102.3	90.76	82.06	70.58	60.73	53.60	51.13	46.94	42.33	40.05	36.83	36.07	35.53	35.16	34.23	34.85	35.05	33.79	35.39	34.84	33.44	31.21	28.88	25.06	22.66	20.38	18.32	15.88	13.51	12.13	10.95	10.24	10.93	13.65	13.06	7.675	5.044	4.220	3.941	3.165	3.181	3.124	2.646	2.404	2.816	5.797	23.18	72.09	165.7	472.0	226.0	15.67	1.076	0.860	0.886	0.703	0.863	0.738	0.695	0.664	0.676	0.636	0.664	0.623	0.591	0.644	0.579
520.0	103.7	94.56	104.4	187.5	176.7	119.6	252.2	1807	2449	216.8	92.67	82.14	73.43	63.55	53.18	48.28	43.40	41.12	38.51	35.78	32.15	31.96	31.69	30.77	29.92	31.25	30.88	30.73	30.60	30.42	29.40	27.89	25.27	22.65	20.33	18.43	16.60	14.74	12.97	11.04	9.992	9.000	8.564	10.37	13.51	9.826	5.524	4.292	3.721	3.097	2.872	3.023	2.849	2.244	2.272	2.931	6.547	17.38	39.33	198.2	488.2	191.0	9.042	1.005	0.791	0.804	0.671	0.659	0.715	0.587	0.613	0.669	0.641	0.518	0.568	0.579	0.553
525.0	103.5	92.66	93.04	138.6	196.9	117.4	130.3	784.3	3008	746.1	86.57	74.26	68.51	57.77	47.47	43.14	40.23	36.33	34.38	31.69	29.50	28.53	28.33	27.75	27.07	27.32	27.08	28.07	27.76	27.79	26.22	24.80	23.39	20.40	18.20	16.76	14.59	12.92	12.16	9.975	9.540	8.077	7.364	7.922	11.16	11.48	7.134	4.445	3.461	3.129	2.753	2.656	2.898	2.502	2.013	2.144	2.809	5.125	10.08	48.18	248.0	462.8	139.6	3.556	0.808	0.730	0.716	0.613	0.666	0.572	0.502	0.646	0.525	0.477	0.572	0.552	0.540
530.0	84.04	76.14	79.59	91.36	172.4	139.0	99.75	261.3	1800	2132	170.5	66.38	57.15	49.98	43.68	37.55	34.29	31.36	29.49	27.84	25.84	24.57	24.30	23.70	23.18	23.62	23.86	23.44	23.91	24.17	22.91	21.19	19.93	17.82	16.06	14.22	12.70	11.97	10.35	9.108	8.024	7.286	6.675	6.273	7.355	9.564	8.920	5.374	3.511	2.949	2.632	2.340	2.520	2.595	2.199	1.910	1.862	2.279	3.360	11.82	59.63	202.3	336.6	135.8	12.39	0.833	0.740	0.595	0.586	0.524	0.518	0.542	0.540	0.511	0.529	0.488	0.478
535.0	71.71	64.64	71.08	72.04	120.1	167.5	94.42	118.5	563.9	2412	1037	64.56	48.91	43.47	37.23	32.12	29.38	26.09	25.27	23.17	21.69	20.21	20.72	19.40	19.78	19.76	20.12	19.56	19.22	19.75	19.21	18.34	16.70	15.39	13.71	12.18	11.05	9.992	9.432	7.976	7.265	6.646	5.760	5.419	5.250	6.092	7.947	6.891	4.110	2.708	2.356	2.168	2.146	2.270	2.317	2.048	1.622	1.578	1.909	3.571	14.28	45.96	103.4	304.4	215.9	15.90	0.874	0.588	0.607	0.550	0.576	0.532	0.479	0.454	0.468	0.437	0.502
540.0	66.82	63.80	58.58	58.42	77.94	169.8	108.4	79.49	180.9	1482	1951	130.9	45.89	38.11	32.25	28.78	26.24	23.61	21.95	19.78	19.38	18.48	17.57	17.95	17.23	17.47	18.03	17.51	16.97	17.74	16.88	15.81	14.03	13.59	11.85	11.00	9.610	8.694	8.123	7.178	6.267	6.035	5.342	5.062	4.371	4.637	5.942	7.565	5.389	2.807	2.120	1.990	1.875	1.845	2.074	2.247	1.846	1.502	1.454	1.727	3.955	11.06	24.33	117.0	340.0	169.8	8.293	0.673	0.629	0.528	0.521	0.524	0.520	0.485	0.417	0.411	0.464
545.0	63.33	62.04	57.76	50.64	61.46	137.5	127.4	67.79	85.33	594.1	2452	488.6	41.32	34.46	28.51	25.91	21.59	20.45	19.24	17.92	17.28	16.70	15.76	16.15	15.32	15.13	15.48	15.35	15.47	15.53	15.04	14.05	12.12	11.73	10.25	9.363	8.590	7.905	7.242	6.360	5.509	5.187	4.545	4.401	3.903	3.748	4.489	6.352	6.206	3.728	2.144	1.905	1.716	1.696	1.773	1.931	2.000	1.386	1.300	1.245	1.617	3.377	6.143	27.94	155.9	324.2	107.5	2.930	0.720	0.636	0.462	0.498	0.504	0.406	0.417	0.373	0.484
550.0	59.38	54.80	52.69	46.39	48.87	85.18	141.2	71.56	56.49	180.3	1414	1578	98.54	29.82	24.86	21.53	18.51	17.11	15.76	14.89	13.66	13.56	12.92	13.10	12.49	12.74	12.88	11.96	12.35	12.65	12.29	11.58	10.34	9.651	8.883	7.593	7.436	6.758	6.021	5.489	5.011	4.350	4.052	3.764	3.589	3.138	3.217	3.929	5.352	4.596	2.785	1.925	1.553	1.525	1.516	1.571	1.875	1.694	1.269	1.076	1.020	1.456	1.992	6.935	37.09	133.5	220.1	118.2	11.32	0.701	0.521	0.472	0.441	0.480	0.455	0.377	0.431
555.0	59.06	52.81	44.62	38.69	40.36	52.75	112.2	95.39	46.14	73.21	416.6	1888	599.6	28.61	20.43	17.20	15.80	13.80	13.01	12.41	11.21	10.65	10.11	10.42	10.12	10.23	10.71	9.947	10.62	10.59	9.935	8.983	8.555	7.735	7.150	6.546	6.158	5.418	4.766	4.664	3.984	3.803	3.373	2.991	2.887	2.579	2.546	2.545	3.398	4.475	3.617	2.327	1.325	1.421	1.228	1.394	1.434	1.515	1.464	1.083	0.920	1.048	1.097	2.041	8.974	30.31	66.92	197.4	158.8	12.56	0.635	0.437	0.451	0.378	0.422	0.466	0.377
560.0	61.66	64.18	43.98	33.82	39.38	39.10	77.21	121.3	48.87	49.40	130.0	1172	1320	62.14	17.72	14.72	13.66	11.90	11.10	10.34	9.609	9.001	8.689	8.660	8.635	8.561	8.650	8.334	8.826	8.597	8.173	7.675	7.249	6.413	5.918	5.597	5.368	4.669	4.334	3.961	3.448	3.340	3.016	2.826	2.743	2.262	2.106	2.039	2.264	3.455	3.753	2.674	1.339	1.123	1.200	1.115	1.165	1.291	1.404	1.233	0.900	0.777	0.837	1.036	2.549	7.270	15.74	74.11	221.4	109.2	5.399	0.562	0.484	0.417	0.428	0.398	0.440
565.0	75.23	75.83	53.69	34.74	34.33	33.38	53.48	120.8	64.01	43.92	65.00	460.9	1728	152.1	16.58	13.38	11.77	10.09	9.642	9.462	8.685	7.192	7.850	7.336	7.133	7.195	7.367	7.003	7.335	7.258	6.796	6.309	6.163	5.567	5.040	4.581	4.536	3.810	3.729	3.334	2.891	2.890	2.492	2.246	2.243	1.925	1.960	1.765	1.827	2.252	3.043	2.932	1.653	1.151	1.036	1.019	0.964	1.064	1.236	1.558	1.116	0.696	0.704	0.739	1.015	2.192	4.111	17.59	98.16	197.1	32.76	2.001	0.488	0.371	0.363	0.357	0.414
570.0	112.0	100.6	67.34	39.37	29.77	29.04	37.42	89.94	103.9	54.47	60.95	157.2	1039	940.4	52.76	11.18	9.600	8.339	7.673	7.406	6.893	6.412	6.138	6.062	5.881	5.885	6.145	5.830	5.994	6.111	5.671	5.411	5.131	4.321	4.191	3.762	3.820	3.339	3.125	2.774	2.490	2.342	2.196	2.267	1.850	1.926	1.664	1.610	1.560	1.564	2.011	2.616	2.191	1.326	0.972	0.937	0.852	0.857	0.965	1.070	1.292	0.948	0.763	0.679	0.783	1.029	1.459	4.467	23.40	78.35	126.6	75.52	8.905	0.507	0.363	0.381	0.380
575.0	150.0	139.8	84.12	38.52	27.86	27.19	32.39	56.50	126.2	78.98	69.52	88.55	321.9	1219	349.1	10.57	7.890	6.869	6.473	6.222	5.572	5.264	4.723	5.333	4.492	4.736	5.150	5.166	4.769	4.909	4.609	4.175	4.106	3.663	3.251	3.277	2.954	2.638	2.474	2.429	2.159	1.914	1.976	1.810	1.803	1.762	1.408	1.499	1.195	1.267	1.307	1.735	2.234	1.783	1.107	0.759	0.808	0.669	0.830	0.862	1.058	1.188	0.871	0.800	0.793	0.752	0.829	1.571	5.804	18.01	37.78	114.4	94.83	8.743	0.378	0.396	0.376
580.0	172.6	156.4	91.60	37.80	24.68	25.14	28.15	43.00	113.0	106.3	80.16	81.34	121.5	763.5	824.3	25.28	7.348	5.930	5.521	4.932	4.518	4.606	4.251	4.463	4.021	3.993	4.284	4.107	3.950	4.136	4.037	3.864	3.509	3.382	3.125	2.753	2.651	2.501	2.181	2.119	1.878	1.705	1.649	1.550	1.707	1.650	1.457	1.341	1.213	1.004	0.984	1.138	1.724	1.910	1.303	0.728	0.630	0.688	0.695	0.675	0.900	1.058	1.040	0.820	0.724	0.697	0.778	0.875	1.764	4.609	9.027	42.10	125.2	35.35	3.528	0.460	0.445
585.0	190.2	165.2	102.2	41.70	24.72	25.81	26.50	40.02	90.92	132.1	91.14	83.49	74.23	297.8	1067	96.34	6.873	5.425	4.785	4.754	4.169	3.912	3.650	3.628	3.766	3.745	3.655	3.461	3.274	3.387	3.556	3.123	2.870	2.821	2.502	2.684	2.356	2.176	1.882	1.917	1.666	1.514	1.496	1.500	1.463	1.517	1.301	1.313	1.105	0.988	0.774	0.924	1.176	1.703	1.520	0.948	0.554	0.609	0.638	0.633	0.666	0.860	1.198	1.028	0.692	0.733	0.738	0.796	0.930	1.604	2.573	10.07	54.24	111.1	30.17	1.548	0.423
590.0	190.2	180.5	113.5	42.72	23.59	22.57	26.32	36.43	66.00	136.1	116.7	87.78	67.91	95.42	631.5	532.4	23.14	4.936	4.111	3.980	3.640	3.361	3.176	2.972	3.294	2.995	2.932	3.037	2.854	3.012	2.845	2.573	2.548	2.319	2.236	2.348	2.032	1.878	1.664	1.646	1.454	1.332	1.413	1.367	1.306	1.402	1.238	1.289	0.940	0.843	0.752	0.766	0.815	1.114	1.533	1.137	0.722	0.591	0.592	0.629	0.612	0.651	0.904	1.162	1.028	0.753	0.732	0.705	0.788	0.915	1.021	2.644	12.90	44.46	77.73	49.28	6.870
595.0	185.6	184.1	111.6	42.98	23.12	21.24	26.56	34.59	55.56	106.8	142.5	90.19	63.83	42.86	180.0	706.5	95.56	4.812	3.471	3.470	3.424	2.986	2.663	2.479	2.698	2.504	2.486	2.430	2.536	2.262	2.129	2.108	1.900	1.941	1.787	1.923	1.585	1.512	1.413	1.297	1.171	1.105	1.188	1.119	1.252	1.117	1.029	1.168	0.872	0.740	0.632	0.569	0.686	0.787	1.100	1.235	1.034	0.615	0.602	0.595	0.591	0.653	0.711	0.959	1.010	1.012	0.793	0.681	0.801	0.730	0.700	0.919	3.237	10.21	22.81	68.00	37.15
600.0	185.7	181.2	112.6	45.01	20.58	20.10	26.14	34.26	49.73	87.72	148.8	97.99	64.36	32.81	51.29	459.8	410.9	10.48	3.410	3.108	2.954	2.747	2.400	2.138	2.266	2.151	2.073	2.173	2.087	2.216	1.949	1.794	1.903	1.639	1.569	1.665	1.496	1.426	1.219	1.152	1.158	1.048	1.214	0.934	1.148	1.075	1.033	1.060	0.795	0.702	0.598	0.527	0.614	0.604	0.771	1.200	1.165	0.788	0.662	0.514	0.723	0.565	0.663	0.752	0.853	1.133	0.812	0.701	0.728	0.632	0.521	0.506	1.067	2.567	5.460	24.55	72.91
605.0	192.5	164.4	103.2	43.57	18.74	19.29	26.36	32.92	50.04	76.40	135.6	107.3	63.94	30.12	21.03	176.7	595.6	54.61	3.400	2.798	2.403	2.148	2.316	1.759	2.014	1.993	1.943	1.717	1.605	1.843	1.822	1.532	1.589	1.478	1.540	1.404	1.599	1.255	1.101	1.056	0.978	0.973	0.981	0.876	1.081	0.996	0.939	1.023	0.769	0.670	0.539	0.482	0.528	0.531	0.557	0.967	0.986	0.831	0.690	0.462	0.608	0.491	0.684	0.655	0.825	1.129	1.055	0.715	0.675	0.589	0.563	0.442	0.559	0.827	1.523	5.907	31.49
610.0	172.3	158.4	104.4	40.86	19.21	18.78	22.75	34.77	48.96	68.99	106.2	122.7	63.74	28.61	14.67	50.54	390.6	298.2	9.702	2.480	2.180	1.939	1.977	1.816	1.665	1.718	1.517	1.509	1.527	1.527	1.500	1.281	1.357	1.277	1.309	1.336	1.294	1.144	1.015	0.884	0.888	0.979	0.910	0.878	0.908	0.912	0.824	0.874	0.745	0.644	0.515	0.459	0.449	0.459	0.482	0.665	0.882	0.857	0.707	0.573	0.532	0.474	0.700	0.610	0.702	0.793	1.003	0.857	0.705	0.610	0.522	0.443	0.421	0.446	0.654	1.643	7.588
615.0	156.4	141.9	91.64	38.69	18.80	19.75	21.82	31.47	43.94	62.30	80.36	114.6	73.92	27.83	13.00	18.41	118.4	450.6	66.24	2.408	1.839	1.748	1.620	1.438	1.362	1.517	1.341	1.271	1.311	1.340	1.182	1.082	1.127	1.087	1.121	1.160	0.910	1.062	0.865	0.775	0.768	0.708	0.859	0.789	0.752	0.915	0.741	0.780	0.684	0.528	0.453	0.414	0.411	0.385	0.416	0.509	0.638	0.852	0.903	0.666	0.540	0.546	0.609	0.606	0.615	0.659	0.708	0.879	0.800	0.523	0.497	0.369	0.431	0.417	0.421	0.752	1.991
620.0	149.6	127.1	79.66	36.52	18.77	18.65	20.81	27.93	41.30	56.80	72.86	96.52	80.15	26.86	11.81	10.19	34.30	321.9	237.5	4.500	1.819	1.594	1.507	1.385	1.254	1.318	1.192	1.166	1.146	1.136	1.191	0.922	0.994	0.995	0.896	1.027	0.860	0.865	0.948	0.814	0.644	0.627	0.694	0.655	0.688	0.788	0.671	0.740	0.585	0.437	0.420	0.363	0.387	0.360	0.344	0.486	0.504	0.681	0.818	0.850	0.667	0.546	0.515	0.529	0.562	0.625	0.624	0.744	0.837	0.697	0.493	0.382	0.360	0.437	0.380	0.402	0.671
625.0	133.1	117.9	73.45	32.94	17.96	15.66	18.97	27.27	38.97	51.20	66.06	74.67	82.92	30.26	12.02	8.828	13.12	137.2	387.8	23.95	1.704	1.748	1.398	1.283	1.177	1.258	0.957	1.007	1.155	1.090	1.057	0.982	0.867	0.886	0.760	0.991	0.797	0.835	0.727	0.819	0.589	0.641	0.630	0.662	0.685	0.660	0.660	0.605	0.523	0.468	0.364	0.394	0.381	0.349	0.364	0.412	0.437	0.514	0.696	0.693	0.636	0.482	0.519	0.511	0.653	0.592	0.580	0.563	0.702	0.742	0.595	0.409	0.356	0.413	0.368	0.386	0.397
630.0	114.8	106.2	68.01	29.30	17.31	15.80	18.66	25.82	34.37	45.47	57.22	58.79	69.63	40.32	12.18	8.036	7.837	38.54	287.5	159.5	4.267	1.545	1.288	1.135	1.220	1.127	0.934	0.979	0.900	0.956	0.819	0.848	0.861	0.813	0.732	0.724	0.775	0.730	0.655	0.723	0.637	0.523	0.557	0.548	0.626	0.601	0.594	0.537	0.512	0.400	0.314	0.368	0.354	0.355	0.342	0.347	0.388	0.424	0.515	0.618	0.680	0.515	0.508	0.499	0.561	0.564	0.557	0.472	0.585	0.678	0.590	0.495	0.368	0.376	0.312	0.352	0.353
635.0	107.6	95.10	60.57	29.69	15.50	16.36	16.57	21.14	31.23	38.60	50.24	50.19	50.44	48.11	15.14	7.443	6.964	11.96	91.38	311.0	40.20	1.524	1.170	0.989	1.120	1.060	0.905	0.847	0.846	0.936	0.733	0.853	0.756	0.644	0.667	0.639	0.729	0.641	0.539	0.600	0.622	0.517	0.575	0.525	0.522	0.554	0.519	0.480	0.513	0.352	0.351	0.366	0.254	0.347	0.303	0.350	0.364	0.361	0.458	0.494	0.522	0.494	0.452	0.434	0.460	0.538	0.523	0.476	0.572	0.540	0.543	0.588	0.401	0.425	0.322	0.389	0.303
640.0	86.69	90.86	54.48	27.42	14.42	13.60	15.40	20.36	26.63	37.43	44.33	45.03	39.46	46.14	20.02	7.852	6.446	6.134	25.04	254.5	147.9	2.444	1.186	1.069	0.945	0.884	0.805	0.744	0.725	0.859	0.644	0.702	0.725	0.627	0.725	0.611	0.648	0.583	0.527	0.481	0.596	0.670	0.547	0.485	0.469	0.518	0.495	0.458	0.440	0.319	0.278	0.318	0.338	0.325	0.278	0.289	0.358	0.376	0.394	0.398	0.468	0.515	0.510	0.488	0.472	0.437	0.433	0.452	0.514	0.457	0.442	0.573	0.483	0.342	0.344	0.383	0.317
645.0	87.26	81.79	51.47	24.34	16.62	13.26	15.89	20.22	24.65	32.79	40.72	41.26	34.39	36.96	26.56	8.703	6.408	4.810	8.191	117.5	262.0	11.57	1.351	1.049	0.902	0.789	0.793	0.711	0.755	0.782	0.719	0.618	0.682	0.599	0.617	0.600	0.562	0.576	0.480	0.468	0.482	0.650	0.469	0.432	0.487	0.523	0.490	0.433	0.371	0.383	0.256	0.295	0.264	0.347	0.291	0.355	0.364	0.407	0.388	0.347	0.445	0.559	0.516	0.457	0.445	0.486	0.531	0.449	0.381	0.454	0.461	0.492	0.585	0.445	0.353	0.381	0.351
650.0	82.55	72.59	47.67	22.94	13.55	13.37	13.78	18.85	23.40	29.50	36.15	37.06	30.33	28.52	32.63	10.09	6.901	4.385	4.256	36.10	271.4	54.81	1.341	0.982	0.927	0.719	0.778	0.686	0.784	0.778	0.720	0.657	0.582	0.545	0.564	0.604	0.478	0.478	0.405	0.425	0.427	0.574	0.576	0.460	0.440	0.495	0.473	0.439	0.379	0.289	0.275	0.298	0.278	0.325	0.313	0.323	0.354	0.402	0.348	0.361	0.359	0.468	0.431	0.472	0.471	0.479	0.412	0.458	0.402	0.422	0.426	0.387	0.456	0.429	0.405	0.355	0.300
