Sample:	'1
File name:	Default_20230918_143429.FD3
Run date:	'14:28:08, 09/18/2023
Operator:	dsjg
Comment:	'

Instrument
Model:	F-2700 FL Spectrophotometer
Serial number:	2198-001
ROM Version:	4J14000 07

Instrument parameters
Measurement type:	3-D scan
Data mode:	Fluorescence
EX  Start WL:	220.0 nm
EX  End WL:	600.0 nm
EX Sampling interval:	5.0 nm
EM  Start WL:	230.0 nm
EM  End WL:	650.0 nm
EM Sampling interval:	5.0 nm
Scan speed:	12000 nm/min
EX Slit:	5.0 nm
EM Slit:	5.0 nm
PMT Voltage:	700 V
Response:	Auto 
Corrected spectra:	Off
Contour interval:	50.000

Peak integration
Integration method:	Rectangular
Sensitivity:	1
Threshold:	1.000

Peaks
No.	ApexEX/EM(nm)	Height(Data)
1	225.0/345.0	 1199
2	225.0/420.0	 2583
3	285.0/425.0	 4178
4	350.0/420.0	 5201
5	575.0/430.0	18.14
6	580.0/425.0	18.50

Data points
	220.0	225.0	230.0	235.0	240.0	245.0	250.0	255.0	260.0	265.0	270.0	275.0	280.0	285.0	290.0	295.0	300.0	305.0	310.0	315.0	320.0	325.0	330.0	335.0	340.0	345.0	350.0	355.0	360.0	365.0	370.0	375.0	380.0	385.0	390.0	395.0	400.0	405.0	410.0	415.0	420.0	425.0	430.0	435.0	440.0	445.0	450.0	455.0	460.0	465.0	470.0	475.0	480.0	485.0	490.0	495.0	500.0	505.0	510.0	515.0	520.0	525.0	530.0	535.0	540.0	545.0	550.0	555.0	560.0	565.0	570.0	575.0	580.0	585.0	590.0	595.0	600.0
230.0	126.5	 1469	 1950	328.9	9.507	5.061	3.845	3.788	3.524	3.688	3.239	2.846	2.832	2.613	2.380	2.076	1.822	1.697	1.714	1.799	1.825	1.850	1.807	1.925	2.062	2.110	1.967	1.868	1.773	1.677	1.611	1.448	1.166	0.939	0.882	0.851	0.782	0.750	0.560	0.647	0.595	0.615	0.568	0.475	0.389	0.355	0.956	4.039	7.943	6.432	2.775	0.604	0.293	0.265	0.230	0.242	0.237	0.226	0.204	0.208	0.187	0.186	0.193	0.191	0.195	0.174	0.204	0.160	0.152	0.168	0.140	0.146	0.149	0.139	0.144	0.141	0.155
235.0	55.38	464.7	 1741	 2056	355.6	11.18	5.558	4.350	3.975	4.251	4.056	2.364	2.854	3.094	2.399	2.054	1.926	1.663	1.652	1.731	1.818	2.062	1.909	2.195	2.079	2.172	2.115	2.016	1.709	1.641	1.509	1.281	1.141	0.873	0.896	0.813	0.775	0.693	0.632	0.656	0.603	0.603	0.598	0.606	0.496	0.369	0.453	1.153	2.732	4.953	7.492	8.422	4.200	0.915	0.259	0.300	0.225	0.259	0.296	0.173	0.203	0.178	0.205	0.206	0.221	0.160	0.183	0.167	0.118	0.160	0.135	0.141	0.103	0.107	0.156	0.138	0.158
240.0	68.44	126.3	694.4	 2428	 1882	245.7	5.382	5.283	4.088	3.586	4.227	2.868	3.140	2.750	2.550	1.957	1.794	1.565	1.714	1.760	1.809	1.848	2.116	2.077	2.029	2.172	2.057	2.146	1.922	1.706	1.616	1.295	1.270	0.913	0.977	0.772	0.733	0.666	0.743	0.618	0.558	0.591	0.568	0.583	0.574	0.627	0.445	0.573	0.883	1.531	3.835	9.460	11.69	8.527	2.854	0.473	0.285	0.223	0.225	0.188	0.210	0.190	0.254	0.185	0.225	0.212	0.181	0.148	0.170	0.147	0.156	0.174	0.148	0.129	0.154	0.152	0.173
245.0	68.85	83.18	181.0	 1187	 2742	 1679	150.3	6.658	4.491	4.821	3.640	3.648	3.613	2.828	2.405	2.384	2.048	1.767	1.525	2.090	1.900	2.113	1.975	2.130	2.127	2.002	2.187	2.122	2.014	1.719	1.645	1.429	1.387	1.101	0.976	0.826	0.704	0.682	0.649	0.582	0.580	0.531	0.510	0.523	0.556	0.492	0.516	0.615	0.486	0.575	1.177	3.296	7.677	13.22	12.67	7.185	1.755	0.329	0.216	0.231	0.187	0.192	0.277	0.231	0.210	0.226	0.217	0.163	0.169	0.201	0.122	0.164	0.160	0.089	0.149	0.121	0.223
250.0	33.05	73.92	96.75	309.8	 1176	 2553	 2280	219.3	21.01	5.469	4.695	4.084	3.971	3.152	2.868	2.468	2.192	1.921	1.790	1.936	1.963	2.087	2.198	2.093	2.231	2.063	2.087	2.148	1.882	1.865	1.700	1.450	1.303	1.091	0.990	0.743	0.727	0.660	0.572	0.620	0.617	0.517	0.556	0.494	0.448	0.424	0.481	0.607	0.588	0.559	0.561	0.984	2.085	4.542	7.907	11.92	14.25	11.67	6.396	1.684	0.313	0.212	0.252	0.191	0.197	0.188	0.210	0.180	0.234	0.195	0.176	0.186	0.158	0.127	0.158	0.130	0.190
255.0	14.16	29.61	85.51	135.9	281.4	822.1	 2739	 2834	299.6	18.91	5.987	4.830	4.511	4.327	2.927	2.328	2.233	2.105	1.917	1.896	1.875	2.125	1.988	2.114	2.370	2.220	2.048	2.109	2.032	1.944	1.646	1.481	1.258	1.126	0.786	0.819	0.745	0.568	0.568	0.572	0.587	0.470	0.551	0.444	0.490	0.454	0.519	0.407	0.487	0.505	0.619	0.730	0.738	1.208	1.988	3.165	6.079	12.88	20.28	18.97	9.054	1.678	0.317	0.247	0.203	0.170	0.199	0.215	0.214	0.199	0.198	0.180	0.146	0.158	0.131	0.170	0.215
260.0	13.27	14.84	42.36	116.9	113.0	202.2	 1084	 3610	 2485	239.8	13.17	5.090	5.123	4.446	3.216	2.911	2.578	2.331	2.113	2.084	1.988	2.095	2.115	2.176	2.386	2.246	2.193	2.381	1.905	1.994	1.654	1.362	1.402	1.062	0.778	0.729	0.850	0.590	0.567	0.699	0.505	0.600	0.626	0.448	0.531	0.461	0.387	0.393	0.428	0.335	0.560	0.683	0.836	0.723	0.645	0.982	1.705	3.897	10.13	19.93	24.79	18.16	5.840	0.838	0.240	0.227	0.225	0.198	0.229	0.193	0.197	0.200	0.138	0.137	0.201	0.225	0.320
265.0	11.75	12.33	21.11	72.90	115.0	82.70	270.6	 1645	 4338	 2154	188.1	8.470	5.837	5.364	4.019	3.210	2.804	2.762	2.068	2.209	2.151	2.085	2.033	2.339	2.339	2.477	2.214	2.328	2.098	2.167	1.740	1.374	1.343	1.049	0.789	0.797	0.784	0.701	0.611	0.571	0.544	0.569	0.590	0.492	0.611	0.436	0.516	0.470	0.441	0.308	0.343	0.458	0.674	0.755	0.603	0.617	0.700	1.097	2.695	6.758	15.08	26.19	26.46	14.48	3.188	0.355	0.230	0.179	0.233	0.229	0.178	0.204	0.218	0.182	0.181	0.231	0.194
270.0	39.79	37.46	27.79	32.49	74.56	111.3	111.6	409.9	 1700	 3733	 3470	855.5	47.63	6.356	4.877	3.912	3.025	2.896	2.543	2.281	2.356	2.359	2.386	2.517	2.587	2.361	2.098	2.340	2.037	2.161	1.886	1.448	1.370	1.127	0.928	0.878	0.861	0.670	0.639	0.597	0.571	0.538	0.583	0.582	0.590	0.578	0.556	0.564	0.415	0.365	0.343	0.362	0.417	0.600	0.666	0.809	0.763	0.586	0.926	1.792	3.847	8.301	14.20	21.07	23.66	19.73	11.10	3.282	0.414	0.223	0.220	0.222	0.170	0.172	0.198	0.179	0.185
275.0	122.8	105.4	71.52	31.97	33.16	81.30	141.9	161.6	417.9	 1103	 3475	 5458	 1272	51.80	6.918	5.176	3.420	3.292	3.122	2.635	2.544	2.576	2.587	2.317	2.732	2.303	2.407	2.338	2.249	2.162	1.936	1.512	1.365	1.274	1.200	1.156	1.091	0.949	0.824	0.821	0.753	0.676	0.775	0.737	0.821	0.854	0.785	0.668	0.701	0.565	0.461	0.455	0.362	0.393	0.391	0.556	0.860	0.977	0.799	0.871	1.265	2.215	3.527	5.368	8.626	17.85	29.51	29.19	15.33	2.850	0.254	0.270	0.139	0.212	0.177	0.225	0.204
280.0	212.1	186.4	119.1	46.35	29.40	49.99	129.1	173.9	172.6	325.0	 1250	 4615	 5464	968.6	23.11	6.198	4.186	4.091	3.400	2.662	2.799	2.392	2.638	2.618	2.758	2.703	2.460	2.572	2.261	2.214	1.828	1.650	1.502	1.329	1.318	1.230	1.169	1.157	1.011	0.893	0.791	0.835	0.884	0.920	0.936	1.109	0.967	1.020	0.807	0.591	0.562	0.449	0.423	0.434	0.399	0.401	0.559	0.799	1.054	1.038	0.909	1.067	1.282	1.768	2.479	5.194	12.30	25.72	34.81	26.09	9.934	1.059	0.201	0.191	0.194	0.207	0.195
285.0	294.9	275.5	167.4	66.48	37.77	45.80	90.27	188.6	207.2	197.4	417.1	 1797	 5222	 5137	141.3	10.85	5.503	4.389	3.737	2.959	2.917	2.707	2.658	2.610	2.901	2.806	2.530	2.586	2.491	2.320	2.132	1.671	1.530	1.424	1.438	1.466	1.547	1.374	1.191	1.042	0.985	1.105	1.090	1.166	1.163	1.364	1.254	1.378	1.079	0.884	0.673	0.586	0.381	0.479	0.392	0.482	0.533	0.589	0.821	1.115	1.376	1.294	0.975	1.092	1.243	1.773	3.486	8.099	17.81	32.23	33.35	20.36	4.556	0.504	0.219	0.251	0.183
290.0	422.2	402.3	245.7	108.7	61.67	65.76	99.93	171.1	275.4	323.7	347.1	640.1	 1868	 4193	 4635	 1862	39.25	5.933	4.715	3.639	3.308	3.022	2.964	2.916	2.870	2.671	2.739	2.885	2.772	2.414	2.295	1.710	1.479	1.459	1.444	1.775	1.803	1.669	1.469	1.289	1.271	1.385	1.304	1.308	1.429	1.638	1.513	1.567	1.402	1.011	0.817	0.681	0.504	0.552	0.490	0.532	0.595	0.665	0.841	0.955	1.211	1.587	1.695	1.701	1.540	1.606	1.998	2.834	5.185	9.984	16.18	23.86	26.67	24.30	13.16	3.682	0.396
295.0	515.3	487.5	325.0	162.1	94.95	104.7	130.6	191.8	295.6	442.6	519.7	508.7	691.5	 1229	 2883	 5777	842.8	44.17	6.787	4.768	4.130	3.671	3.335	3.314	3.110	2.971	2.712	2.940	2.815	2.365	2.264	1.905	1.543	1.643	1.763	2.025	2.053	1.908	1.616	1.609	1.496	1.487	1.367	1.412	1.612	1.856	1.679	1.690	1.655	1.183	0.951	0.843	0.621	0.640	0.642	0.643	0.799	0.780	0.873	0.926	1.287	1.461	1.749	2.254	2.715	2.329	2.055	2.194	2.521	3.514	4.671	6.334	9.044	17.70	33.02	33.18	18.52
300.0	536.9	546.2	364.8	197.1	125.8	124.7	160.8	220.3	311.5	463.3	629.7	611.3	506.3	502.4	977.0	 3706	 5946	708.6	25.19	6.397	5.217	4.329	3.854	3.741	3.396	3.209	3.209	2.953	2.672	2.361	2.277	1.846	1.534	1.763	1.889	2.112	2.386	2.067	1.781	1.706	1.555	1.648	1.549	1.510	1.806	1.794	1.701	1.905	1.664	1.340	1.157	1.012	0.885	0.748	0.693	0.789	0.867	0.903	1.128	1.075	1.322	1.629	1.790	2.240	2.723	2.979	2.913	2.617	2.216	2.317	2.348	2.374	2.804	5.328	13.07	27.85	41.99
305.0	582.5	563.3	393.3	224.2	150.1	148.8	194.2	254.2	347.4	484.1	656.8	746.9	559.6	405.2	388.2	 1270	 4432	 5839	549.8	11.41	6.138	5.281	4.287	3.688	3.832	3.574	2.996	3.223	2.958	2.697	2.412	1.931	1.811	1.902	1.968	2.152	2.184	2.202	1.994	1.707	1.604	1.647	1.635	1.735	1.754	1.796	2.000	2.075	1.720	1.281	1.199	1.080	0.983	0.859	0.822	0.946	0.972	1.113	1.259	1.321	1.529	1.747	1.955	2.222	2.515	2.948	3.453	3.378	2.787	2.462	2.115	1.876	1.822	1.974	3.569	8.546	20.16
310.0	587.6	586.2	425.3	249.0	179.8	186.8	230.9	291.3	384.8	517.9	661.9	768.7	717.5	496.5	315.6	407.5	 1368	 3812	 5072	 2072	32.85	6.883	5.358	4.534	4.205	3.952	3.539	3.360	3.003	2.846	2.540	2.193	1.934	1.684	1.783	2.216	2.198	2.182	1.898	1.759	1.638	1.673	1.667	1.764	1.836	2.042	1.956	2.001	1.818	1.337	1.226	1.189	0.999	1.055	1.014	1.019	1.111	1.229	1.328	1.428	1.771	1.822	2.009	2.504	2.716	2.921	3.187	3.323	3.587	3.194	2.694	2.114	1.747	1.526	1.546	2.607	5.241
315.0	618.1	634.1	450.6	270.2	211.1	218.6	262.5	327.8	438.8	575.4	711.1	787.7	776.9	670.4	402.9	272.8	417.0	976.9	 2430	 6283	 3142	40.44	7.058	5.358	4.795	4.365	4.172	3.677	3.506	3.014	2.711	2.502	1.804	1.781	1.942	2.323	2.174	2.196	1.944	1.759	1.797	1.760	1.766	1.773	2.080	2.106	2.040	2.262	1.892	1.534	1.250	1.400	1.050	1.261	1.025	1.247	1.223	1.344	1.524	1.618	1.780	2.086	2.202	2.654	2.993	3.008	3.333	3.501	3.404	3.396	3.295	2.996	2.226	1.804	1.434	1.429	1.962
320.0	736.2	726.5	510.9	311.2	231.2	239.5	291.4	370.9	480.5	629.4	770.0	849.4	822.8	748.9	545.7	305.6	244.2	309.1	711.4	 3343	 7152	555.0	24.92	7.008	6.043	4.998	4.423	3.810	3.687	3.361	2.882	2.348	1.979	1.862	1.891	1.929	2.073	2.292	2.177	2.004	1.737	1.907	1.780	1.879	2.247	2.282	2.172	2.536	2.084	1.641	1.341	1.378	1.081	1.208	1.160	1.320	1.350	1.607	1.563	1.775	2.025	2.487	2.482	2.872	3.196	3.697	3.747	3.636	3.623	3.510	3.435	3.328	3.119	2.339	1.581	1.425	1.326
325.0	849.3	830.5	587.1	371.4	261.4	263.9	326.3	407.0	529.3	689.3	841.3	916.9	891.3	798.6	664.1	407.6	245.3	190.0	235.7	 1001	 4498	 6507	459.6	12.89	7.189	5.718	4.961	4.457	3.915	3.371	3.057	2.469	2.093	1.940	2.038	1.991	2.107	2.173	2.157	2.002	1.769	2.080	1.926	2.160	2.417	2.453	2.612	2.765	2.327	1.896	1.470	1.510	1.270	1.225	1.185	1.225	1.548	1.847	1.951	1.862	2.207	2.527	2.833	3.239	3.770	3.683	3.915	3.810	3.964	3.706	3.831	3.352	3.346	3.169	2.351	1.737	1.437
330.0	939.0	961.3	718.6	457.2	336.4	303.7	366.8	461.2	591.4	752.9	918.2	 1005	981.9	866.6	701.7	531.5	353.5	216.6	168.0	304.0	 1253	 3867	 4786	 1835	30.43	7.543	6.148	4.965	4.294	3.806	3.290	2.639	2.356	2.041	2.102	1.986	2.237	1.993	2.048	1.927	1.845	1.905	2.025	2.162	2.486	2.934	3.142	3.005	2.749	2.073	1.789	1.816	1.518	1.479	1.391	1.530	1.762	1.763	2.122	2.196	2.417	2.697	3.027	3.502	3.860	3.936	4.325	4.377	4.238	4.211	3.955	3.642	3.484	3.098	2.838	2.601	2.030
335.0	 1016	 1077	847.4	587.5	416.4	368.4	420.6	520.2	661.8	843.1	 1012	 1102	 1092	984.4	779.2	583.8	489.6	331.7	215.9	197.1	373.8	957.9	 2224	 6663	 2889	38.03	8.427	6.255	5.014	4.358	3.866	3.022	2.508	2.372	2.282	1.864	2.142	2.232	1.992	1.923	1.960	1.889	2.170	2.516	2.645	3.202	3.231	3.509	2.905	2.399	2.138	2.310	1.934	1.742	1.586	1.734	1.987	1.975	2.370	2.459	2.661	2.982	3.414	3.831	4.314	4.402	4.435	4.809	4.643	4.801	4.242	4.142	4.032	3.275	3.028	2.825	2.639
340.0	 1093	 1153	922.3	637.7	473.2	417.6	465.9	573.2	720.5	901.8	 1071	 1159	 1166	 1064	852.0	639.0	531.8	449.2	293.6	220.0	217.7	312.0	635.8	 3427	 7458	468.6	26.18	7.496	6.209	4.826	4.195	3.289	2.751	2.328	2.226	2.141	2.080	2.048	2.090	2.045	2.053	2.012	2.230	2.551	2.885	3.229	3.518	3.629	3.392	2.640	2.494	2.370	2.139	1.889	1.756	1.789	2.071	2.216	2.536	2.556	3.022	3.319	3.690	3.765	4.220	4.622	4.849	4.936	5.197	5.171	4.612	4.530	4.248	3.676	3.373	3.168	2.609
345.0	 1112	 1199	970.5	688.8	525.4	461.4	503.6	614.9	753.8	946.5	 1109	 1213	 1202	 1112	913.9	695.5	564.0	513.5	414.1	288.8	237.0	212.2	246.0	994.5	 4804	 6512	401.4	14.69	7.880	5.670	4.927	3.416	2.663	2.367	2.351	2.157	2.208	2.045	2.048	2.123	2.077	2.243	2.297	2.450	2.944	3.523	3.483	3.627	3.236	2.784	2.526	2.601	2.346	2.138	1.964	1.915	2.172	2.502	2.597	2.876	3.184	3.616	3.812	4.111	4.348	4.862	4.935	5.119	5.375	5.183	4.840	5.052	4.485	3.983	3.496	3.359	2.836
350.0	 1094	 1192	 1017	769.9	599.7	538.6	575.4	687.3	830.6	 1002	 1152	 1250	 1258	 1179	 1001	783.3	654.0	581.2	547.9	461.7	353.6	288.8	244.4	361.8	 1333	 3989	 4511	 1647	30.25	9.092	6.633	4.451	3.303	2.589	2.562	2.223	2.166	2.220	2.100	2.062	2.073	2.312	2.337	2.537	2.952	3.414	3.360	3.754	3.488	2.844	2.730	2.859	2.652	2.364	2.294	2.222	2.476	2.815	2.965	3.178	3.540	3.755	4.251	4.629	4.663	5.146	4.935	5.250	5.371	5.292	5.194	5.100	4.855	4.350	3.821	3.610	3.482
355.0	 1110	 1192	 1060	835.3	693.3	625.7	669.1	786.7	927.9	 1086	 1214	 1302	 1304	 1249	 1078	896.5	788.2	715.0	666.5	654.4	565.1	446.4	364.7	322.8	475.9	 1035	 2166	 6412	 2693	40.13	10.61	6.564	4.382	3.061	2.680	2.627	2.385	2.310	2.202	2.217	2.123	2.313	2.706	2.722	2.930	3.221	3.458	3.814	3.631	2.950	2.905	3.306	2.767	2.780	2.590	2.634	3.100	3.122	3.240	3.591	3.954	4.184	4.853	4.865	4.944	5.208	5.500	5.424	5.696	5.534	5.292	5.138	5.420	4.919	4.456	4.328	3.945
360.0	 1101	 1220	 1101	920.1	781.7	724.5	765.5	895.7	 1028	 1194	 1267	 1331	 1340	 1301	 1153	987.1	899.2	848.3	801.8	784.3	768.0	618.4	515.9	422.8	378.8	432.4	676.1	 3370	 7187	 1942	31.00	10.27	5.917	3.755	2.864	2.796	2.546	2.364	2.625	2.235	2.177	2.297	2.578	2.760	2.928	3.471	3.556	3.592	3.734	2.968	3.036	3.420	3.233	3.255	3.046	3.153	3.327	3.339	3.652	4.089	4.297	4.757	5.078	5.356	5.252	5.255	5.452	5.621	5.827	5.499	5.751	5.582	5.830	5.149	4.914	4.811	4.566
365.0	 1105	 1275	 1180	 1041	899.9	859.7	930.9	 1046	 1189	 1323	 1361	 1383	 1388	 1352	 1237	 1095	 1015	 1003	986.0	960.1	962.7	880.6	723.1	575.9	493.7	411.3	384.4	 1046	 4842	 6785	381.1	22.61	9.260	5.549	3.624	3.112	2.824	2.590	2.541	2.418	2.444	2.426	2.566	2.845	3.181	3.416	3.418	4.028	3.982	3.444	3.387	3.960	3.800	3.843	3.368	3.571	3.969	4.055	4.237	4.594	5.086	5.529	5.623	5.841	5.701	5.703	5.712	5.861	5.808	5.877	6.056	5.789	5.852	5.592	5.340	5.447	5.222
370.0	 1200	 1385	 1356	 1257	 1131	 1094	 1162	 1309	 1469	 1560	 1507	 1453	 1465	 1461	 1367	 1267	 1242	 1261	 1274	 1269	 1270	 1232	 1112	942.8	794.1	636.8	522.4	562.0	 1499	 4306	 4610	 1483	32.32	12.73	6.223	4.403	3.515	2.987	2.953	2.747	2.679	2.801	2.865	2.978	3.463	3.695	3.845	4.331	4.298	3.765	3.937	4.711	4.595	4.660	4.329	4.486	4.766	4.998	5.277	5.715	6.193	6.525	6.861	6.877	6.835	6.310	6.333	6.096	6.225	6.369	6.344	6.291	6.381	6.226	5.894	6.217	6.422
375.0	 1287	 1431	 1479	 1436	 1360	 1291	 1369	 1523	 1675	 1765	 1651	 1545	 1569	 1584	 1505	 1438	 1442	 1495	 1539	 1573	 1589	 1547	 1493	 1366	 1178	 1004	837.7	714.1	757.6	 1330	 2512	 6515	 2330	41.60	14.69	7.646	4.946	3.658	3.217	3.126	3.074	2.916	3.312	3.337	3.546	4.183	3.880	4.499	4.501	4.294	4.361	5.349	5.261	5.265	4.977	5.145	5.570	5.808	6.165	6.758	7.087	7.336	7.593	7.852	7.599	6.733	6.440	6.642	6.541	6.801	6.916	7.006	6.721	6.894	6.728	6.923	7.358
380.0	 1349	 1529	 1594	 1571	 1467	 1431	 1504	 1665	 1811	 1885	 1736	 1638	 1669	 1702	 1642	 1568	 1571	 1637	 1714	 1782	 1824	 1813	 1758	 1702	 1537	 1349	 1167	994.2	868.3	844.5	 1012	 3745	 6739	 1601	33.71	12.97	6.924	4.516	3.614	3.487	3.405	3.362	3.669	3.523	3.728	4.442	4.407	4.822	4.775	4.521	4.685	5.733	5.483	5.721	5.599	5.630	6.159	6.416	6.686	6.961	7.749	7.900	8.095	8.193	7.797	7.217	6.744	6.804	6.830	7.612	7.708	7.538	7.689	7.840	7.210	7.836	8.127
385.0	 1466	 1672	 1731	 1685	 1607	 1564	 1641	 1790	 1964	 2026	 1869	 1761	 1803	 1870	 1797	 1716	 1707	 1788	 1894	 1990	 2076	 2097	 2064	 2031	 1945	 1754	 1559	 1371	 1177	983.4	820.8	 1387	 4893	 5766	303.3	24.31	11.04	6.558	4.696	3.965	3.694	3.668	3.792	4.013	4.057	4.985	4.681	5.027	5.069	4.708	5.101	6.446	6.149	6.162	6.085	6.392	6.752	6.977	7.361	8.001	8.654	8.704	8.676	8.571	8.295	7.692	7.178	7.286	7.553	8.040	8.204	8.167	8.637	8.735	8.332	8.641	8.566
390.0	 1647	 1865	 1951	 1940	 1862	 1811	 1903	 2090	 2257	 2299	 2124	 2043	 2133	 2234	 2154	 2011	 1948	 2033	 2168	 2320	 2480	 2574	 2595	 2609	 2586	 2467	 2260	 2049	 1808	 1511	 1175	992.9	 1675	 3884	 3800	 1130	28.61	12.11	7.273	5.484	4.578	4.624	4.458	4.713	4.896	5.384	5.101	5.780	5.756	5.279	5.703	7.307	7.071	7.176	7.111	7.233	7.699	8.365	8.698	9.218	9.455	9.995	9.796	9.954	9.256	8.622	8.433	8.504	8.910	9.502	9.601	10.03	10.20	10.07	9.768	9.864	10.10
395.0	 1882	 2088	 2157	 2141	 2099	 2063	 2198	 2365	 2540	 2582	 2439	 2411	 2588	 2728	 2606	 2335	 2185	 2260	 2434	 2639	 2881	 3053	 3175	 3262	 3292	 3247	 3110	 2864	 2590	 2209	 1734	 1261	 1015	 1241	 2206	 5395	 1825	33.45	13.91	7.994	6.120	5.589	5.408	5.831	5.637	6.138	5.952	6.742	6.704	5.945	6.327	8.215	7.831	8.204	7.924	8.476	8.897	9.761	9.911	10.51	10.73	11.16	11.26	11.03	10.60	9.910	9.458	9.739	10.71	11.13	11.58	12.07	11.93	11.84	11.99	11.34	11.08
400.0	 2098	 2220	 2270	 2259	 2208	 2209	 2345	 2538	 2702	 2766	 2683	 2702	 2952	 3117	 2947	 2573	 2341	 2381	 2565	 2815	 3119	 3371	 3557	 3722	 3807	 3815	 3727	 3514	 3196	 2769	 2207	 1596	 1063	760.4	820.0	 3230	 5367	306.9	28.04	12.02	7.841	6.781	6.311	6.186	6.362	6.646	6.469	6.907	7.085	6.387	6.606	8.852	8.464	9.024	8.372	8.903	9.552	10.30	10.48	10.79	11.31	11.33	11.57	12.09	11.61	10.69	10.75	11.14	12.17	13.04	13.11	13.52	13.96	13.32	13.08	12.17	11.78
405.0	 2248	 2359	 2386	 2347	 2309	 2335	 2463	 2651	 2828	 2882	 2884	 2979	 3270	 3487	 3252	 2772	 2454	 2469	 2674	 2940	 3290	 3608	 3856	 4085	 4248	 4296	 4234	 4078	 3749	 3271	 2643	 1939	 1272	796.4	559.0	 1082	 3924	 4300	251.4	19.85	10.76	8.522	7.685	7.303	7.273	7.133	6.980	7.535	7.220	6.796	6.791	9.144	8.836	9.193	8.986	9.460	10.04	10.85	10.94	11.39	11.96	12.11	12.10	12.34	12.56	11.75	11.81	12.30	13.24	14.44	14.95	15.22	15.17	14.85	13.93	12.83	12.68
410.0	 2431	 2479	 2474	 2439	 2411	 2435	 2586	 2796	 2963	 3061	 3104	 3288	 3628	 3852	 3579	 2982	 2561	 2542	 2748	 3061	 3452	 3818	 4137	 4446	 4680	 4783	 4751	 4616	 4332	 3827	 3122	 2332	 1572	996.7	646.8	567.9	 1227	 3151	 3185	961.8	24.26	12.24	9.636	8.476	7.934	7.953	7.447	7.818	7.588	6.946	7.260	9.279	9.184	9.317	9.287	9.829	10.66	11.43	11.62	12.14	12.48	12.65	12.89	13.18	13.14	13.16	13.02	13.56	14.39	15.85	16.45	16.88	16.88	15.91	14.87	13.81	13.45
415.0	 2502	 2577	 2519	 2498	 2445	 2525	 2671	 2903	 3054	 3167	 3271	 3501	 3868	 4100	 3791	 3113	 2614	 2567	 2767	 3088	 3508	 3922	 4293	 4658	 4943	 5093	 5088	 4976	 4701	 4218	 3491	 2636	 1831	 1193	785.6	553.7	547.0	880.3	 1897	 4246	 1377	28.29	13.63	10.42	9.360	8.556	7.750	7.999	8.091	7.103	7.518	9.399	9.608	9.851	9.692	9.992	11.34	11.47	12.00	12.64	12.75	13.41	13.08	13.45	13.94	12.97	13.83	14.59	15.36	16.68	17.34	17.73	18.05	16.82	15.74	14.61	13.44
420.0	 2535	 2583	 2516	 2500	 2468	 2546	 2684	 2899	 3057	 3169	 3307	 3567	 3953	 4172	 3857	 3135	 2607	 2542	 2716	 3051	 3482	 3899	 4291	 4692	 4988	 5167	 5201	 5089	 4835	 4387	 3662	 2787	 1961	 1312	887.8	608.0	442.9	392.2	591.8	 2630	 4150	274.8	22.91	12.65	10.27	9.566	8.290	8.144	7.952	7.407	7.568	9.418	9.419	9.917	9.820	9.915	11.16	11.68	12.50	12.63	12.82	13.48	13.17	14.13	13.74	13.56	14.21	14.66	15.79	17.45	17.45	18.09	18.37	17.49	16.16	14.39	13.63
425.0	 2541	 2536	 2517	 2469	 2443	 2527	 2675	 2863	 3025	 3144	 3304	 3584	 3972	 4178	 3839	 3095	 2564	 2487	 2648	 2965	 3389	 3817	 4213	 4612	 4944	 5121	 5189	 5098	 4849	 4419	 3735	 2879	 2050	 1398	973.3	675.5	471.1	325.6	285.6	817.8	 3273	 2274	220.9	17.11	11.96	9.936	8.540	8.565	8.108	7.174	7.552	9.553	9.415	9.885	9.671	10.31	11.37	11.41	12.43	12.75	12.78	13.12	13.48	13.08	13.67	13.39	14.17	14.51	16.22	16.73	17.60	18.09	18.50	17.21	15.72	14.54	13.52
430.0	 2485	 2486	 2436	 2401	 2390	 2451	 2614	 2796	 2930	 3082	 3246	 3538	 3885	 4096	 3742	 3019	 2478	 2379	 2527	 2814	 3217	 3619	 4020	 4412	 4747	 4952	 5023	 4966	 4751	 4345	 3717	 2920	 2123	 1498	 1078	775.4	557.0	381.4	275.5	324.0	983.6	 2341	 2683	800.7	21.64	11.55	9.401	8.969	7.927	7.146	7.311	9.094	9.106	9.721	9.430	9.933	10.93	11.33	11.93	12.67	12.69	12.72	13.22	13.04	13.53	13.63	13.82	14.48	15.65	16.34	17.35	18.14	17.71	16.81	15.50	13.98	13.28
435.0	 2546	 2380	 2314	 2286	 2319	 2378	 2508	 2700	 2830	 2977	 3146	 3434	 3731	 3933	 3561	 2888	 2362	 2272	 2373	 2618	 2988	 3363	 3746	 4125	 4456	 4667	 4738	 4712	 4534	 4181	 3604	 2887	 2175	 1576	 1174	879.0	659.7	469.8	337.6	267.1	349.9	625.5	 1636	 3638	 1174	23.37	11.16	9.749	8.388	7.225	7.266	9.042	9.033	9.321	9.235	9.643	10.56	11.17	11.38	11.69	12.19	12.31	12.73	12.97	12.64	13.17	13.17	14.34	15.00	15.87	16.54	17.43	17.67	16.16	14.66	13.30	12.78
440.0	 2699	 2296	 2243	 2224	 2263	 2306	 2423	 2603	 2730	 2866	 3052	 3310	 3602	 3753	 3400	 2759	 2256	 2149	 2243	 2459	 2797	 3151	 3508	 3871	 4188	 4390	 4482	 4464	 4319	 3999	 3476	 2818	 2167	 1622	 1228	941.6	723.0	531.2	395.1	287.3	234.7	241.1	487.9	 2503	 3629	230.8	15.56	10.77	8.923	7.143	7.181	8.788	8.616	8.805	9.405	9.327	10.25	10.47	11.11	11.56	11.64	12.27	11.67	12.60	12.46	12.55	13.19	13.80	14.58	15.10	16.03	16.44	16.52	15.52	14.54	12.97	12.54
445.0	 2880	 2231	 2163	 2134	 2177	 2239	 2362	 2514	 2642	 2761	 2921	 3166	 3432	 3560	 3218	 2619	 2157	 2039	 2116	 2308	 2612	 2940	 3257	 3607	 3900	 4102	 4191	 4187	 4064	 3796	 3331	 2717	 2130	 1639	 1268	987.6	775.1	586.7	443.8	325.1	234.5	174.7	188.7	787.2	 3233	 1984	156.1	12.83	9.578	7.737	7.344	8.725	8.772	8.771	9.014	9.366	9.880	10.32	10.61	11.33	11.49	11.62	11.35	11.66	11.95	11.98	13.03	13.10	13.94	14.63	14.98	15.61	15.79	14.65	13.15	12.32	11.90
450.0	 2864	 2458	 2028	 1999	 2025	 2096	 2223	 2358	 2450	 2568	 2718	 2941	 3128	 3228	 2924	 2392	 1975	 1858	 1914	 2073	 2322	 2609	 2894	 3204	 3463	 3649	 3739	 3745	 3669	 3449	 3061	 2538	 2023	 1599	 1287	 1031	822.3	642.5	501.6	377.9	272.5	191.7	145.4	244.3	953.7	 2267	 2437	672.1	17.00	8.895	7.564	8.695	8.432	8.538	8.373	8.682	9.433	9.629	9.903	10.57	10.66	10.72	10.63	10.97	11.22	11.42	11.85	12.31	12.73	13.25	13.92	14.39	14.45	13.46	12.25	11.18	11.03
455.0	 2304	 2769	 2001	 1821	 1851	 1928	 2061	 2163	 2234	 2345	 2492	 2664	 2808	 2860	 2599	 2132	 1771	 1668	 1701	 1818	 2015	 2255	 2488	 2757	 2999	 3161	 3242	 3260	 3209	 3049	 2744	 2317	 1884	 1526	 1268	 1055	862.4	686.6	553.7	425.4	313.8	225.4	158.8	142.3	273.2	574.8	 1549	 3151	210.8	16.93	8.903	8.875	7.753	8.202	7.906	8.209	8.863	9.161	9.349	9.507	9.792	9.739	9.695	10.17	10.30	10.18	10.59	11.28	11.38	11.92	12.61	12.47	12.74	12.57	11.06	10.11	9.942
460.0	 1801	 2757	 2252	 1715	 1743	 1800	 1905	 2009	 2069	 2176	 2322	 2478	 2563	 2598	 2350	 1935	 1618	 1520	 1540	 1629	 1797	 2006	 2220	 2446	 2656	 2801	 2888	 2911	 2885	 2761	 2507	 2142	 1773	 1465	 1225	 1042	878.7	712.0	576.4	453.3	340.4	247.2	176.8	132.8	132.4	178.9	434.8	 2162	 2748	166.5	13.38	9.458	7.869	8.142	7.866	7.688	8.390	8.669	8.444	8.889	9.233	9.066	9.201	9.471	9.793	9.662	9.556	10.08	10.31	10.84	11.51	11.26	11.63	11.18	9.899	9.294	8.985
465.0	 1537	 2313	 2543	 1679	 1634	 1671	 1777	 1871	 1931	 2029	 2148	 2271	 2360	 2362	 2133	 1771	 1490	 1392	 1405	 1477	 1624	 1793	 1985	 2186	 2365	 2494	 2581	 2608	 2602	 2496	 2294	 1984	 1666	 1387	 1178	 1014	874.9	718.5	586.4	468.0	359.3	265.9	193.5	141.5	111.8	99.12	142.5	661.2	 2630	 1447	131.3	11.22	8.369	7.989	7.302	7.374	8.062	8.030	8.321	8.922	8.541	8.601	8.769	9.098	8.592	9.096	8.874	8.867	9.549	9.968	10.17	10.36	10.20	10.08	9.119	8.566	8.082
470.0	 1327	 1650	 2483	 2003	 1489	 1524	 1602	 1675	 1738	 1828	 1913	 2011	 2067	 2052	 1849	 1543	 1310	 1227	 1220	 1270	 1384	 1524	 1684	 1846	 2000	 2114	 2186	 2224	 2221	 2158	 1993	 1752	 1499	 1274	 1096	953.6	837.4	711.4	590.2	475.6	371.9	283.2	211.9	158.0	122.2	95.27	89.80	192.6	779.0	 1741	 1794	603.4	15.39	8.790	7.553	7.155	7.422	7.444	7.255	7.552	7.704	7.648	7.878	7.703	7.894	8.177	8.201	8.141	8.545	8.945	8.862	9.007	8.873	8.528	8.097	7.567	7.194
475.0	 1167	 1252	 1760	 2493	 1504	 1367	 1411	 1486	 1529	 1620	 1691	 1759	 1796	 1751	 1567	 1328	 1134	 1064	 1049	 1079	 1167	 1269	 1399	 1537	 1662	 1757	 1811	 1852	 1865	 1824	 1704	 1519	 1321	 1149	 1003	882.7	783.8	673.8	578.6	470.8	374.9	291.7	225.1	173.5	135.7	106.1	87.88	95.69	214.1	432.1	 1049	 2329	210.6	17.46	8.484	7.400	6.972	6.876	6.834	6.588	6.766	6.661	6.905	6.959	7.122	7.136	7.290	7.648	7.588	7.655	7.913	7.511	7.704	7.257	6.875	6.551	6.528
480.0	 1066	 1097	 1295	 2391	 1813	 1254	 1296	 1367	 1400	 1464	 1552	 1602	 1606	 1564	 1385	 1186	 1015	948.2	934.3	951.3	 1021	 1112	 1224	 1339	 1444	 1529	 1579	 1617	 1635	 1604	 1509	 1365	 1203	 1055	934.7	831.2	739.9	641.3	561.6	466.9	371.2	294.4	232.2	182.1	144.8	115.8	94.36	81.30	94.14	131.0	292.3	 1453	 1702	194.1	12.62	8.233	7.329	6.545	6.699	6.136	6.294	6.229	6.496	6.347	6.446	6.452	6.596	6.704	6.960	6.948	6.885	6.825	7.213	6.628	5.903	5.730	5.742
485.0	936.3	965.0	 1057	 1827	 2223	 1253	 1206	 1259	 1283	 1341	 1421	 1451	 1451	 1406	 1259	 1071	920.7	861.6	840.8	855.8	913.4	985.2	 1075	 1174	 1269	 1347	 1391	 1427	 1447	 1425	 1352	 1239	 1098	973.2	870.3	783.9	698.5	611.5	535.8	457.5	371.5	294.1	235.1	189.1	152.4	123.7	101.8	84.30	72.51	68.82	97.17	426.1	 1747	 1659	29.88	10.28	7.905	6.802	6.272	6.136	6.154	5.776	5.848	6.241	5.936	5.927	6.049	6.291	6.269	6.658	6.200	6.257	6.509	5.906	5.586	5.305	5.037
490.0	830.0	870.4	921.4	 1192	 2107	 1657	 1098	 1114	 1153	 1206	 1261	 1292	 1278	 1225	 1084	928.9	804.8	753.3	732.3	738.7	783.4	842.9	916.7	995.8	 1074	 1135	 1179	 1209	 1229	 1224	 1168	 1079	966.7	866.9	783.0	711.9	640.3	564.9	497.7	429.6	361.6	291.4	235.8	191.4	160.4	133.0	112.2	93.53	76.33	64.03	61.02	127.7	502.6	 1367	 1648	572.0	16.19	7.644	6.349	5.908	5.646	5.361	5.399	5.314	5.259	5.376	5.544	5.568	5.543	5.631	5.484	5.665	5.491	5.164	4.957	4.673	4.570
495.0	698.4	784.8	809.8	879.5	 1382	 2115	 1182	989.1	 1019	 1060	 1092	 1131	 1100	 1042	926.5	795.0	691.1	645.2	622.3	629.2	660.0	703.9	764.3	828.3	889.5	939.7	977.1	 1003	 1027	 1024	987.7	918.9	838.3	756.4	692.4	629.8	573.8	512.1	453.0	393.3	338.8	283.5	233.1	193.5	164.9	139.5	120.6	102.0	84.89	70.45	61.63	68.20	142.8	341.1	993.2	 2139	234.5	17.49	7.318	5.979	5.432	5.029	4.838	4.829	4.807	4.862	4.922	4.785	4.622	4.918	4.758	4.960	4.625	4.443	4.074	3.922	4.050
500.0	613.1	696.0	732.8	742.4	927.0	 1981	 1574	906.5	932.2	964.5	987.8	 1004	984.6	921.4	813.6	693.0	611.8	571.7	546.9	550.9	576.7	608.5	654.1	715.0	768.6	805.7	838.3	864.0	883.4	890.1	862.2	806.8	739.3	676.5	622.7	569.5	519.0	469.1	417.4	368.3	313.7	271.3	229.2	191.7	164.4	142.0	124.3	107.9	90.84	76.73	65.85	59.16	66.45	104.6	271.8	 1303	 1864	207.0	11.33	6.181	5.372	4.984	4.676	4.364	4.240	4.296	4.291	4.581	4.146	4.394	4.332	4.138	4.056	3.948	3.645	3.478	3.486
505.0	554.4	615.4	654.3	667.3	725.0	 1440	 1970	950.4	842.0	870.7	899.3	900.8	869.0	815.8	713.7	619.3	539.2	508.8	488.6	485.1	507.7	537.3	571.2	625.6	668.2	701.2	728.3	754.8	769.1	775.7	758.1	714.4	657.4	603.6	559.5	511.1	472.7	427.8	386.4	340.8	291.8	256.1	221.5	188.0	163.5	142.2	126.5	110.3	94.62	80.30	70.54	60.24	53.02	55.02	85.97	373.9	 1586	 1652	32.08	7.701	5.659	4.925	4.384	4.116	4.029	4.040	3.937	4.137	4.128	4.020	3.814	3.837	3.515	3.514	3.292	3.009	3.038
510.0	470.5	517.3	573.7	584.2	605.6	853.6	 1755	 1449	764.1	756.3	778.2	778.5	739.8	689.7	602.4	518.6	456.7	431.2	416.6	407.6	422.8	444.0	476.1	515.0	551.2	577.2	600.0	619.8	636.5	645.9	634.8	599.5	555.8	513.8	478.3	441.0	409.1	375.3	338.3	302.4	263.4	230.1	204.4	180.9	158.1	138.5	124.3	110.1	95.55	82.62	73.58	63.34	52.94	47.20	46.83	106.1	441.9	 1169	 1379	476.0	13.98	4.962	4.084	3.812	3.721	3.707	3.460	3.484	3.524	3.337	3.326	3.195	3.166	3.045	2.754	2.654	2.625
515.0	393.1	426.2	470.6	504.0	512.2	579.8	 1029	 1873	972.9	655.5	670.4	661.5	622.5	577.3	496.7	428.9	383.4	355.2	344.9	335.7	349.9	363.3	391.4	418.8	447.6	466.9	487.3	502.1	515.2	527.3	518.8	492.6	460.8	429.8	399.0	373.1	347.9	321.8	291.2	262.9	232.6	206.1	182.9	166.0	149.4	133.5	119.8	107.1	93.95	82.21	73.98	64.83	53.55	46.20	39.82	48.03	117.7	280.8	683.5	 1581	235.0	14.80	4.197	3.590	3.357	3.262	2.971	3.034	3.032	2.810	2.658	2.692	2.429	2.623	2.422	2.168	2.179
520.0	331.5	383.4	405.9	445.2	455.9	489.9	643.7	 1623	 1404	601.5	589.9	588.6	546.5	502.4	435.3	372.3	333.9	308.7	297.8	295.0	303.3	315.8	334.6	358.7	382.7	397.2	412.1	428.6	441.0	451.7	445.9	426.5	400.5	371.5	349.5	327.8	307.0	282.5	261.5	236.9	210.4	189.3	168.9	152.4	142.2	127.7	115.2	102.1	90.51	80.79	72.43	64.04	52.98	45.99	37.99	35.24	45.61	77.21	178.9	908.2	 1444	197.1	7.119	3.560	3.235	3.064	2.624	2.724	2.688	2.573	2.328	2.332	2.393	2.242	2.083	1.921	1.960
525.0	287.4	337.2	353.7	398.7	417.7	434.1	495.4	 1065	 1774	712.6	535.6	527.5	484.8	436.1	378.9	326.2	291.0	273.2	265.0	260.8	264.5	277.8	291.8	312.2	330.4	344.0	357.6	369.2	384.4	392.4	387.1	370.9	351.1	326.8	308.5	289.5	272.2	251.2	233.6	213.6	190.9	171.8	154.6	141.0	132.1	121.4	110.2	97.09	87.31	77.30	70.13	61.60	52.14	44.37	37.16	31.81	29.32	31.85	50.75	249.3	 1074	 1216	31.56	4.245	3.001	2.908	2.511	2.437	2.463	2.410	2.262	2.228	2.066	1.991	1.890	1.790	1.652
530.0	256.8	290.8	297.9	328.3	361.5	377.7	400.9	587.1	 1423	 1281	516.4	448.6	411.6	371.3	318.8	276.3	245.5	230.9	221.0	219.3	221.6	231.9	244.6	258.3	275.1	286.6	296.2	307.7	315.5	324.2	320.9	311.1	293.1	273.8	259.6	244.7	230.7	214.9	200.7	184.0	167.7	150.1	137.2	125.7	117.5	110.2	103.0	90.37	80.36	71.45	65.13	57.37	48.59	42.81	35.58	29.69	24.49	21.30	21.68	63.61	285.6	811.4	983.3	353.1	11.36	2.870	2.434	2.304	2.198	2.086	1.834	1.879	1.727	1.673	1.509	1.613	1.413
535.0	213.3	238.8	253.9	270.9	309.2	326.7	337.7	397.3	726.9	 1558	834.0	381.2	350.0	309.2	263.8	227.4	203.2	192.3	183.3	181.4	181.2	188.2	199.4	210.4	223.5	236.0	241.6	250.0	257.8	264.2	260.3	254.6	239.8	226.6	214.4	200.6	192.1	181.0	168.7	155.1	142.2	130.6	119.6	109.6	103.2	96.04	92.59	83.76	74.27	64.79	59.48	52.10	44.61	39.21	33.16	27.48	22.26	17.99	14.68	21.80	69.52	188.8	451.9	 1124	231.7	12.78	2.355	2.022	1.977	1.853	1.559	1.536	1.668	1.534	1.383	1.291	1.159
540.0	190.2	205.3	219.6	236.4	271.0	292.5	292.7	319.5	426.6	 1208	 1297	370.8	303.2	269.3	230.0	195.3	176.2	169.0	160.0	157.6	158.8	162.7	172.2	182.9	191.4	201.0	204.0	214.4	223.2	224.7	223.2	219.0	208.4	194.9	186.2	175.8	168.3	157.6	147.9	137.5	125.6	116.2	109.0	99.96	93.38	86.50	82.91	77.62	69.43	60.40	54.71	48.47	41.22	36.36	30.85	25.88	20.95	16.59	12.98	12.40	21.42	46.35	113.2	607.4	 1060	190.7	5.445	1.891	1.833	1.530	1.545	1.370	1.299	1.319	1.291	1.172	1.062
545.0	165.7	193.1	200.6	210.1	222.5	259.3	260.8	281.3	314.7	731.5	 1495	566.7	263.3	237.7	199.3	171.9	154.7	147.3	140.8	140.0	140.8	144.7	148.5	157.7	168.1	173.9	177.0	183.7	193.6	194.8	195.5	188.6	183.2	171.7	162.8	154.2	147.8	139.0	130.7	123.4	114.1	104.2	97.69	89.79	85.63	79.31	74.58	69.94	64.70	56.63	51.13	45.72	38.51	34.71	28.91	24.59	19.99	15.34	12.67	9.851	10.43	14.71	28.97	161.8	748.0	922.9	31.13	2.710	1.699	1.491	1.407	1.309	1.308	1.112	1.149	1.031	1.014
550.0	155.0	168.4	167.4	175.4	187.8	213.3	235.1	244.6	253.9	384.6	 1028	 1095	294.9	197.1	168.9	144.1	129.0	122.6	116.4	114.2	116.2	120.2	123.8	132.2	137.0	142.8	146.5	151.9	157.1	160.4	161.1	156.1	148.0	142.2	134.3	128.1	123.3	116.0	110.3	104.0	96.77	89.67	83.75	78.11	74.57	70.03	64.76	60.55	56.83	50.85	45.98	40.26	34.33	30.83	25.83	22.52	18.52	14.46	11.62	9.028	7.380	7.529	9.977	39.06	195.7	578.1	708.9	136.2	9.731	1.471	1.336	1.138	1.094	1.015	0.984	0.878	0.875
555.0	140.2	135.7	141.5	149.3	152.4	168.5	197.7	209.4	213.3	245.7	470.9	 1132	669.1	164.5	134.2	115.8	104.9	98.53	95.35	91.44	95.07	96.04	99.53	106.2	109.7	113.0	116.8	121.7	125.2	126.9	129.1	124.2	119.5	112.7	107.2	104.4	99.19	94.93	90.10	84.88	79.56	74.31	69.23	66.05	61.48	58.83	54.83	51.05	47.17	44.11	40.16	35.35	30.08	26.42	22.00	19.63	16.22	12.89	10.47	8.384	6.605	5.331	5.372	11.58	45.70	132.9	308.8	752.1	223.1	9.597	1.301	1.098	0.979	0.898	0.724	0.822	0.775
560.0	132.7	126.5	129.0	127.6	130.1	144.0	164.7	181.4	180.3	197.8	252.8	777.8	 1027	180.1	115.2	97.62	87.65	83.03	79.79	77.46	78.69	80.90	83.86	88.52	93.09	96.14	98.28	103.0	104.6	106.1	108.5	104.6	98.54	94.85	89.12	86.85	83.24	79.52	75.21	72.37	67.87	63.11	59.10	56.63	53.95	50.26	48.02	44.49	40.56	38.06	35.54	31.53	26.57	23.26	19.88	17.28	14.62	12.16	9.366	7.604	6.063	4.946	4.351	5.253	12.45	31.51	76.33	400.1	737.9	166.1	3.153	0.996	0.854	0.787	0.861	0.718	0.796
565.0	107.5	113.7	106.9	110.0	108.1	121.3	137.3	155.8	160.0	167.0	179.7	420.1	 1075	416.4	96.45	81.19	74.48	69.49	67.91	65.32	65.29	67.90	70.86	73.08	77.65	79.93	82.18	84.86	87.13	88.48	90.15	86.14	82.54	79.27	76.38	72.85	70.21	65.79	64.51	60.60	57.38	53.15	50.44	48.29	46.86	43.37	40.85	38.88	35.42	32.45	31.13	28.12	23.15	20.22	17.80	15.20	12.88	10.64	8.254	6.936	5.347	4.580	3.774	3.405	4.883	8.954	18.90	104.8	488.2	614.3	29.65	1.642	0.814	0.801	0.722	0.669	0.639
570.0	89.66	101.7	90.40	88.56	87.88	100.2	106.8	124.7	135.1	135.9	138.1	196.8	642.1	827.0	126.7	64.91	58.48	54.52	52.68	51.95	51.75	54.52	54.06	57.42	60.75	61.06	63.42	64.84	67.66	68.64	69.24	67.33	64.27	60.81	58.59	56.10	54.31	51.72	50.44	47.22	44.89	42.25	39.86	38.27	37.24	34.48	32.91	30.90	28.21	25.53	24.31	22.63	18.97	16.71	14.26	12.47	10.77	8.872	7.160	5.806	4.585	3.853	3.388	2.860	2.971	3.670	5.747	24.76	125.4	365.9	431.8	125.3	6.868	0.771	0.650	0.572	0.553
575.0	79.66	86.81	77.38	70.63	69.36	76.36	81.19	98.94	113.8	116.4	111.8	120.8	251.2	734.8	515.5	52.30	44.61	41.58	39.41	39.12	39.91	40.71	40.35	43.62	45.88	46.31	46.98	48.77	50.15	51.49	51.00	49.95	47.80	45.37	43.35	42.42	40.66	39.05	38.34	35.70	34.24	31.71	30.43	28.77	28.53	26.88	25.35	23.49	21.68	19.69	18.04	17.33	15.10	13.70	11.14	9.980	8.175	7.048	5.705	4.730	3.951	3.363	2.800	2.477	2.257	2.277	2.547	6.795	28.77	83.79	183.2	436.4	174.7	5.201	0.629	0.521	0.525
580.0	82.10	74.19	67.16	54.73	55.40	63.79	69.85	79.55	94.99	102.6	96.45	92.37	118.4	451.3	772.4	97.31	35.75	33.60	32.39	31.36	31.93	32.60	33.74	34.89	36.26	36.95	38.38	38.53	40.02	41.56	40.75	39.82	37.90	36.98	34.38	33.71	33.28	31.27	29.85	28.79	27.35	25.84	24.85	23.76	22.73	21.58	20.85	19.25	17.57	16.32	14.62	13.78	12.60	11.58	9.708	8.581	7.022	5.887	4.998	3.997	3.522	3.005	2.553	2.206	1.930	1.933	1.729	2.480	7.368	19.60	45.08	228.0	413.0	32.49	1.649	0.566	0.415
585.0	77.75	69.79	64.50	50.59	49.52	54.13	58.26	67.76	83.79	94.31	88.32	81.90	79.75	217.1	732.1	335.2	29.38	27.83	27.02	26.76	26.61	27.12	28.45	28.84	28.83	30.11	31.13	32.02	32.57	34.05	33.92	32.48	31.66	29.97	28.79	28.35	26.62	25.84	24.92	23.81	23.06	21.15	20.44	19.37	18.98	18.16	17.37	16.20	14.59	13.34	12.64	11.15	10.26	9.999	8.548	7.370	6.064	5.029	4.202	3.528	3.081	2.426	2.318	2.228	1.759	1.588	1.576	1.534	2.637	5.207	10.89	59.92	273.2	259.0	25.66	0.776	0.420
590.0	68.84	61.84	53.19	41.87	41.37	46.54	50.22	56.80	67.21	82.34	83.24	73.10	63.79	89.44	381.1	615.1	74.58	21.73	21.37	20.27	21.15	21.56	21.52	22.34	23.00	23.33	24.24	24.68	25.42	25.93	26.66	25.33	24.50	23.19	22.37	21.74	20.59	20.21	19.32	18.69	17.74	16.56	16.14	15.31	15.05	14.46	13.65	12.64	11.58	10.67	9.720	8.909	8.045	7.526	7.062	6.178	5.199	4.164	3.510	3.056	2.532	2.111	1.988	1.905	1.568	1.351	1.251	1.218	1.379	1.984	3.132	14.00	70.49	178.8	225.9	84.89	4.074
595.0	59.82	59.72	45.59	37.59	33.49	38.15	43.04	47.41	53.52	67.52	80.19	65.68	57.41	53.76	126.0	474.8	420.2	21.06	16.56	16.50	16.08	16.24	17.16	17.76	17.97	18.33	18.60	18.92	19.54	19.93	19.94	19.12	18.65	17.15	16.79	16.89	15.94	15.24	14.92	13.78	13.44	12.83	12.32	11.70	11.45	11.17	10.30	9.832	8.949	8.207	7.478	6.919	6.428	5.783	5.399	5.028	4.422	3.513	2.771	2.375	2.257	1.936	1.595	1.513	1.464	1.347	1.116	0.960	0.953	1.075	1.360	3.577	16.15	41.06	98.39	239.8	35.56
600.0	54.33	54.68	43.00	31.86	30.69	31.98	37.40	43.10	45.91	56.85	74.34	64.19	50.33	43.44	50.85	254.1	607.1	67.43	14.36	13.78	13.03	13.73	14.13	14.69	14.72	15.18	15.43	15.47	15.70	16.15	16.44	15.80	15.24	14.25	14.21	13.70	13.12	12.85	12.06	11.70	11.27	10.41	10.27	9.789	9.272	9.122	8.679	8.162	7.219	6.803	6.331	5.783	5.186	4.598	4.201	4.375	3.719	3.010	2.379	2.072	1.797	1.702	1.420	1.389	1.273	1.197	1.166	0.939	0.948	0.781	0.771	1.214	4.012	9.580	24.47	127.2	210.3
605.0	47.28	46.38	40.47	27.91	26.96	29.91	33.74	37.36	43.15	50.61	65.97	65.23	48.29	36.80	31.87	108.5	522.0	274.4	12.57	11.56	11.54	11.97	11.42	12.16	12.29	12.65	13.09	12.99	13.44	13.90	13.54	13.62	13.08	12.42	12.10	11.54	11.36	10.70	9.914	9.935	9.459	8.902	8.709	8.157	7.853	7.495	7.264	6.832	5.955	5.956	5.236	4.677	4.422	3.780	3.478	3.561	3.311	2.851	2.249	1.877	1.503	1.332	1.218	1.270	1.041	0.995	1.022	0.864	0.893	0.742	0.737	0.877	1.250	2.482	5.964	34.16	147.4
610.0	47.13	46.24	35.74	25.96	22.80	24.90	29.36	33.00	37.16	46.47	55.30	60.99	49.89	34.40	26.35	39.39	242.7	488.0	58.33	9.804	9.332	9.776	9.781	10.15	10.22	10.51	10.66	10.90	10.83	11.65	11.36	11.24	11.03	10.52	10.27	9.719	9.262	8.575	8.134	7.677	7.319	7.111	6.899	6.258	6.463	6.133	5.786	5.322	4.893	4.518	4.159	3.817	3.554	3.169	2.917	2.782	2.714	2.443	2.065	1.589	1.352	1.157	1.146	1.043	1.000	0.952	0.905	0.848	0.785	0.744	0.630	0.567	0.691	0.940	1.656	7.939	38.64
615.0	40.38	41.33	30.60	23.47	21.91	21.75	22.51	28.28	34.34	40.76	47.69	54.69	49.18	33.56	23.36	20.86	73.79	339.2	353.2	12.31	7.846	8.046	8.147	7.857	8.098	8.651	8.599	8.840	9.103	9.415	9.274	8.975	8.816	8.169	7.963	7.608	7.357	6.639	6.307	6.083	5.738	5.448	4.986	5.009	4.824	4.827	4.382	4.291	3.955	3.446	3.343	2.891	2.756	2.466	2.229	2.113	1.992	1.898	1.868	1.371	1.291	0.962	0.964	0.967	0.902	0.754	0.729	0.754	0.747	0.620	0.620	0.434	0.525	0.554	0.632	2.046	8.834
620.0	36.50	39.94	31.47	21.25	17.48	20.70	23.31	24.23	31.00	37.51	42.82	49.05	46.78	32.26	21.76	14.85	25.61	164.9	491.6	60.62	6.985	6.845	6.927	6.773	6.656	6.785	7.314	7.067	7.195	7.575	7.653	7.424	7.303	6.831	6.462	6.145	5.881	5.275	5.167	4.793	4.920	4.576	4.371	4.114	3.862	3.905	3.612	3.553	3.211	2.793	2.590	2.578	2.110	2.047	1.848	1.771	1.562	1.642	1.528	1.233	1.224	0.901	0.866	0.808	0.828	0.810	0.646	0.757	0.728	0.564	0.469	0.436	0.430	0.424	0.413	0.664	2.229
625.0	32.16	31.93	29.48	20.22	15.93	16.68	21.39	21.33	28.23	35.83	41.72	43.82	47.02	33.82	21.58	14.20	13.76	63.25	399.3	258.6	6.521	5.684	5.712	5.890	6.065	5.855	6.092	6.138	6.210	6.171	6.488	6.237	5.803	5.444	5.341	4.935	4.818	4.531	4.286	4.012	4.063	3.746	3.493	3.539	3.123	3.182	2.930	2.851	2.651	2.318	2.281	2.157	1.855	1.789	1.552	1.488	1.337	1.369	1.174	1.117	1.072	0.849	0.774	0.686	0.688	0.616	0.643	0.661	0.562	0.555	0.499	0.439	0.380	0.318	0.300	0.455	0.749
630.0	35.35	31.80	27.16	19.15	16.80	16.99	19.31	20.45	26.84	32.65	38.16	40.90	40.85	36.07	22.22	13.80	10.91	21.28	169.5	418.8	50.09	5.073	4.949	5.012	5.126	4.859	4.997	5.280	5.220	5.289	5.153	4.772	4.736	4.523	4.267	3.889	4.041	3.697	3.363	3.182	3.045	2.880	2.737	2.668	2.516	2.597	2.407	2.318	2.120	1.879	1.770	1.708	1.494	1.404	1.280	1.195	1.193	1.080	0.929	0.894	0.889	0.795	0.681	0.716	0.653	0.550	0.599	0.572	0.521	0.564	0.501	0.413	0.361	0.368	0.360	0.380	0.402
635.0	39.63	33.54	26.16	16.40	14.48	15.43	18.75	20.76	25.13	29.44	37.53	39.09	38.01	37.18	25.64	14.24	10.18	10.92	47.22	258.3	323.7	8.705	4.184	4.085	4.247	3.834	3.909	4.168	4.374	4.016	4.268	3.772	3.410	3.550	3.554	3.149	3.092	2.845	2.527	2.602	2.245	2.310	2.177	2.183	2.212	2.022	1.893	1.811	1.536	1.584	1.410	1.198	1.191	1.185	0.945	0.945	1.008	0.826	0.707	0.651	0.726	0.719	0.671	0.526	0.549	0.554	0.543	0.447	0.529	0.480	0.393	0.455	0.405	0.279	0.356	0.337	0.408
640.0	42.27	33.30	28.51	16.72	13.39	14.73	16.87	19.34	24.77	28.74	34.54	38.83	36.52	33.37	27.67	15.64	10.17	8.444	15.19	113.6	426.8	53.83	4.150	3.627	3.781	3.381	3.296	3.958	3.599	3.592	3.815	3.227	2.832	2.939	2.906	2.635	2.621	2.400	2.171	2.117	1.938	1.897	1.937	1.757	1.810	1.513	1.649	1.622	1.417	1.257	1.223	1.034	0.970	0.971	0.926	0.785	0.676	0.661	0.661	0.535	0.548	0.632	0.593	0.578	0.512	0.485	0.537	0.500	0.504	0.510	0.463	0.415	0.397	0.315	0.353	0.299	0.335
645.0	34.52	36.61	24.48	15.76	13.68	14.98	16.19	18.43	24.90	28.38	33.82	38.50	36.05	32.46	27.69	16.35	11.06	8.117	7.742	39.99	326.7	224.4	4.431	3.214	3.408	3.164	3.138	3.331	3.365	3.220	3.073	2.766	2.743	2.515	2.234	2.108	2.171	2.088	1.790	1.832	1.735	1.664	1.803	1.437	1.458	1.276	1.403	1.398	1.205	1.050	1.049	0.835	0.861	0.914	0.806	0.661	0.570	0.640	0.587	0.514	0.502	0.578	0.604	0.593	0.504	0.427	0.434	0.511	0.431	0.415	0.436	0.412	0.376	0.348	0.378	0.353	0.331
650.0	32.97	39.36	24.20	16.96	11.98	12.40	15.74	18.96	24.15	28.16	34.17	38.31	34.02	31.05	27.23	17.37	11.35	7.718	6.224	13.60	158.6	371.1	23.30	3.077	3.032	2.948	2.625	3.038	2.996	2.835	2.691	2.458	2.426	2.228	1.908	1.957	1.854	1.763	1.687	1.740	1.409	1.381	1.476	1.257	1.197	1.155	1.183	1.163	1.099	0.984	0.875	0.826	0.767	0.664	0.743	0.583	0.539	0.461	0.475	0.480	0.454	0.497	0.508	0.544	0.453	0.390	0.441	0.510	0.331	0.461	0.383	0.388	0.406	0.432	0.336	0.250	0.296
