Sample:	'1
File name:	T2025032009º«µêºÓ9.FD3
Run date:	'10:19:37, 03/21/2025
Operator:	Administrator
Comment:	'

Instrument
Model:	F-2700 FL Spectrophotometer
Serial number:	23B8-004
ROM Version:	4J14000 07

Instrument parameters
Measurement type:	3-D scan
Data mode:	Fluorescence
EX  Start WL:	220.0 nm
EX  End WL:	600.0 nm
EX Sampling interval:	5.0 nm
EM  Start WL:	230.0 nm
EM  End WL:	650.0 nm
EM Sampling interval:	5.0 nm
Scan speed:	12000 nm/min
EX Slit:	5.0 nm
EM Slit:	5.0 nm
PMT Voltage:	700 V
Response:	Auto 
Corrected spectra:	Off
Contour interval:	50.000

Peak integration
Integration method:	Rectangular
Sensitivity:	1
Threshold:	1.000

Peaks
No.	ApexEX/EM(nm)	Height(Data)
1	225.0/560.0	33.12
2	225.0/585.0	28.58
3	230.0/595.0	29.71
4	230.0/635.0	59.02
5	235.0/340.0	2050
6	235.0/580.0	27.93
7	240.0/265.0	368.9
8	240.0/525.0	220.3
9	245.0/270.0	380.1
10	245.0/535.0	182.3
11	250.0/275.0	497.5
12	250.0/450.0	634.4
13	250.0/550.0	155.1
14	255.0/280.0	584.9
15	255.0/560.0	131.5
16	260.0/290.0	561.3
17	260.0/575.0	112.2
18	265.0/585.0	97.00
19	275.0/320.0	3248
20	275.0/615.0	199.3
21	280.0/315.0	3239
22	280.0/385.0	1053
23	280.0/625.0	177.0
24	285.0/635.0	146.4
25	320.0/360.0	397.9
26	325.0/370.0	349.0
27	330.0/375.0	366.4
28	335.0/380.0	407.9
29	335.0/405.0	332.6
30	350.0/400.0	433.5
31	355.0/385.0	366.7
32	355.0/405.0	440.5
33	365.0/420.0	259.4
34	370.0/405.0	349.2
35	370.0/425.0	267.4
36	410.0/480.0	42.01
37	415.0/485.0	36.77
38	430.0/505.0	22.92
39	435.0/510.0	19.02
40	440.0/520.0	15.95
41	445.0/525.0	13.57
42	455.0/540.0	9.551
43	470.0/560.0	4.756
44	480.0/340.0	7.443
45	485.0/265.0	2.219
46	495.0/270.0	2.010
47	505.0/275.0	3.194
48	510.0/280.0	3.356
49	520.0/285.0	3.853
50	530.0/290.0	3.699
51	560.0/310.0	15.46
52	570.0/315.0	15.54
53	570.0/385.0	5.179
54	580.0/320.0	15.65
55	585.0/325.0	14.40

Data points
	220.0	225.0	230.0	235.0	240.0	245.0	250.0	255.0	260.0	265.0	270.0	275.0	280.0	285.0	290.0	295.0	300.0	305.0	310.0	315.0	320.0	325.0	330.0	335.0	340.0	345.0	350.0	355.0	360.0	365.0	370.0	375.0	380.0	385.0	390.0	395.0	400.0	405.0	410.0	415.0	420.0	425.0	430.0	435.0	440.0	445.0	450.0	455.0	460.0	465.0	470.0	475.0	480.0	485.0	490.0	495.0	500.0	505.0	510.0	515.0	520.0	525.0	530.0	535.0	540.0	545.0	550.0	555.0	560.0	565.0	570.0	575.0	580.0	585.0	590.0	595.0	600.0
230.0	18.60	197.5	604.2	209.9	11.74	4.912	4.106	3.312	3.003	2.960	3.035	2.687	2.433	1.939	1.604	1.337	1.210	0.985	0.855	0.819	0.644	0.634	0.613	0.566	0.574	0.467	0.452	0.413	0.451	0.416	0.453	0.406	0.349	0.314	0.321	0.309	0.276	0.283	0.266	0.261	0.250	0.246	0.266	0.203	0.235	0.231	0.366	1.104	2.145	1.766	0.751	0.247	0.178	0.187	0.201	0.185	0.196	0.195	0.188	0.184	0.171	0.174	0.194	0.213	0.207	0.188	0.189	0.227	0.185	0.187	0.187	0.200	0.196	0.202	0.217	0.194	0.213
235.0	32.53	68.49	525.5	799.4	379.4	22.77	3.945	3.347	3.382	2.932	2.967	2.740	2.096	1.820	1.743	1.347	1.368	1.179	0.826	0.744	0.642	0.654	0.546	0.592	0.543	0.428	0.464	0.492	0.432	0.432	0.438	0.346	0.357	0.306	0.263	0.265	0.302	0.327	0.290	0.277	0.239	0.279	0.262	0.294	0.275	0.276	0.248	0.442	0.962	2.174	3.765	4.039	2.157	0.479	0.220	0.160	0.249	0.202	0.205	0.204	0.173	0.187	0.216	0.190	0.236	0.197	0.185	0.199	0.221	0.169	0.187	0.207	0.220	0.177	0.250	0.190	0.245
240.0	51.31	48.97	187.8	1125	1569	316.4	11.56	4.484	3.565	2.977	3.727	2.571	2.288	2.060	1.896	1.568	1.342	1.178	0.802	0.779	0.715	0.574	0.682	0.583	0.618	0.456	0.446	0.502	0.454	0.444	0.486	0.427	0.361	0.302	0.285	0.311	0.281	0.329	0.303	0.268	0.231	0.230	0.236	0.253	0.309	0.343	0.262	0.275	0.368	0.793	2.384	6.059	7.508	5.434	1.961	0.362	0.225	0.205	0.206	0.237	0.195	0.180	0.230	0.182	0.203	0.161	0.216	0.253	0.193	0.208	0.184	0.205	0.216	0.208	0.206	0.254	0.226
245.0	46.68	88.99	76.89	438.6	1932	1733	229.7	7.217	4.605	3.288	3.377	2.685	2.663	2.528	1.755	2.022	1.346	1.223	0.931	0.940	0.655	0.568	0.551	0.602	0.550	0.483	0.519	0.470	0.437	0.399	0.462	0.456	0.416	0.344	0.273	0.287	0.284	0.270	0.271	0.283	0.339	0.202	0.237	0.227	0.253	0.363	0.408	0.426	0.300	0.318	0.724	2.374	5.791	10.54	9.933	5.246	1.309	0.243	0.247	0.232	0.219	0.182	0.209	0.198	0.205	0.251	0.170	0.239	0.200	0.189	0.230	0.193	0.234	0.215	0.221	0.210	0.241
250.0	29.25	80.60	151.9	169.1	660.1	1902	2341	806.8	41.10	5.285	4.055	3.656	3.110	2.691	2.104	1.790	1.356	1.250	0.955	0.871	0.755	0.687	0.621	0.631	0.517	0.528	0.486	0.494	0.363	0.431	0.425	0.429	0.383	0.401	0.309	0.356	0.307	0.294	0.301	0.271	0.347	0.260	0.264	0.236	0.268	0.293	0.343	0.554	0.668	0.621	0.559	0.766	1.620	3.565	6.322	10.21	12.69	11.06	5.947	1.631	0.358	0.210	0.218	0.209	0.220	0.243	0.229	0.262	0.232	0.227	0.221	0.213	0.225	0.206	0.229	0.207	0.228
255.0	22.88	33.93	131.4	275.5	226.9	500.3	2000	3805	294.9	37.05	6.237	4.388	4.278	3.362	2.285	2.097	1.468	1.328	1.162	1.008	0.796	0.655	0.712	0.638	0.617	0.560	0.627	0.431	0.463	0.422	0.498	0.432	0.420	0.358	0.389	0.323	0.263	0.378	0.324	0.267	0.359	0.279	0.269	0.284	0.240	0.224	0.257	0.325	0.415	0.721	1.205	1.104	0.841	1.019	1.586	2.682	4.886	11.70	20.79	19.84	9.024	1.703	0.291	0.197	0.272	0.213	0.212	0.259	0.225	0.247	0.231	0.197	0.230	0.241	0.243	0.191	0.239
260.0	24.69	19.70	60.17	265.7	297.8	158.9	626.7	3282	3889	245.4	17.58	6.002	5.642	3.894	2.851	2.159	1.868	1.572	1.013	0.972	0.765	0.754	0.691	0.664	0.664	0.699	0.696	0.483	0.626	0.483	0.464	0.505	0.401	0.320	0.357	0.351	0.313	0.324	0.277	0.292	0.274	0.230	0.308	0.268	0.261	0.257	0.222	0.257	0.239	0.374	0.796	1.570	1.538	0.946	0.696	0.809	1.353	3.300	9.098	19.44	26.31	19.55	6.775	0.910	0.294	0.217	0.251	0.237	0.257	0.223	0.256	0.230	0.228	0.218	0.210	0.205	0.233
265.0	26.86	20.36	27.41	131.0	368.9	221.1	178.1	1139	4399	3860	188.1	10.55	6.320	4.466	3.208	2.335	2.059	1.712	1.291	1.084	0.689	0.774	0.641	0.740	0.649	0.612	0.720	0.531	0.680	0.549	0.451	0.479	0.421	0.360	0.358	0.364	0.388	0.342	0.281	0.277	0.287	0.213	0.405	0.260	0.266	0.230	0.250	0.249	0.212	0.230	0.421	0.772	1.677	2.219	1.393	0.572	0.523	0.972	2.380	5.767	14.63	27.09	29.10	16.80	3.828	0.434	0.229	0.246	0.245	0.234	0.228	0.267	0.216	0.208	0.235	0.262	0.265
270.0	30.59	27.14	22.84	46.33	182.3	380.1	265.9	303.7	1413	4004	3963	753.5	39.89	5.551	4.154	3.181	2.501	1.924	1.596	1.316	0.868	0.865	0.825	0.761	0.752	0.668	0.695	0.597	0.622	0.664	0.531	0.528	0.490	0.494	0.393	0.368	0.407	0.367	0.319	0.302	0.312	0.245	0.316	0.295	0.314	0.265	0.276	0.240	0.210	0.233	0.266	0.364	0.611	1.239	1.748	2.010	1.864	1.057	0.881	1.601	3.636	7.870	14.72	23.41	26.17	25.20	12.62	3.675	0.526	0.281	0.249	0.257	0.237	0.260	0.249	0.259	0.264
275.0	44.46	51.05	45.25	41.91	61.54	182.7	497.5	316.0	364.7	1013	3224	6903	1040	36.34	6.067	4.139	3.196	2.765	1.747	1.446	1.148	1.033	1.017	0.871	0.829	0.724	0.690	0.603	0.755	0.614	0.546	0.546	0.489	0.523	0.450	0.378	0.389	0.360	0.328	0.354	0.320	0.389	0.377	0.388	0.305	0.363	0.326	0.302	0.318	0.282	0.292	0.271	0.309	0.472	0.665	1.088	2.416	3.194	2.190	1.027	1.104	2.163	3.658	5.722	7.949	17.30	34.59	31.28	19.29	3.997	0.465	0.311	0.234	0.256	0.226	0.327	0.260
280.0	71.32	77.80	76.78	57.89	42.01	76.80	311.1	584.9	245.0	292.4	949.0	5091	6628	721.3	16.48	5.572	3.746	2.978	1.825	1.588	1.420	1.198	1.150	0.959	0.897	0.631	0.785	0.567	0.631	0.790	0.626	0.615	0.519	0.492	0.528	0.374	0.388	0.368	0.380	0.374	0.399	0.364	0.362	0.410	0.373	0.366	0.443	0.415	0.383	0.334	0.368	0.301	0.352	0.385	0.429	0.507	0.978	2.061	3.356	3.072	1.489	0.959	1.193	1.730	2.364	4.603	11.52	25.62	43.35	29.98	14.99	2.098	0.417	0.319	0.317	0.358	0.283
285.0	84.36	107.6	115.2	80.29	52.79	52.48	128.7	520.9	530.6	194.3	311.2	1535	6183	5554	115.0	9.625	4.787	3.331	2.094	1.825	1.661	1.167	1.151	0.989	0.920	0.649	0.814	0.733	0.674	0.660	0.660	0.712	0.583	0.448	0.500	0.484	0.414	0.419	0.400	0.301	0.396	0.346	0.387	0.407	0.362	0.443	0.506	0.551	0.498	0.431	0.436	0.401	0.385	0.421	0.410	0.399	0.555	0.847	1.590	3.136	3.853	2.247	1.175	0.942	1.162	1.665	3.068	6.927	16.87	31.83	45.66	26.17	9.339	0.870	0.399	0.331	0.299
290.0	108.7	137.7	164.9	119.7	80.72	70.14	92.33	238.8	561.3	512.6	245.9	488.6	1790	4618	5072	446.7	29.86	5.558	3.200	2.298	1.859	1.554	1.208	1.075	1.032	0.837	0.860	0.812	0.684	0.675	0.728	0.790	0.547	0.516	0.589	0.520	0.463	0.516	0.395	0.359	0.397	0.423	0.367	0.359	0.473	0.520	0.530	0.561	0.628	0.559	0.528	0.571	0.448	0.468	0.446	0.506	0.521	0.652	0.826	1.399	2.366	3.164	3.699	2.880	1.733	1.292	1.451	2.436	4.579	8.430	16.48	24.35	27.74	30.64	17.86	7.598	1.165
295.0	131.0	191.2	225.4	182.3	135.0	122.1	148.7	208.3	337.7	704.1	788.7	416.7	616.3	1208	2932	6104	658.9	35.83	5.948	3.128	2.325	1.795	1.567	1.215	1.170	1.005	0.976	0.818	0.639	0.688	0.789	0.756	0.658	0.576	0.567	0.508	0.533	0.548	0.477	0.418	0.386	0.450	0.438	0.364	0.468	0.485	0.677	0.718	0.725	0.704	0.774	0.730	0.701	0.634	0.734	0.600	0.780	0.907	0.990	1.079	1.435	1.817	2.559	4.116	5.109	3.485	1.876	1.988	2.312	3.050	4.681	6.455	7.481	13.95	29.84	43.97	27.35
300.0	154.4	261.1	335.9	308.1	261.9	272.6	338.6	357.8	584.2	871.4	1449	1127	829.3	787.3	1141	4137	5515	527.4	24.41	5.420	3.046	2.214	1.998	1.670	1.383	1.339	1.164	0.893	0.875	0.877	0.907	0.790	0.711	0.653	0.611	0.623	0.607	0.608	0.487	0.490	0.389	0.527	0.477	0.560	0.523	0.668	0.838	0.855	1.119	1.058	1.074	1.123	1.304	1.172	1.116	1.212	1.380	1.658	1.859	1.915	2.621	2.827	3.378	4.294	5.687	7.516	6.577	5.297	4.396	3.890	3.894	4.102	4.200	5.734	10.41	22.50	40.46
305.0	230.0	425.1	558.3	539.3	475.7	508.3	725.6	954.1	1298	1698	2248	2681	1458	1250	1169	1896	5413	4705	81.14	11.63	4.637	3.153	2.480	2.037	1.599	1.461	1.190	1.201	1.107	1.021	0.895	0.865	0.839	0.805	0.667	0.722	0.638	0.648	0.479	0.539	0.520	0.539	0.505	0.541	0.723	0.985	1.058	1.499	1.678	1.627	1.660	1.945	1.878	1.912	2.170	2.203	2.916	3.603	4.075	4.399	5.073	6.083	7.345	7.865	8.793	10.37	12.18	12.44	11.21	8.762	7.939	7.127	6.988	7.838	7.903	9.926	16.17
310.0	308.2	586.0	824.1	797.8	737.2	793.7	1054	1358	1690	2170	2640	3140	2923	2169	1770	1515	2449	4108	4004	1093	22.50	4.310	3.192	2.309	1.883	1.676	1.444	1.263	1.155	1.109	1.001	0.921	0.920	0.847	0.767	0.728	0.666	0.708	0.652	0.664	0.618	0.685	0.654	0.725	0.795	1.051	1.513	2.104	2.412	2.324	2.388	2.759	2.911	2.887	3.227	3.293	4.142	4.885	5.737	6.280	6.744	7.869	9.207	9.869	11.13	11.98	12.79	14.34	15.46	14.19	12.81	10.86	9.486	10.24	9.170	8.297	9.345
315.0	384.4	781.5	1078	1071	966.4	1015	1266	1565	1841	2353	2817	3209	3239	2933	2205	1586	1698	1569	2261	4582	491.9	20.58	4.320	2.742	2.227	1.937	1.611	1.549	1.425	1.187	1.129	1.055	0.904	0.865	0.746	0.695	0.684	0.691	0.631	0.625	0.628	0.704	0.665	0.862	1.016	1.261	1.847	2.617	3.231	3.079	3.358	3.672	3.746	3.699	4.003	4.147	4.678	5.887	6.761	7.371	7.481	8.463	9.934	11.09	12.12	12.72	13.35	15.04	15.32	15.18	15.54	14.81	13.18	11.91	10.30	9.031	8.576
320.0	444.7	912.4	1256	1189	1067	1105	1358	1641	1883	2394	2864	3248	3230	3059	2578	1693	1567	1017	712.0	2945	4006	385.0	9.635	3.666	2.985	2.283	1.904	1.461	1.471	1.153	1.081	0.946	0.944	0.925	0.836	0.749	0.876	0.739	0.678	0.704	0.641	0.655	0.794	0.775	1.117	1.501	2.097	2.951	3.488	3.711	3.570	4.062	4.026	4.052	4.161	4.393	5.286	6.343	6.917	7.177	7.723	8.557	9.644	11.34	12.16	12.84	13.73	14.94	15.33	15.08	14.83	14.87	15.65	13.76	11.58	9.630	8.766
325.0	452.7	934.7	1343	1328	1091	1075	1291	1567	1758	2184	2651	3031	3015	2748	2599	1775	1449	855.9	335.9	857.7	3497	3346	58.56	6.259	3.575	2.460	1.853	1.709	1.720	1.416	1.162	1.023	0.936	0.964	0.822	0.745	0.752	0.712	0.638	0.837	0.640	0.632	0.713	0.855	1.072	1.549	2.244	3.426	3.867	3.945	3.772	4.290	4.383	4.325	4.215	4.477	5.227	5.966	6.825	7.004	7.469	8.269	9.243	9.944	11.69	11.59	12.55	13.73	14.56	14.27	13.46	13.19	13.53	14.40	12.76	10.13	8.704
330.0	476.0	1009	1569	1713	1436	1153	1180	1386	1535	1878	2266	2623	2640	2392	2166	1776	1417	775.9	289.7	301.4	1008	2702	3090	865.6	17.46	3.471	2.363	2.041	1.714	1.431	1.212	1.129	1.031	0.914	0.846	0.814	0.781	0.740	0.665	0.719	0.716	0.652	0.686	0.926	1.067	1.593	2.245	3.553	4.427	4.681	5.027	5.748	5.567	5.449	4.731	4.409	4.857	5.324	6.100	6.356	6.683	6.900	7.891	8.791	9.837	10.16	11.07	11.64	12.56	12.51	12.13	11.76	11.54	11.80	11.18	10.36	9.260
335.0	475.8	1019	1750	2040	1822	1266	1070	1203	1320	1589	1921	2238	2262	2062	1824	1469	1426	834.2	321.9	222.5	338.2	703.8	1864	3701	405.6	16.78	3.533	2.226	1.967	1.741	1.331	1.171	1.129	0.959	0.879	0.922	0.733	0.730	0.744	0.768	0.627	0.711	0.755	0.866	0.949	1.495	2.348	3.568	4.737	5.246	5.718	7.126	6.798	6.746	5.428	4.257	4.313	4.870	5.261	5.449	5.578	5.825	6.723	7.515	8.193	8.913	9.504	10.30	10.70	10.61	11.03	10.39	10.21	9.957	8.831	8.157	8.303
340.0	447.0	964.5	1722	2050	1849	1254	973.4	1052	1132	1378	1643	1901	1947	1796	1563	1236	1193	903.0	366.4	215.0	196.8	252.3	544.1	2563	3266	321.9	7.156	2.758	2.100	1.697	1.538	1.442	1.270	1.065	0.924	0.895	0.810	0.743	0.746	0.674	0.604	0.675	0.713	0.845	1.029	1.380	2.304	3.552	4.520	5.156	5.747	7.208	7.443	6.838	5.308	3.978	4.121	4.294	4.658	4.538	4.931	5.276	5.605	6.482	7.063	7.641	8.314	8.528	9.026	8.823	9.339	8.986	8.684	8.641	7.912	6.734	7.000
345.0	417.5	899.4	1641	2011	1834	1215	873.9	921.4	990.9	1172	1399	1620	1671	1549	1344	1069	942.7	823.9	476.9	233.9	176.3	161.8	204.3	754.5	3005	2711	50.00	4.150	2.640	1.804	1.586	1.612	1.321	1.111	1.060	0.855	0.761	0.726	0.706	0.639	0.620	0.685	0.740	0.825	0.960	1.292	1.935	3.001	4.342	4.852	5.569	6.932	7.131	6.749	5.073	3.778	3.760	3.983	4.111	4.197	4.045	4.641	5.139	5.627	5.668	6.288	6.958	7.554	7.950	7.690	8.023	8.068	7.764	7.435	7.011	5.935	5.704
350.0	373.4	786.2	1479	1923	1861	1197	793.0	795.8	854.0	985.8	1158	1319	1364	1295	1133	910.2	782.3	633.9	523.6	365.3	206.1	162.9	149.2	230.7	864.7	2263	2443	218.7	13.53	2.441	1.898	1.643	1.304	1.114	1.018	0.855	0.818	0.827	0.687	0.653	0.692	0.677	0.644	0.704	0.866	1.163	1.674	2.747	3.968	4.569	5.455	6.811	7.052	6.953	5.072	3.534	3.418	3.345	3.450	3.731	3.778	3.897	4.261	5.013	4.835	5.325	5.707	6.018	6.170	6.281	6.657	6.726	6.513	6.227	5.842	5.318	5.187
355.0	331.4	666.5	1299	1714	1759	1137	724.3	721.4	746.9	850.0	960.3	1081	1111	1061	943.1	776.2	664.1	527.0	410.1	441.5	311.9	182.9	148.8	129.0	235.3	549.7	1588	2876	351.4	11.23	2.629	1.937	1.477	1.133	0.960	0.893	0.656	0.747	0.730	0.608	0.694	0.674	0.637	0.587	0.853	1.122	1.502	2.303	3.212	3.902	4.831	6.242	6.746	6.511	5.032	3.366	3.379	3.022	3.216	3.241	3.205	3.362	3.674	4.238	4.028	4.723	4.705	4.764	4.887	5.211	5.507	5.411	5.385	5.402	4.493	4.358	4.677
360.0	312.8	600.3	1116	1540	1600	1071	685.0	667.6	681.6	766.4	845.2	935.6	956.2	926.9	826.3	694.9	597.8	476.8	364.6	376.3	397.9	233.8	160.4	114.8	107.7	159.3	437.0	2164	2628	52.11	5.471	2.795	1.776	1.260	1.137	0.969	0.784	0.683	0.694	0.651	0.650	0.636	0.617	0.603	0.713	1.069	1.323	2.007	2.828	3.423	4.493	5.378	6.092	6.035	4.722	3.279	2.970	2.702	3.074	3.006	3.212	3.102	3.363	3.700	3.830	4.011	3.989	4.245	4.333	4.343	4.760	4.773	4.700	4.666	4.081	3.862	4.029
365.0	269.5	541.1	1013	1381	1496	1018	672.5	640.2	654.0	706.7	783.3	847.3	854.0	819.8	742.6	632.1	559.4	455.5	355.9	320.8	379.8	326.4	185.9	123.8	91.37	82.65	133.1	652.2	2612	2105	43.90	5.820	2.783	1.595	1.133	0.943	0.935	0.809	0.763	0.562	0.677	0.625	0.532	0.642	0.708	0.978	1.109	1.973	2.571	3.197	3.795	5.150	5.403	5.583	4.487	3.224	2.919	2.671	2.841	2.834	2.909	3.001	3.182	3.473	3.460	3.555	3.799	3.655	3.946	4.068	4.134	4.121	4.266	4.029	3.585	3.770	3.498
370.0	239.7	465.8	890.9	1269	1388	991.7	660.4	619.0	632.5	672.9	735.2	776.8	800.4	754.2	667.7	576.0	515.5	437.4	357.2	313.2	311.4	349.0	294.3	170.2	118.5	96.24	100.9	209.7	796.9	2014	2068	196.9	18.78	4.767	1.925	1.161	1.084	0.839	0.795	0.621	0.645	0.647	0.583	0.576	0.739	0.900	1.096	1.734	2.256	2.926	3.541	4.640	5.107	5.383	4.346	3.227	3.040	2.777	2.874	2.869	2.758	2.875	2.939	3.137	3.319	3.341	3.449	3.422	3.602	4.040	3.899	3.687	3.811	3.826	3.383	3.455	3.355
375.0	243.5	421.6	780.1	1167	1339	1015	675.0	620.7	638.4	687.2	782.1	797.6	911.0	790.0	616.2	540.3	486.8	427.6	367.4	325.2	306.5	305.3	366.4	311.3	195.2	169.6	201.3	229.5	304.1	593.4	1633	2586	304.6	21.74	3.807	1.741	1.331	0.852	0.771	0.747	0.585	0.639	0.561	0.584	0.719	0.858	1.047	1.598	2.061	2.734	3.169	4.340	4.848	5.059	4.368	3.264	3.008	2.721	2.631	2.797	3.070	2.940	2.932	3.312	3.549	3.512	3.451	3.570	3.907	4.357	4.521	3.687	3.445	3.564	3.322	3.191	3.211
380.0	223.7	401.2	743.6	1132	1319	1040	704.4	632.7	649.7	707.9	823.9	844.8	1017	828.8	595.2	514.8	470.1	416.9	373.1	338.1	323.5	304.8	345.7	407.9	289.1	236.4	296.0	312.4	254.3	315.8	698.5	2193	2127	218.0	7.280	2.342	1.526	0.990	0.919	0.746	0.648	0.728	0.553	0.662	0.666	0.838	1.002	1.516	2.004	2.542	3.099	4.051	4.713	5.113	4.502	3.375	3.095	2.706	2.868	2.859	3.068	3.036	2.961	3.445	3.726	3.945	3.693	3.684	4.036	4.833	5.078	3.883	3.450	3.166	3.034	3.303	2.887
385.0	202.7	378.9	708.7	1060	1286	1046	706.7	641.6	649.1	713.8	847.0	848.0	1053	847.6	576.2	491.3	454.7	415.5	371.3	347.4	333.4	313.4	328.7	406.3	381.8	292.3	348.5	366.7	272.2	281.6	462.2	921.7	2192	1577	36.24	3.510	1.811	1.129	1.054	0.776	0.689	0.722	0.634	0.676	0.688	0.820	0.992	1.346	1.848	2.351	2.761	4.041	4.638	5.103	4.481	3.665	3.259	2.858	2.971	2.873	3.174	3.237	3.052	3.368	3.409	4.121	3.954	3.873	3.965	4.970	5.179	4.009	3.346	3.016	2.905	3.187	2.965
390.0	184.2	337.0	622.0	952.5	1140	948.4	683.7	622.5	627.7	667.9	761.8	761.6	920.1	762.2	534.5	462.9	427.3	395.7	363.0	342.2	328.0	309.7	311.8	337.7	361.7	340.3	332.7	328.2	241.4	235.3	341.5	430.3	715.3	1513	1416	149.9	8.114	1.640	1.117	0.846	0.753	0.713	0.665	0.688	0.661	0.750	0.861	1.280	1.735	2.026	2.541	3.382	4.147	4.441	4.188	3.225	3.104	2.779	2.746	2.725	2.811	3.095	2.944	3.130	3.135	3.747	3.594	3.455	3.501	4.485	4.651	3.678	3.159	2.987	2.805	2.867	2.815
395.0	162.0	306.8	561.6	860.8	1010	871.7	678.4	606.1	609.9	633.9	717.6	710.2	836.4	704.8	499.6	440.0	404.3	384.5	356.3	338.5	326.5	309.9	309.2	315.6	312.8	350.9	384.5	333.9	239.6	227.8	305.5	309.6	243.4	387.0	1058	1675	228.7	5.878	1.533	1.011	0.757	0.783	0.657	0.716	0.694	0.700	0.848	1.235	1.508	1.891	2.516	3.265	3.701	3.881	3.886	3.205	3.034	2.825	2.679	2.603	2.770	2.767	2.814	2.861	2.903	3.274	3.481	3.148	3.291	4.314	4.445	3.399	3.085	2.820	2.623	2.814	2.745
400.0	161.4	291.4	536.9	815.5	987.2	873.2	665.6	607.2	595.2	632.2	721.8	702.9	845.2	697.9	480.1	423.3	393.5	376.8	353.6	337.4	327.9	317.9	320.4	326.2	308.3	328.4	433.5	390.5	264.1	251.6	333.2	315.9	152.0	122.1	300.0	1359	1421	36.07	2.756	1.307	1.075	0.948	0.629	0.739	0.677	0.683	0.912	1.294	1.505	1.821	2.068	3.119	3.489	3.789	3.719	3.241	2.850	2.778	2.740	2.679	2.675	2.633	2.835	2.754	3.158	3.354	3.116	3.083	3.144	4.341	4.525	3.280	2.985	2.691	2.443	2.679	2.575
405.0	164.5	272.5	509.1	776.1	951.0	867.1	657.7	598.0	595.7	630.3	713.2	688.9	825.7	682.0	461.1	413.9	384.7	364.3	346.7	334.2	326.4	317.2	321.6	332.6	310.5	314.5	418.9	440.5	292.0	266.5	349.2	324.1	138.2	65.81	84.94	421.3	1465	1063	28.63	1.696	1.160	0.937	0.747	0.766	0.561	0.704	0.869	1.116	1.454	1.734	2.030	2.994	3.410	3.706	3.526	3.066	2.982	2.756	2.697	2.728	2.535	2.712	2.569	2.629	2.740	3.188	3.054	2.962	3.202	4.128	4.446	3.211	2.640	2.608	2.694	2.361	2.529
410.0	144.0	256.8	465.3	690.0	840.2	782.4	639.9	585.2	567.2	590.5	645.1	616.4	724.6	603.2	438.4	390.0	365.3	345.2	330.0	318.4	308.3	300.9	301.7	310.3	290.6	283.8	337.8	376.3	307.9	250.1	291.9	264.3	118.9	55.58	39.88	108.2	436.5	1051	1020	134.2	6.235	1.148	0.936	0.771	0.601	0.711	0.801	1.061	1.309	1.606	1.851	2.731	3.151	3.293	3.079	2.740	2.651	2.664	2.619	2.437	2.358	2.608	2.659	2.634	2.773	2.938	2.793	2.780	3.009	3.596	3.957	2.959	2.520	2.506	2.359	2.210	2.415
415.0	125.8	231.6	419.5	597.4	735.4	701.1	613.0	565.5	552.7	547.9	577.8	548.2	613.4	524.5	409.7	365.0	343.5	325.2	315.2	301.2	290.1	281.1	278.9	281.9	267.2	255.8	281.1	288.6	278.2	255.2	239.8	202.3	101.5	54.94	34.21	41.15	108.6	256.5	741.8	1180	194.6	4.524	1.130	0.826	0.662	0.725	0.751	1.024	1.285	1.363	1.762	2.193	2.654	2.720	2.772	2.849	2.494	2.436	2.605	2.511	2.465	2.451	2.477	2.510	2.547	2.679	2.654	2.430	2.538	3.001	3.213	2.556	2.396	2.310	2.207	2.197	2.231
420.0	113.7	208.7	374.5	549.4	683.6	651.6	594.7	560.9	542.2	529.2	547.8	519.2	558.3	486.8	386.6	347.8	331.5	310.1	298.4	288.5	280.1	268.4	272.3	268.8	253.4	245.2	259.6	258.5	239.1	259.4	247.3	187.1	101.3	56.62	36.89	28.31	38.18	66.98	204.8	921.0	1038	32.96	2.315	0.937	0.764	0.847	0.757	1.109	1.269	1.292	1.587	2.127	2.499	2.604	2.591	2.504	2.384	2.593	2.373	2.633	2.532	2.241	2.570	2.436	2.346	2.605	2.411	2.271	2.480	2.829	2.677	2.438	2.208	2.125	2.061	2.166	2.022
425.0	100.9	214.0	352.7	524.7	642.4	638.3	604.0	558.0	532.2	527.7	524.8	509.0	533.6	461.2	369.4	334.2	314.8	300.8	290.6	281.4	270.6	259.8	261.8	260.6	249.9	241.7	252.5	248.8	217.0	235.6	267.4	198.5	102.9	61.08	39.27	28.73	24.33	25.33	53.83	276.8	1013	798.4	26.79	1.531	1.051	0.926	0.814	1.013	1.235	1.278	1.727	2.035	2.293	2.322	2.430	2.448	2.507	2.754	2.302	2.825	2.533	2.434	2.453	2.425	2.290	2.474	2.424	2.150	2.451	2.614	2.588	2.352	2.231	2.165	1.971	1.980	2.147
430.0	106.2	196.4	350.4	498.2	613.8	621.7	603.1	570.4	538.4	507.0	503.9	476.4	494.9	430.9	352.2	322.7	300.7	291.2	276.8	270.0	256.3	246.6	248.6	247.8	238.2	230.4	239.3	235.3	204.3	201.5	239.3	215.9	115.8	66.92	45.69	33.14	24.94	19.49	21.73	69.25	290.6	727.0	774.1	125.3	6.594	1.123	0.924	0.980	1.110	1.258	1.546	1.932	2.220	2.417	2.537	2.477	2.708	2.664	2.491	2.584	2.566	2.398	2.378	2.308	2.237	2.384	2.122	2.032	2.166	2.444	2.481	2.270	2.029	2.037	1.975	1.946	1.976
435.0	133.1	185.4	333.3	468.5	585.5	611.4	608.8	593.6	537.5	495.4	473.8	453.5	450.3	396.0	338.2	308.7	292.4	278.6	266.4	256.8	242.2	231.7	228.7	229.5	223.2	215.2	219.4	217.2	190.3	183.8	192.8	195.3	141.3	80.95	53.22	38.76	28.98	21.13	17.24	23.88	71.10	173.9	514.9	962.6	193.1	5.894	1.169	0.967	0.988	1.170	1.509	1.959	2.176	2.231	2.649	2.432	2.640	2.729	2.758	2.648	2.748	2.449	2.327	2.286	2.169	2.360	2.076	2.039	2.054	2.173	2.187	2.038	1.960	1.984	1.901	1.957	1.845
440.0	173.5	184.7	310.6	450.7	562.4	622.5	615.8	600.8	542.7	490.9	459.2	430.1	421.2	370.9	326.9	301.1	282.4	272.2	258.2	249.4	233.5	219.9	217.7	216.8	213.1	204.9	207.1	202.7	184.5	175.8	172.9	166.2	147.1	100.1	59.23	42.92	33.32	23.85	17.84	15.78	23.47	44.92	138.7	697.9	908.1	31.62	2.686	1.203	1.182	1.167	1.411	1.842	2.063	2.270	2.416	2.458	2.706	2.621	2.671	2.599	2.750	2.494	2.296	2.309	2.233	2.320	2.039	1.971	2.119	1.960	2.032	1.827	1.852	1.795	1.849	2.030	2.023
445.0	178.6	216.2	302.7	428.0	549.5	623.5	633.0	608.2	546.1	487.3	451.1	416.1	398.7	359.7	316.6	292.5	274.2	263.8	253.6	238.7	222.4	211.2	204.1	207.4	202.7	196.6	200.4	194.8	177.6	170.1	162.6	146.3	130.0	117.9	73.68	48.11	35.95	26.44	19.93	15.32	13.85	16.28	36.47	201.9	807.5	753.0	25.17	1.749	1.292	1.227	1.405	1.810	2.064	2.279	2.268	2.432	3.002	2.730	2.859	2.612	2.678	2.434	2.256	2.237	2.084	2.065	1.964	1.980	2.146	1.979	1.996	1.810	1.795	1.881	1.869	1.666	1.869
450.0	147.3	272.9	308.4	405.3	537.0	608.7	634.4	605.6	539.4	468.4	427.4	392.3	370.2	336.3	297.0	273.9	259.5	249.6	238.1	224.0	207.8	193.6	189.8	191.6	187.9	185.0	186.7	184.1	169.7	163.2	155.3	137.9	112.7	108.1	92.92	59.18	39.64	29.61	22.45	17.20	12.98	11.11	13.84	49.73	223.4	601.9	698.6	118.8	7.317	1.349	1.424	1.870	1.965	2.166	2.452	2.440	2.809	2.652	2.750	2.752	2.471	2.442	2.322	2.116	1.974	1.834	1.926	1.863	1.948	1.776	1.741	1.792	1.692	1.608	1.791	1.711	1.758
455.0	101.8	334.8	416.7	386.4	501.7	582.9	621.8	593.6	509.7	443.8	391.7	362.0	342.7	309.0	278.6	253.0	244.3	231.6	221.5	209.1	189.7	175.3	171.7	173.6	172.3	169.4	170.5	172.2	159.8	152.7	146.8	129.8	103.8	90.34	89.14	77.19	44.53	31.45	24.43	18.51	14.82	11.43	9.884	16.51	53.91	141.5	367.2	785.2	175.4	8.045	1.587	1.853	1.956	2.056	2.456	2.189	2.737	2.660	2.690	2.723	2.413	2.303	2.124	2.098	1.772	1.821	1.586	1.638	1.672	1.766	1.748	1.805	1.573	1.566	1.641	1.517	1.856
460.0	87.25	278.8	608.5	403.4	478.8	551.6	587.4	567.2	493.5	423.1	363.4	339.5	322.1	287.6	256.7	240.3	231.4	218.5	211.3	192.7	176.5	164.0	159.4	161.5	159.6	158.8	156.9	156.9	149.7	143.0	139.3	121.5	99.72	83.80	76.55	78.22	57.05	35.08	25.30	20.20	15.95	12.50	9.761	9.551	16.77	35.40	92.60	474.4	727.7	134.7	4.334	1.850	2.013	1.916	2.296	2.387	2.601	2.615	2.551	2.567	2.353	2.459	2.169	1.856	1.699	1.783	1.551	1.530	1.585	1.657	1.540	1.696	1.543	1.595	1.545	1.612	1.698
465.0	82.47	190.8	745.2	549.9	456.9	515.1	567.4	551.0	472.7	399.2	348.5	316.8	295.0	268.1	241.8	224.6	213.4	205.0	195.0	179.5	161.9	152.6	147.3	148.4	148.8	147.0	146.2	146.5	140.6	136.2	128.1	113.7	94.47	80.20	67.51	68.20	65.14	41.19	27.63	21.05	16.71	12.61	10.17	8.536	8.781	11.91	24.21	126.9	554.7	614.3	22.59	2.926	2.063	2.183	2.133	2.230	2.376	2.576	2.443	2.478	2.348	2.191	2.094	1.786	1.750	1.576	1.505	1.552	1.601	1.557	1.564	1.427	1.386	1.537	1.368	1.445	1.672
470.0	74.97	133.4	561.4	955.9	519.1	474.5	522.5	496.1	433.4	361.2	316.1	286.9	266.8	240.6	216.9	204.8	191.9	182.3	173.2	160.4	144.1	134.1	130.4	131.1	132.5	130.9	131.4	130.5	127.6	125.2	115.3	104.9	87.89	74.83	61.83	56.16	56.28	51.23	33.70	22.28	17.21	13.67	11.32	9.078	7.716	7.404	9.201	31.46	144.9	389.7	480.6	113.9	9.613	2.081	2.130	2.175	2.244	2.473	2.320	2.295	2.255	2.082	1.881	1.683	1.585	1.602	1.344	1.389	1.461	1.343	1.467	1.366	1.338	1.464	1.279	1.338	1.418
475.0	85.29	110.9	286.7	1044	1027	435.2	467.6	447.4	389.1	332.2	284.8	259.4	237.9	214.9	194.9	182.9	171.0	163.9	151.9	140.7	126.1	118.2	114.4	114.6	115.7	115.8	116.4	115.7	113.6	110.9	104.3	94.90	80.56	68.30	56.50	48.39	43.74	46.02	41.58	26.24	17.77	14.23	11.47	9.573	7.946	6.569	6.423	10.48	35.29	90.04	191.8	483.5	185.6	12.79	2.096	2.103	2.157	2.116	2.195	2.057	1.915	1.930	1.685	1.483	1.423	1.453	1.275	1.256	1.388	1.310	1.250	1.431	1.258	1.180	1.173	1.225	1.230
480.0	79.48	111.6	198.8	724.7	1601	505.0	434.9	415.2	361.0	304.4	259.8	242.7	219.3	198.2	179.4	165.9	156.2	150.1	140.2	129.8	115.9	105.9	105.5	105.7	104.4	105.2	105.4	104.8	104.1	102.2	96.33	87.03	75.10	63.79	54.38	45.01	39.88	38.76	42.01	32.76	19.63	14.55	12.06	10.20	8.318	6.986	6.244	6.189	11.11	22.96	46.98	229.8	521.5	164.6	6.851	2.018	2.073	2.116	1.967	1.771	1.821	1.639	1.556	1.352	1.341	1.249	1.233	1.207	1.123	1.213	1.164	1.113	1.060	1.128	1.170	1.182	1.144
485.0	78.59	119.9	166.5	435.7	1765	804.0	399.5	371.2	340.9	283.0	250.8	226.9	207.1	183.5	165.0	152.4	145.5	137.4	129.0	121.0	107.8	97.67	97.89	97.13	96.54	96.94	98.46	98.22	97.86	95.09	89.80	81.12	71.06	61.80	51.86	43.68	37.65	33.42	35.77	36.77	23.60	15.10	12.37	10.77	9.064	7.469	6.019	5.442	5.640	8.039	13.05	58.64	319.3	499.7	28.67	3.863	2.128	1.987	1.934	1.677	1.773	1.500	1.453	1.195	1.412	1.291	1.130	1.086	1.060	1.148	1.030	1.183	1.000	1.098	1.015	1.119	1.109
490.0	61.93	120.0	160.4	268.1	1095	1403	451.3	350.2	306.6	259.2	228.8	206.2	190.7	169.7	150.0	139.0	130.4	124.6	116.4	107.1	96.64	89.16	88.57	86.96	87.78	87.33	88.37	88.29	88.48	87.00	82.55	74.07	65.61	56.53	48.80	41.92	35.87	30.68	28.74	31.74	29.04	19.91	13.31	10.90	9.354	8.080	6.640	5.838	5.051	4.937	5.588	15.54	80.26	254.3	395.1	201.8	12.44	2.066	1.931	1.676	1.612	1.484	1.349	1.210	1.252	1.187	1.143	1.135	1.102	1.117	1.043	0.944	1.033	0.866	0.928	0.949	1.032
495.0	47.43	112.4	174.4	202.6	466.1	1411	1006	321.6	272.4	231.5	206.3	188.0	166.3	150.1	135.4	122.3	114.4	108.3	105.3	95.65	85.72	79.09	76.36	77.18	77.42	77.49	78.40	78.26	79.22	78.07	74.27	66.30	59.85	51.27	45.13	38.84	33.08	29.03	24.88	24.03	26.44	26.14	16.51	11.42	9.432	8.673	7.308	6.017	5.249	4.603	4.442	6.124	20.24	59.19	145.6	437.4	218.3	16.48	1.942	1.626	1.454	1.367	1.334	1.268	1.104	1.061	1.095	1.039	0.974	0.988	1.032	0.900	1.018	0.931	0.923	0.855	0.877
500.0	40.04	93.94	175.4	187.5	277.0	909.7	1553	382.7	244.9	212.2	186.0	172.1	154.5	135.0	123.9	111.8	103.5	96.59	93.94	86.49	77.59	71.53	69.22	68.89	70.07	70.18	70.37	71.97	70.82	69.22	66.68	60.69	54.66	46.70	41.73	36.16	30.93	27.39	23.49	20.95	21.89	25.60	20.33	12.65	9.923	8.548	7.426	6.414	5.692	4.695	3.912	4.011	6.808	15.49	35.45	177.2	472.9	190.8	10.30	1.685	1.458	1.395	1.206	1.145	1.074	1.014	0.993	0.863	1.057	0.896	0.980	0.879	0.887	0.870	0.785	0.911	0.820
505.0	41.27	78.48	168.5	179.7	223.4	478.2	1671	697.1	220.2	194.3	171.2	157.6	140.7	123.7	113.1	102.0	92.86	88.92	82.66	78.04	69.20	64.32	62.83	63.06	63.62	63.40	64.84	64.63	65.40	63.59	60.67	55.84	50.94	44.01	38.03	33.71	29.27	25.39	22.33	19.50	18.16	21.56	22.92	15.18	10.07	8.535	7.184	6.342	5.640	4.754	4.019	3.601	3.960	5.752	10.20	43.58	237.6	459.6	141.5	4.538	1.397	1.223	1.092	1.152	0.940	1.014	0.934	0.867	0.920	0.797	0.841	0.813	0.895	0.853	0.792	0.784	0.797
510.0	33.35	60.07	138.0	203.2	187.4	261.7	995.9	1410	284.1	169.7	151.6	137.9	123.1	109.6	98.03	89.09	82.82	77.53	72.01	66.77	60.82	56.64	54.80	55.71	55.40	55.41	56.31	57.20	56.60	56.31	53.07	49.61	44.60	38.86	34.56	30.43	26.54	23.21	19.95	17.76	15.78	16.13	18.96	19.02	12.69	8.720	7.345	6.298	5.534	4.848	4.280	3.778	3.306	3.458	4.263	11.68	57.77	200.8	334.9	129.8	12.75	1.275	1.137	0.980	0.893	0.848	0.869	0.742	0.727	0.686	0.682	0.665	0.787	0.697	0.726	0.713	0.702
515.0	35.50	45.54	96.53	199.0	184.9	191.2	392.5	1496	856.7	159.4	134.8	120.5	109.9	94.40	85.61	77.13	70.51	66.96	61.99	57.00	50.97	48.19	47.17	47.85	47.53	47.87	48.51	47.92	48.74	47.21	46.99	42.44	37.95	34.23	30.34	26.68	23.91	20.93	18.16	15.83	14.31	13.17	13.60	16.69	15.70	10.58	7.348	5.957	5.334	4.723	4.432	4.275	3.358	2.886	2.955	4.602	14.49	46.49	104.7	301.8	208.1	15.66	1.146	1.000	0.841	0.763	0.807	0.783	0.662	0.733	0.706	0.690	0.708	0.645	0.625	0.654	0.777
520.0	27.38	47.11	76.80	174.8	199.9	156.1	206.7	951.1	1507	224.3	118.7	111.0	96.85	83.81	76.18	67.38	63.01	59.09	55.51	49.63	44.84	43.11	41.56	41.92	41.60	42.44	42.88	41.91	43.96	41.62	41.81	37.85	34.19	30.49	27.12	24.37	22.04	19.23	16.55	14.61	13.38	12.20	11.35	13.20	15.95	13.11	7.927	6.130	5.220	4.756	4.085	4.058	3.748	2.955	2.679	2.862	4.974	12.04	25.22	118.8	340.1	165.1	8.280	1.001	0.815	0.706	0.735	0.758	0.659	0.718	0.671	0.698	0.595	0.637	0.583	0.509	0.703
525.0	32.43	40.53	63.45	133.2	220.3	151.3	155.6	436.6	1737	569.7	112.3	97.59	89.87	77.92	68.66	62.10	57.52	53.10	49.12	44.37	40.66	38.75	37.48	37.65	38.66	37.50	38.26	37.25	39.39	38.38	36.75	34.39	31.63	27.72	24.72	21.71	19.96	17.36	15.39	13.80	12.61	10.74	10.15	10.02	13.39	13.57	9.417	6.086	5.100	4.607	3.926	3.658	3.862	3.152	2.714	2.649	2.795	4.232	7.125	28.90	159.2	327.7	107.2	3.299	0.852	0.800	0.704	0.735	0.665	0.660	0.692	0.647	0.555	0.590	0.573	0.535	0.510
530.0	24.94	38.32	54.37	93.19	188.4	168.8	128.6	197.1	1043	1484	175.9	87.32	78.68	69.59	58.95	53.34	50.08	45.32	43.33	39.07	35.94	33.28	32.85	32.85	32.76	32.80	32.71	33.14	33.26	32.99	31.75	29.47	27.18	23.76	21.36	19.48	17.85	15.63	14.12	12.30	11.42	10.19	9.165	8.667	9.732	11.83	11.36	7.391	4.993	4.383	3.745	3.427	3.265	3.209	2.690	2.359	2.180	2.362	2.918	7.754	38.28	137.6	220.4	120.0	10.75	0.855	0.674	0.638	0.569	0.618	0.536	0.579	0.492	0.505	0.544	0.513	0.494
535.0	27.22	31.70	52.42	71.61	127.5	182.3	117.3	120.7	351.7	1701	716.8	78.74	67.05	59.08	51.10	43.89	41.88	38.26	34.64	33.10	30.29	28.50	27.68	27.43	27.89	28.08	27.57	27.52	28.68	27.89	26.79	25.01	22.75	20.86	18.32	16.83	15.11	13.13	12.50	10.97	9.989	9.054	8.355	7.703	7.407	8.165	10.32	9.086	5.530	4.206	3.546	3.229	2.807	2.767	3.220	2.577	2.003	1.797	2.016	2.886	9.626	31.78	67.44	214.1	165.0	12.81	0.666	0.609	0.569	0.499	0.572	0.529	0.456	0.607	0.504	0.462	0.466
540.0	26.74	31.22	43.50	65.69	90.78	178.4	123.2	96.84	147.0	1028	1404	124.6	58.76	51.14	44.67	39.65	36.99	33.74	30.28	28.30	26.32	24.37	23.97	24.19	23.75	23.99	23.92	24.72	24.81	24.43	23.76	22.34	19.51	18.03	16.75	14.79	13.06	11.88	11.10	9.932	9.200	8.132	7.588	7.052	6.518	6.391	7.514	9.551	6.503	4.274	3.314	2.941	2.527	2.367	2.790	2.657	2.012	1.804	1.572	1.623	3.113	8.185	16.09	80.75	234.8	116.4	5.724	0.619	0.532	0.529	0.511	0.465	0.516	0.474	0.426	0.381	0.441
545.0	28.22	31.17	41.61	55.79	70.75	146.8	144.6	83.89	93.01	407.3	1672	216.3	51.58	44.81	39.63	34.46	31.68	29.29	27.80	25.33	22.86	21.02	21.19	21.41	20.51	20.66	21.69	21.79	21.86	21.41	20.90	19.58	17.18	16.08	14.79	13.28	11.79	10.58	10.15	9.064	8.404	7.261	6.657	6.428	6.181	5.610	5.920	7.840	7.632	4.855	3.281	2.923	2.361	2.120	2.257	2.390	2.326	1.614	1.468	1.368	1.643	2.727	4.472	19.54	104.9	220.5	31.28	2.296	0.568	0.478	0.528	0.444	0.444	0.479	0.377	0.420	0.399
550.0	27.54	28.04	37.36	46.41	54.63	90.21	155.1	88.62	70.02	144.0	940.2	1103	98.44	38.75	32.88	29.42	26.50	24.94	22.96	21.08	19.02	18.08	17.70	17.64	17.77	17.23	17.99	17.82	17.97	17.93	17.09	15.68	14.60	13.04	12.19	10.86	10.40	8.941	8.332	8.101	7.169	6.282	5.959	5.599	5.148	4.811	4.559	5.419	6.594	5.776	3.819	2.655	2.206	1.997	1.987	1.857	2.275	1.940	1.551	1.270	1.217	1.401	1.807	5.055	25.05	90.02	143.1	83.04	9.581	0.535	0.494	0.440	0.404	0.390	0.367	0.369	0.408
555.0	28.48	28.93	32.11	39.39	44.80	55.61	121.9	112.5	60.11	74.93	279.1	1353	471.8	35.39	27.49	23.98	21.87	20.49	18.65	17.04	15.41	14.79	14.23	14.22	14.04	14.28	14.67	14.10	14.42	14.12	14.40	12.63	11.36	10.56	9.509	9.007	8.391	7.621	6.974	6.174	5.962	5.221	4.978	4.568	4.382	4.163	3.859	3.705	4.536	5.536	4.455	2.720	1.908	1.893	1.668	1.479	1.703	1.731	1.820	1.198	1.112	1.048	1.084	1.724	6.228	20.77	43.26	134.8	104.8	8.597	0.491	0.434	0.455	0.337	0.346	0.360	0.372
560.0	22.01	33.12	29.48	35.72	40.06	44.66	83.96	131.5	57.59	53.68	98.49	813.6	1064	60.28	23.11	19.75	19.30	17.39	15.22	14.79	13.13	12.34	12.16	11.93	11.67	11.81	12.10	12.34	12.41	12.03	11.48	10.58	9.788	9.423	8.042	7.844	7.176	6.472	6.010	5.203	5.073	4.510	4.300	4.070	3.857	3.348	3.233	2.992	3.086	4.038	4.756	3.425	1.886	1.728	1.600	1.310	1.438	1.486	1.646	1.433	1.034	0.964	0.832	1.012	1.980	5.226	10.34	49.90	144.9	33.72	3.843	0.389	0.398	0.420	0.300	0.331	0.357
565.0	23.82	27.00	30.81	31.28	35.56	41.29	58.07	131.5	71.34	43.93	53.73	305.2	1365	145.4	21.07	16.86	15.77	14.82	12.82	12.36	11.21	10.39	10.56	10.32	10.49	9.883	10.07	9.941	10.67	10.12	9.907	8.526	8.164	7.892	7.021	6.718	6.133	5.642	5.095	4.504	4.335	4.038	3.590	3.595	3.100	3.045	2.798	2.572	2.560	2.784	3.993	3.541	2.411	1.554	1.393	1.254	1.200	1.295	1.342	1.515	1.222	0.879	0.706	0.776	0.978	1.735	2.817	12.01	62.26	122.6	29.05	1.416	0.426	0.439	0.365	0.269	0.359
570.0	21.33	27.02	30.81	30.53	29.12	31.83	39.30	91.86	98.83	42.66	40.58	100.3	798.4	790.2	47.98	14.83	13.13	12.08	10.58	9.943	9.148	8.512	8.411	8.147	8.427	8.112	8.321	8.138	8.687	8.200	7.796	7.226	6.722	6.204	5.814	5.629	4.750	4.622	4.060	3.820	3.518	3.225	2.992	3.002	2.778	2.589	2.280	2.153	2.026	2.034	2.643	3.175	2.680	1.647	1.262	1.127	1.045	1.030	1.118	1.203	1.362	0.976	0.706	0.725	0.692	0.940	1.123	3.181	14.97	50.89	85.92	50.84	5.667	0.406	0.395	0.291	0.318
575.0	29.53	22.19	29.49	26.83	26.11	27.04	30.40	49.92	112.2	54.15	35.83	46.72	228.7	1023	287.1	13.28	10.86	9.793	8.926	8.151	7.647	7.127	6.769	6.463	6.421	6.382	6.453	6.776	6.748	6.776	6.133	5.727	5.540	5.408	4.746	4.182	3.810	3.585	3.510	3.160	2.893	2.709	2.519	2.357	2.291	1.945	1.940	1.882	1.782	1.553	1.727	2.316	2.508	2.074	1.327	0.983	0.849	0.846	0.920	0.867	1.019	1.178	0.779	0.625	0.683	0.647	0.694	1.098	3.814	11.74	25.89	79.80	33.59	4.832	0.353	0.369	0.271
580.0	24.63	28.47	26.58	27.93	24.89	26.26	26.93	33.94	92.01	80.25	32.39	34.85	71.65	624.3	717.3	23.50	9.709	7.981	7.735	6.991	5.983	6.475	5.563	6.025	5.284	5.657	5.316	5.632	5.454	5.565	5.389	4.987	4.649	4.312	3.823	3.741	3.417	3.139	2.968	2.848	2.502	2.475	2.231	2.062	1.991	1.944	1.756	1.650	1.554	1.397	1.354	1.486	2.072	2.337	1.470	1.007	0.776	0.845	0.856	0.634	0.768	1.153	0.931	0.755	0.698	0.631	0.625	0.731	1.314	3.021	6.212	29.65	76.89	30.06	1.914	0.342	0.271
585.0	23.20	28.58	27.35	25.93	21.89	19.55	23.15	29.48	64.84	97.00	37.09	30.43	34.10	226.6	945.8	86.19	8.521	7.394	6.650	5.905	5.801	4.966	4.749	4.818	4.805	4.740	4.970	4.682	4.732	4.877	4.912	4.254	3.979	3.660	3.365	3.335	2.885	2.622	2.411	2.374	2.247	2.097	1.997	1.849	1.625	1.672	1.412	1.324	1.286	1.094	1.110	1.102	1.508	1.994	1.683	1.190	0.865	0.770	0.775	0.660	0.661	0.729	1.169	0.965	0.700	0.601	0.510	0.664	0.706	1.072	1.709	7.199	35.47	75.38	23.21	0.800	0.325
590.0	23.75	25.36	28.02	24.14	20.55	18.70	22.40	25.53	39.54	94.64	57.35	31.04	27.00	68.94	556.7	482.5	20.39	6.458	5.439	5.139	4.551	4.219	4.022	4.074	4.019	4.071	4.089	3.759	3.645	3.980	3.906	3.439	3.205	3.317	2.796	2.585	2.529	2.227	2.158	1.962	1.815	1.750	1.670	1.571	1.439	1.362	1.180	1.101	1.066	1.057	0.937	0.896	1.007	1.363	1.579	1.441	0.898	0.708	0.670	0.567	0.655	0.619	0.762	1.063	0.813	0.554	0.492	0.520	0.522	0.589	0.656	1.964	8.538	30.63	51.90	30.84	3.658
595.0	19.34	28.42	29.71	22.94	22.44	18.54	23.00	26.36	31.83	66.10	86.75	37.82	28.89	32.89	156.5	659.1	91.68	6.179	4.546	4.164	3.450	3.783	3.360	3.386	3.262	3.524	3.437	3.004	3.225	3.196	3.046	2.798	2.695	2.507	2.106	2.107	2.019	1.856	1.638	1.720	1.555	1.514	1.360	1.350	1.258	1.172	1.103	1.038	0.851	0.861	0.783	0.826	0.830	0.869	1.234	1.454	1.102	0.727	0.535	0.519	0.632	0.555	0.531	0.644	0.920	0.665	0.462	0.504	0.431	0.520	0.475	0.777	2.175	7.096	15.46	45.77	31.67
600.0	21.17	25.36	26.29	23.83	25.04	22.79	25.36	26.74	33.09	53.04	100.3	53.39	35.17	28.54	53.48	421.6	386.3	12.39	4.460	3.837	3.178	3.066	3.004	2.747	2.688	2.604	3.084	2.748	2.618	2.703	2.532	2.396	2.241	2.088	1.833	1.982	1.849	1.690	1.498	1.380	1.279	1.312	1.245	1.132	1.035	1.045	0.904	0.864	0.809	0.765	0.653	0.753	0.682	0.655	0.899	1.292	1.073	0.818	0.552	0.478	0.521	0.563	0.486	0.525	0.785	0.894	0.648	0.546	0.457	0.483	0.474	0.483	0.775	1.900	3.785	17.07	46.67
605.0	22.19	29.58	31.18	28.89	31.44	27.05	31.34	39.99	47.20	60.85	114.0	90.53	56.33	43.44	41.26	173.4	588.0	56.00	4.708	3.276	2.766	2.631	2.610	2.463	2.396	2.291	2.551	2.356	2.225	2.253	2.330	1.982	2.080	1.794	1.693	1.603	1.326	1.453	1.320	1.300	1.131	1.093	0.997	1.042	0.861	0.913	0.820	0.848	0.802	0.643	0.595	0.652	0.606	0.695	0.631	0.942	1.282	1.053	0.651	0.513	0.590	0.558	0.605	0.515	0.664	0.850	0.897	0.665	0.537	0.576	0.471	0.569	0.459	0.877	1.266	4.267	20.43
610.0	23.99	33.91	39.47	39.96	35.75	37.23	51.47	65.27	82.56	109.8	145.1	169.3	117.9	87.62	75.18	91.75	410.0	317.8	11.66	3.116	2.623	2.310	2.075	2.084	2.030	1.914	2.073	1.915	1.809	1.997	1.982	1.666	1.646	1.489	1.409	1.363	1.227	1.155	1.109	1.096	0.988	0.896	0.908	0.885	0.787	0.749	0.778	0.697	0.696	0.659	0.625	0.629	0.573	0.612	0.535	0.670	1.016	1.079	0.895	0.677	0.730	0.688	0.806	0.778	0.803	0.880	1.056	1.118	0.918	0.828	0.698	0.683	0.729	0.771	0.825	1.421	5.161
615.0	24.82	34.85	43.91	46.43	40.70	45.87	62.61	78.57	98.70	129.5	155.6	199.3	161.5	111.6	96.25	79.24	169.4	465.4	65.00	2.818	2.336	1.826	1.791	1.744	1.769	1.615	1.799	1.666	1.458	1.546	1.582	1.445	1.197	1.243	1.218	1.037	1.084	0.919	0.921	0.811	0.755	0.841	0.776	0.648	0.696	0.592	0.627	0.584	0.587	0.578	0.523	0.524	0.547	0.526	0.534	0.515	0.741	1.015	1.027	0.885	0.771	0.760	0.819	0.846	0.904	0.971	1.089	1.324	1.142	0.910	0.750	0.698	0.813	0.764	0.772	0.901	1.614
620.0	27.12	38.15	45.03	49.31	42.71	45.79	62.25	78.79	94.41	127.3	150.2	178.5	176.2	116.2	97.05	74.90	92.83	331.8	243.6	4.794	2.023	1.558	1.664	1.405	1.583	1.405	1.537	1.296	1.359	1.427	1.384	1.307	1.128	1.010	1.043	0.839	0.925	0.882	0.723	0.749	0.667	0.677	0.712	0.636	0.660	0.525	0.511	0.638	0.581	0.493	0.556	0.549	0.480	0.477	0.517	0.465	0.619	0.783	1.000	0.818	0.792	0.722	0.805	0.768	0.892	0.939	0.913	1.099	1.191	1.022	0.834	0.881	0.817	0.746	0.689	0.777	0.825
625.0	24.34	32.51	51.12	48.46	42.07	48.82	62.94	78.65	92.08	119.0	136.5	163.8	177.0	119.1	98.74	71.65	75.08	151.9	383.6	25.11	2.086	1.427	1.586	1.439	1.208	1.164	1.256	1.155	1.170	1.223	1.211	1.108	1.007	0.901	0.861	0.793	0.759	0.822	0.669	0.670	0.644	0.659	0.628	0.623	0.518	0.502	0.506	0.539	0.490	0.507	0.438	0.525	0.444	0.459	0.481	0.425	0.556	0.755	0.989	0.858	0.902	0.681	0.742	0.791	0.771	0.910	0.895	0.920	1.126	1.173	0.968	0.856	0.778	0.740	0.633	0.671	0.632
630.0	29.11	37.67	51.58	52.75	45.46	49.09	62.05	78.21	88.43	112.4	130.4	149.8	167.4	132.3	97.28	70.58	69.60	66.04	270.8	160.2	4.651	1.508	1.368	1.356	1.130	1.023	1.047	1.040	1.009	1.072	0.990	1.013	0.884	0.772	0.754	0.721	0.675	0.678	0.612	0.566	0.569	0.532	0.543	0.481	0.459	0.467	0.497	0.470	0.562	0.405	0.396	0.475	0.443	0.467	0.444	0.434	0.502	0.595	0.741	0.855	0.937	0.719	0.680	0.793	0.730	0.846	0.851	0.901	0.954	1.067	1.070	0.873	0.716	0.761	0.660	0.598	0.566
635.0	26.58	44.77	59.02	57.07	47.14	49.26	61.72	76.84	88.73	107.0	128.4	144.7	146.2	146.4	101.6	70.63	68.04	43.50	82.73	301.4	43.14	1.598	1.242	1.168	1.050	0.983	0.848	0.921	0.811	0.918	0.783	0.787	0.740	0.628	0.623	0.585	0.523	0.614	0.542	0.580	0.472	0.484	0.424	0.390	0.396	0.421	0.455	0.494	0.460	0.423	0.378	0.423	0.412	0.434	0.380	0.439	0.530	0.563	0.564	0.716	0.756	0.731	0.791	0.759	0.818	0.801	0.834	0.834	0.930	0.963	1.042	0.975	0.774	0.683	0.664	0.668	0.600
640.0	30.60	41.22	56.48	55.00	44.99	52.38	60.27	72.68	84.90	102.2	126.4	142.7	142.4	144.4	110.6	71.10	67.10	39.25	27.01	232.2	152.8	2.581	1.214	1.066	0.827	0.802	0.837	0.834	0.961	0.878	0.832	0.760	0.619	0.577	0.523	0.495	0.487	0.490	0.480	0.450	0.420	0.435	0.397	0.335	0.359	0.378	0.370	0.424	0.422	0.381	0.337	0.426	0.391	0.403	0.445	0.431	0.455	0.474	0.495	0.566	0.657	0.738	0.750	0.747	0.853	0.798	0.880	0.797	0.848	0.819	0.796	0.981	0.890	0.692	0.713	0.643	0.607
645.0	24.90	47.21	57.61	54.36	47.41	51.35	58.18	68.14	78.89	100.8	120.0	137.1	134.4	131.2	114.9	70.14	64.50	38.44	13.93	99.68	264.0	14.16	1.307	0.967	0.801	0.779	0.707	0.747	0.819	0.714	0.738	0.641	0.565	0.566	0.541	0.431	0.498	0.459	0.438	0.388	0.393	0.358	0.335	0.346	0.355	0.384	0.386	0.402	0.381	0.375	0.374	0.365	0.383	0.316	0.342	0.466	0.465	0.492	0.467	0.524	0.569	0.688	0.686	0.768	0.745	0.780	0.797	0.857	0.836	0.808	0.763	0.861	0.945	0.832	0.718	0.598	0.490
650.0	29.35	42.30	51.28	49.36	44.68	44.28	54.46	65.90	71.48	90.32	107.6	124.7	123.7	115.5	111.9	68.63	58.99	34.70	10.42	29.77	255.4	58.08	1.488	1.015	0.847	0.635	0.730	0.737	0.725	0.712	0.665	0.564	0.529	0.553	0.435	0.464	0.520	0.409	0.376	0.394	0.358	0.348	0.343	0.324	0.299	0.336	0.372	0.378	0.329	0.357	0.352	0.364	0.409	0.366	0.380	0.429	0.393	0.479	0.431	0.525	0.554	0.545	0.611	0.665	0.714	0.753	0.655	0.788	0.803	0.802	0.830	0.741	0.797	0.863	0.642	0.586	0.552
