Sample:	'1
File name:	G2025061806±ıƒœ÷ßπµ.FD3
Run date:	'13:42:22, 06/23/2025
Operator:	Administrator
Comment:	'

Instrument
Model:	F-2700 FL Spectrophotometer
Serial number:	23B8-004
ROM Version:	4J14000 07

Instrument parameters
Measurement type:	3-D scan
Data mode:	Fluorescence
EX  Start WL:	220.0 nm
EX  End WL:	600.0 nm
EX Sampling interval:	5.0 nm
EM  Start WL:	230.0 nm
EM  End WL:	650.0 nm
EM Sampling interval:	5.0 nm
Scan speed:	12000 nm/min
EX Slit:	5.0 nm
EM Slit:	5.0 nm
PMT Voltage:	700 V
Response:	Auto 
Corrected spectra:	Off
Contour interval:	50.000

Peak integration
Integration method:	Rectangular
Sensitivity:	1
Threshold:	1.000

Peaks
No.	ApexEX/EM(nm)	Height(Data)
1	225.0/340.0	727.6
2	225.0/385.0	648.5
3	225.0/570.0	57.00
4	230.0/345.0	723.9
5	230.0/405.0	636.2
6	230.0/500.0	309.7
7	235.0/260.0	340.8
8	235.0/510.0	264.7
9	240.0/265.0	431.1
10	240.0/400.0	651.1
11	240.0/525.0	233.4
12	245.0/270.0	474.8
13	245.0/535.0	204.8
14	250.0/275.0	612.9
15	250.0/415.0	616.9
16	250.0/550.0	167.9
17	255.0/280.0	604.3
18	255.0/560.0	139.4
19	260.0/290.0	522.0
20	260.0/575.0	115.1
21	265.0/295.0	619.9
22	265.0/585.0	100.4
23	270.0/300.0	855.8
24	270.0/600.0	86.41
25	275.0/305.0	880.7
26	275.0/340.0	471.0
27	275.0/610.0	69.30
28	280.0/310.0	767.8
29	280.0/625.0	56.45
30	285.0/315.0	723.9
31	285.0/635.0	44.27
32	290.0/325.0	652.8
33	295.0/330.0	497.2
34	300.0/335.0	459.9
35	305.0/345.0	401.9
36	310.0/350.0	343.5
37	315.0/355.0	335.2
38	320.0/360.0	331.4
39	325.0/370.0	308.1
40	325.0/415.0	328.3
41	330.0/375.0	307.0
42	335.0/380.0	308.9
43	340.0/390.0	280.2
44	345.0/395.0	267.1
45	350.0/400.0	264.8
46	355.0/410.0	239.7
47	360.0/415.0	224.9
48	365.0/420.0	221.2
49	425.0/500.0	37.68
50	485.0/265.0	2.169
51	495.0/270.0	2.336
52	505.0/275.0	3.381
53	510.0/280.0	3.648
54	515.0/285.0	3.570
55	530.0/290.0	3.364
56	540.0/295.0	4.364
57	545.0/300.0	4.866
58	550.0/305.0	5.269
59	560.0/310.0	4.332
60	575.0/315.0	4.124
61	580.0/320.0	4.317
62	585.0/325.0	4.374

Data points
	220.0	225.0	230.0	235.0	240.0	245.0	250.0	255.0	260.0	265.0	270.0	275.0	280.0	285.0	290.0	295.0	300.0	305.0	310.0	315.0	320.0	325.0	330.0	335.0	340.0	345.0	350.0	355.0	360.0	365.0	370.0	375.0	380.0	385.0	390.0	395.0	400.0	405.0	410.0	415.0	420.0	425.0	430.0	435.0	440.0	445.0	450.0	455.0	460.0	465.0	470.0	475.0	480.0	485.0	490.0	495.0	500.0	505.0	510.0	515.0	520.0	525.0	530.0	535.0	540.0	545.0	550.0	555.0	560.0	565.0	570.0	575.0	580.0	585.0	590.0	595.0	600.0
230.0	92.47	1113	1686	356.1	14.05	6.359	4.829	4.406	3.875	3.584	2.938	2.723	2.532	2.102	1.637	1.520	1.342	1.194	1.147	1.002	0.959	0.829	0.719	0.790	0.669	0.708	0.646	0.554	0.575	0.612	0.565	0.567	0.495	0.434	0.437	0.444	0.413	0.410	0.555	0.419	0.557	0.673	0.557	0.435	0.384	0.405	1.590	4.831	5.982	3.395	1.088	0.354	0.264	0.268	0.275	0.283	0.260	0.272	0.262	0.274	0.287	0.286	0.278	0.264	0.246	0.287	0.276	0.301	0.292	0.294	0.256	0.318	0.279	0.294	0.292	0.310	0.279
235.0	132.8	337.6	1332	1689	403.4	19.61	4.989	5.118	3.992	3.434	3.042	2.720	2.777	2.060	1.749	1.616	1.249	1.432	1.151	1.043	0.850	0.798	0.679	0.692	0.743	0.687	0.602	0.597	0.484	0.553	0.542	0.591	0.536	0.443	0.435	0.431	0.417	0.446	0.541	0.418	0.395	0.473	0.571	0.699	0.602	0.461	0.580	1.515	2.986	4.686	5.855	5.437	2.153	0.536	0.273	0.296	0.327	0.234	0.276	0.304	0.248	0.273	0.282	0.252	0.281	0.246	0.276	0.236	0.279	0.318	0.324	0.262	0.246	0.303	0.259	0.364	0.355
240.0	219.2	155.7	468.4	1792	1737	292.7	10.54	5.408	4.450	3.933	3.714	3.161	2.440	2.357	1.815	1.524	1.565	1.131	1.118	1.171	0.865	0.912	0.673	0.699	0.669	0.591	0.679	0.580	0.584	0.598	0.609	0.617	0.452	0.456	0.410	0.388	0.429	0.440	0.493	0.347	0.412	0.419	0.438	0.685	0.759	0.742	0.539	0.573	0.979	1.662	3.890	8.490	8.936	5.106	1.631	0.356	0.315	0.271	0.357	0.302	0.274	0.324	0.304	0.325	0.263	0.236	0.266	0.303	0.310	0.240	0.356	0.287	0.307	0.296	0.271	0.414	0.365
245.0	180.5	236.8	165.9	725.2	2271	1618	191.2	7.357	6.042	3.649	3.439	3.212	2.998	2.443	2.083	1.562	1.488	1.164	1.155	1.108	0.894	0.868	0.753	0.734	0.726	0.683	0.794	0.585	0.606	0.567	0.633	0.570	0.501	0.433	0.434	0.417	0.377	0.454	0.581	0.402	0.428	0.385	0.340	0.425	0.560	0.861	0.859	0.844	0.538	0.571	1.163	3.436	7.439	11.53	9.696	4.469	1.166	0.347	0.356	0.350	0.292	0.285	0.299	0.280	0.277	0.245	0.276	0.293	0.315	0.294	0.269	0.286	0.390	0.279	0.262	0.369	0.290
250.0	79.47	213.7	252.2	239.9	830.3	2061	2182	639.0	29.20	4.896	4.401	3.782	3.175	2.575	2.133	1.714	1.456	1.403	1.269	1.047	0.926	0.917	0.847	0.761	0.803	0.693	0.732	0.636	0.614	0.618	0.582	0.574	0.470	0.533	0.450	0.455	0.405	0.429	0.555	0.429	0.453	0.402	0.330	0.366	0.394	0.511	0.691	0.919	0.996	0.863	0.669	1.058	2.081	4.324	7.024	10.38	12.35	10.14	5.009	1.379	0.335	0.292	0.286	0.280	0.268	0.275	0.260	0.336	0.323	0.320	0.286	0.293	0.325	0.278	0.306	0.340	0.302
255.0	45.93	78.32	233.9	328.9	266.3	589.7	2198	2868	291.6	24.67	5.453	4.953	3.507	2.710	2.317	1.928	1.706	1.349	1.266	1.151	1.040	0.873	0.849	0.725	0.774	0.873	0.665	0.592	0.686	0.657	0.575	0.600	0.444	0.444	0.416	0.499	0.415	0.405	0.518	0.436	0.436	0.529	0.380	0.383	0.324	0.423	0.466	0.489	0.616	1.129	1.402	1.179	1.069	1.293	1.868	2.831	5.528	12.50	20.20	17.00	7.025	1.314	0.402	0.286	0.297	0.315	0.297	0.331	0.268	0.330	0.304	0.261	0.340	0.287	0.307	0.387	0.331
260.0	36.27	37.24	100.9	340.8	307.7	199.2	770.7	3216	2367	231.7	12.90	6.204	4.015	3.473	2.452	2.215	1.528	1.431	1.172	1.052	1.117	0.900	0.811	0.679	0.871	0.700	0.700	0.690	0.631	0.643	0.562	0.676	0.513	0.461	0.442	0.478	0.439	0.410	0.483	0.509	0.412	0.487	0.423	0.351	0.392	0.341	0.410	0.384	0.425	0.584	1.100	1.692	1.673	1.116	0.879	1.008	1.686	3.800	9.943	19.69	24.69	16.64	5.346	0.663	0.311	0.298	0.305	0.315	0.285	0.313	0.326	0.296	0.308	0.303	0.326	0.360	0.382
265.0	41.11	28.78	39.78	190.4	431.1	245.0	242.4	1276	4212	2028	169.0	8.268	5.231	3.917	3.412	2.107	1.947	1.398	1.314	1.189	1.153	1.132	1.117	0.706	0.764	0.802	0.698	0.639	0.670	0.734	0.593	0.583	0.507	0.515	0.442	0.413	0.431	0.480	0.618	0.482	0.413	0.432	0.432	0.414	0.464	0.413	0.410	0.309	0.331	0.320	0.536	1.138	1.948	2.169	1.495	0.804	0.876	1.350	2.730	6.640	16.51	27.19	27.42	13.54	2.874	0.376	0.303	0.325	0.355	0.334	0.355	0.324	0.301	0.354	0.314	0.345	0.363
270.0	44.77	30.09	31.75	81.20	275.1	474.8	310.3	369.9	1520	3799	3810	701.7	30.54	5.637	4.036	2.791	2.372	1.939	1.707	1.412	1.253	1.200	1.064	0.974	0.881	0.824	0.854	0.712	0.764	0.803	0.689	0.610	0.622	0.617	0.552	0.502	0.460	0.456	0.591	0.452	0.423	0.404	0.428	0.454	0.433	0.458	0.386	0.365	0.393	0.372	0.360	0.629	0.936	1.545	2.189	2.336	2.114	1.341	1.182	1.951	4.285	8.545	15.42	23.19	26.57	20.31	11.43	2.890	0.495	0.330	0.320	0.369	0.299	0.363	0.332	0.364	0.362
275.0	80.66	56.48	46.67	62.15	143.7	321.8	612.9	333.7	394.3	1022	3650	6468	905.2	22.67	5.748	3.680	2.888	2.094	1.732	1.349	1.442	1.228	1.395	1.094	0.788	0.878	0.734	0.764	0.732	0.898	0.771	0.769	0.698	0.674	0.624	0.617	0.542	0.492	0.787	0.491	0.550	0.443	0.493	0.464	0.483	0.515	0.395	0.461	0.416	0.376	0.354	0.488	0.582	0.836	1.130	1.664	3.034	3.381	2.395	1.229	1.459	2.299	3.796	5.720	8.888	19.80	36.84	30.59	16.36	2.576	0.453	0.411	0.369	0.347	0.376	0.366	0.383
280.0	113.1	99.48	66.98	69.15	111.4	203.6	464.6	604.3	226.5	279.7	1126	5551	5922	140.4	11.40	4.774	3.529	2.514	2.184	1.887	1.506	1.476	1.505	1.033	0.915	0.954	0.757	0.813	0.801	0.951	0.828	0.696	0.733	0.683	0.681	0.642	0.651	0.648	0.775	0.523	0.516	0.464	0.533	0.525	0.544	0.601	0.496	0.572	0.469	0.458	0.383	0.465	0.514	0.670	0.868	0.969	1.825	2.845	3.648	2.854	1.574	1.079	1.351	1.688	2.459	5.451	13.98	29.61	43.11	28.33	11.22	1.350	0.343	0.375	0.389	0.338	0.377
285.0	154.6	143.1	98.41	80.12	102.3	151.3	251.9	603.1	339.3	148.5	318.8	1821	6575	4686	100.3	7.545	4.466	3.239	2.675	2.025	1.635	1.505	1.421	0.993	1.007	0.996	0.911	0.779	0.730	0.818	0.684	0.718	0.693	0.849	0.828	0.684	0.725	0.747	0.960	0.730	0.568	0.565	0.554	0.743	0.560	0.675	0.562	0.667	0.515	0.510	0.467	0.545	0.612	0.635	0.829	0.771	1.065	1.368	2.267	3.570	3.534	2.006	0.998	0.871	1.118	1.801	3.663	8.597	19.91	37.02	44.61	23.58	6.188	0.645	0.425	0.373	0.406
290.0	222.0	216.3	139.9	102.0	102.4	126.2	156.6	277.1	522.0	456.2	210.2	514.7	2026	4854	4786	425.8	20.78	4.505	3.423	2.415	1.825	1.788	1.422	1.343	1.114	1.012	1.002	0.943	0.852	0.907	0.778	0.781	0.760	0.791	0.849	0.865	0.890	0.817	0.987	0.812	0.634	0.661	0.647	0.696	0.719	0.765	0.678	0.772	0.659	0.615	0.509	0.569	0.656	0.598	0.731	0.783	0.833	0.934	1.107	1.533	2.290	3.082	3.364	2.550	1.368	1.155	1.534	2.626	5.234	10.17	18.82	27.99	29.74	32.07	16.01	5.725	0.760
295.0	276.3	270.4	204.9	140.7	104.6	123.5	130.2	156.8	256.7	619.9	582.8	289.7	584.0	1239	3376	5928	589.7	16.05	4.493	3.010	2.177	2.102	1.608	1.311	1.074	1.151	1.072	1.069	0.906	0.883	0.650	0.803	0.823	0.794	0.932	0.974	0.963	0.899	1.117	0.813	0.775	0.742	0.810	0.846	0.742	0.827	0.878	0.825	0.784	0.728	0.635	0.609	0.561	0.682	0.810	0.766	0.770	0.923	0.795	1.026	1.139	1.455	2.216	4.046	4.364	2.670	1.437	1.509	2.088	3.077	5.001	7.140	8.417	17.57	35.42	45.16	24.61
300.0	303.9	298.8	244.6	161.1	120.9	129.2	142.8	155.8	195.4	404.9	855.8	484.2	291.9	403.2	970.6	4534	5139	85.61	8.858	4.101	2.807	2.832	1.937	1.560	1.313	1.129	1.091	1.168	0.989	1.044	0.856	0.672	0.756	1.015	1.026	0.987	1.236	1.139	1.258	0.854	0.827	0.730	0.808	0.960	0.780	0.853	1.035	0.955	0.875	0.785	0.709	0.696	0.740	0.805	0.735	0.939	0.751	0.931	0.954	1.014	1.011	1.132	1.424	2.209	3.818	4.866	3.838	2.082	1.519	1.769	1.938	2.452	2.622	4.757	11.27	25.77	43.71
305.0	360.3	329.4	275.2	192.4	145.9	153.7	166.8	188.8	224.3	330.7	676.2	880.7	378.5	261.0	328.0	1388	5233	4015	67.73	5.884	3.791	3.156	2.022	1.468	1.437	1.421	1.343	1.068	1.074	0.948	0.923	0.859	0.758	0.966	1.181	1.026	1.180	1.020	1.424	1.060	0.907	0.882	0.847	0.942	0.909	1.109	1.140	1.150	0.941	0.883	0.735	0.766	0.801	0.827	0.787	0.947	1.003	0.955	1.126	1.133	1.312	1.261	1.538	1.757	2.327	3.584	5.269	4.580	3.073	1.757	1.571	1.745	1.677	1.904	3.233	6.738	15.67
310.0	369.9	368.8	319.5	222.9	179.4	185.6	197.6	226.3	259.8	326.1	456.3	739.5	767.8	369.8	221.4	402.1	1538	3794	3907	299.6	17.47	4.632	2.510	2.193	1.698	1.563	1.362	1.204	1.054	0.964	1.030	0.846	0.859	1.022	1.076	1.081	1.266	1.087	1.393	1.073	0.894	0.893	0.917	1.047	0.909	1.131	1.188	1.198	1.032	0.884	0.851	0.893	0.929	0.980	0.903	1.029	1.129	1.163	1.283	1.343	1.404	1.451	1.686	1.763	2.141	2.384	3.008	3.719	4.332	4.209	2.959	1.979	1.468	1.378	1.647	2.287	4.288
315.0	407.6	397.4	339.3	259.2	211.1	212.7	231.8	262.9	290.2	341.9	405.6	506.4	669.1	723.9	294.1	203.4	423.8	927.5	2501	4451	467.1	18.61	3.623	2.869	2.200	1.527	1.584	1.292	1.236	0.936	1.098	0.883	0.973	0.998	1.051	1.089	1.132	1.188	1.407	0.934	0.923	0.911	0.919	1.006	1.001	1.316	1.103	1.347	1.074	1.008	0.850	0.989	0.989	1.102	1.035	1.082	1.221	1.241	1.395	1.343	1.428	1.539	1.854	1.798	1.927	2.172	2.338	2.552	2.895	3.383	4.082	4.124	2.656	1.647	1.390	1.405	1.802
320.0	444.1	479.7	405.6	296.8	232.1	232.1	261.6	281.9	301.4	351.5	413.0	456.0	502.7	706.9	529.7	199.5	190.4	267.0	670.6	3278	3978	376.8	7.770	3.508	2.749	1.999	1.696	1.422	1.183	1.275	1.134	0.924	0.973	1.043	0.905	1.154	1.095	1.146	1.306	0.992	1.014	0.991	1.074	1.084	1.038	1.282	1.287	1.501	1.182	1.079	1.067	1.102	1.144	1.184	1.191	1.058	1.349	1.446	1.492	1.467	1.510	1.771	1.742	1.773	1.949	2.237	2.138	2.255	2.458	2.461	2.859	3.928	4.317	3.298	1.877	1.396	1.251
325.0	498.8	563.9	514.0	356.8	262.2	254.6	274.5	289.1	323.2	367.7	416.9	452.7	453.1	513.9	652.8	332.1	159.4	131.4	193.1	937.2	3817	3848	56.10	5.528	3.264	2.252	1.810	1.683	1.309	1.245	1.240	1.062	0.986	0.910	0.976	1.007	1.147	0.980	1.397	0.957	1.007	1.042	1.005	1.107	1.287	1.454	1.502	1.754	1.528	1.350	1.249	1.326	1.081	1.205	1.240	1.207	1.483	1.401	1.555	1.480	1.486	1.826	1.773	1.867	2.034	2.031	2.175	2.251	2.456	2.560	2.394	2.627	3.426	4.374	3.685	2.223	1.342
330.0	551.3	630.4	613.5	450.9	322.2	278.7	287.3	305.3	329.0	369.3	421.5	461.4	452.7	427.7	474.8	497.2	284.6	127.3	102.8	251.1	1085	4507	3182	842.7	15.87	3.004	2.366	1.830	1.559	1.367	1.315	1.104	1.006	1.006	1.034	0.997	1.106	0.987	1.489	1.029	1.032	1.047	1.041	1.086	1.338	1.405	1.682	1.818	1.868	1.701	1.486	1.660	1.373	1.322	1.363	1.283	1.485	1.500	1.699	1.563	1.633	1.836	1.980	1.832	2.135	2.118	2.238	2.351	2.372	2.392	2.353	2.427	2.492	2.882	3.254	3.258	2.962
335.0	575.8	680.7	662.5	539.9	375.2	307.1	305.8	315.8	340.7	382.0	430.9	470.9	468.0	423.5	378.2	377.8	459.9	238.1	107.2	115.1	283.4	1074	1982	3753	402.3	15.88	3.220	2.269	1.874	1.513	1.611	1.156	1.010	1.066	1.047	0.988	1.025	1.088	1.517	1.025	1.090	1.145	1.105	1.148	1.327	1.580	1.841	2.040	2.062	1.784	1.508	1.681	1.500	1.661	1.481	1.227	1.489	1.607	1.670	1.769	1.598	1.707	1.944	1.840	1.968	2.176	2.228	2.322	2.404	2.396	2.434	2.475	2.273	2.276	2.448	2.400	2.683
340.0	578.7	727.6	713.2	574.7	410.2	331.3	310.3	324.3	352.7	390.6	435.9	471.0	469.9	431.7	370.1	317.6	391.8	389.7	158.5	99.08	117.4	279.4	526.4	2724	3324	319.7	7.408	2.982	2.176	1.752	1.428	1.394	1.001	1.115	1.002	1.012	1.033	1.113	1.691	1.001	0.974	1.036	1.032	1.209	1.326	1.615	1.647	2.000	2.102	1.867	1.775	1.806	1.654	1.647	1.581	1.417	1.528	1.548	1.718	1.644	1.724	1.660	1.965	1.837	2.129	2.106	2.209	2.361	2.392	2.474	2.360	2.446	2.340	2.127	2.097	2.094	2.244
345.0	582.8	723.0	723.9	593.7	436.7	354.9	325.9	339.5	347.2	392.5	432.8	465.9	468.6	431.6	374.5	308.5	300.1	401.9	284.2	120.6	90.89	112.7	152.7	778.1	3208	2833	50.36	4.358	2.583	2.032	1.569	1.322	1.139	1.159	1.103	1.093	1.115	1.098	1.439	1.046	0.920	1.057	1.056	1.251	1.373	1.515	1.745	2.068	2.100	2.052	1.819	2.021	1.840	1.739	1.534	1.421	1.484	1.631	1.932	1.559	1.689	1.877	1.867	1.893	2.101	2.160	2.243	2.440	2.301	2.484	2.537	2.519	2.392	2.167	2.257	2.160	2.135
350.0	565.6	664.8	689.6	594.4	469.9	396.4	365.2	364.0	371.5	403.4	434.1	462.7	464.1	431.8	383.4	322.0	281.5	293.0	343.5	245.2	121.7	95.43	86.23	212.1	912.5	2402	2603	698.2	14.72	2.858	1.834	1.527	1.402	1.229	1.086	1.033	1.069	1.063	1.644	0.973	0.939	1.079	1.110	1.226	1.357	1.612	1.657	1.969	2.002	1.981	1.764	2.039	1.940	1.805	1.660	1.699	1.666	1.737	1.833	1.787	1.805	1.931	1.896	2.015	2.110	2.131	2.113	2.244	2.374	2.485	2.409	2.500	2.217	2.272	2.144	2.260	2.012
355.0	552.3	632.3	684.3	586.2	510.5	430.6	402.4	398.0	407.2	426.1	448.0	463.5	467.3	441.9	398.4	342.0	301.9	269.6	269.0	335.2	235.5	125.0	94.39	102.6	243.2	579.8	1638	3220	365.6	15.58	2.486	1.902	1.643	1.342	1.148	1.120	1.194	0.990	1.498	1.005	0.896	1.066	1.130	1.153	1.469	1.631	1.633	1.955	1.860	1.752	1.930	2.179	2.056	2.085	1.800	1.859	1.922	1.918	1.787	1.780	1.910	2.041	2.099	2.224	2.108	2.371	2.267	2.267	2.157	2.582	2.377	2.694	2.471	2.241	2.332	2.363	2.205
360.0	576.4	630.0	667.4	589.9	531.9	467.5	438.1	433.6	436.8	446.1	460.5	470.0	468.5	452.1	408.6	363.0	316.3	280.4	255.4	290.3	331.4	185.1	114.2	95.29	106.2	166.7	439.3	2270	2932	296.5	6.533	2.436	1.786	1.574	1.238	1.156	1.053	0.944	1.769	1.033	0.996	1.120	1.103	1.178	1.341	1.508	1.560	1.719	1.916	1.811	1.754	2.128	2.054	2.138	1.918	2.012	2.017	2.059	2.171	1.983	2.116	2.288	2.040	2.450	2.316	2.514	2.195	2.401	2.159	2.417	2.419	2.679	2.454	2.370	2.493	2.435	2.410
365.0	539.8	623.9	663.2	601.9	552.3	500.8	468.7	467.2	466.3	470.2	471.4	477.1	475.7	457.8	416.0	375.7	335.1	295.0	264.2	255.3	320.2	283.4	150.8	109.8	89.95	85.90	132.1	659.7	2768	2488	46.94	3.671	2.241	1.858	1.439	1.141	1.060	0.989	1.661	1.103	1.045	0.999	1.035	1.111	1.321	1.469	1.489	1.787	1.844	1.678	1.685	2.125	2.213	2.208	1.999	2.111	2.053	2.247	2.260	2.162	2.294	2.615	2.301	2.218	2.162	2.303	2.340	2.246	2.277	2.298	2.487	2.763	2.433	2.485	2.422	2.366	2.351
370.0	522.5	596.6	653.6	615.1	577.3	528.9	504.3	489.5	491.2	492.1	494.4	490.1	478.2	456.0	423.6	382.9	351.5	321.4	289.1	262.5	268.1	308.1	257.9	152.4	110.1	86.50	79.31	182.9	795.0	2161	2299	200.2	13.07	2.354	1.735	1.399	1.266	1.028	1.697	1.129	1.053	1.077	1.169	1.218	1.383	1.461	1.552	1.744	1.825	1.673	1.788	2.233	2.133	2.316	2.161	2.250	2.328	2.184	2.351	2.294	2.289	2.364	2.374	2.322	2.384	2.332	2.428	2.316	2.498	2.500	2.605	2.685	2.568	2.514	2.499	2.373	2.410
375.0	517.5	612.2	654.0	619.2	597.0	556.6	539.0	519.6	519.7	515.2	504.6	501.3	484.3	465.1	428.2	393.2	366.8	339.9	312.0	287.1	267.2	266.7	307.0	251.1	145.9	108.7	84.46	89.49	211.7	523.5	1507	2682	314.6	12.01	2.220	1.762	1.309	1.242	2.093	1.210	1.073	1.109	1.231	1.273	1.367	1.462	1.596	1.601	1.852	1.717	1.840	2.303	2.362	2.117	2.214	2.310	2.490	2.292	2.474	2.483	2.398	2.458	2.306	2.436	2.382	2.430	2.469	2.376	2.320	2.466	2.431	2.601	2.499	2.587	2.684	2.611	2.525
380.0	528.3	606.6	632.7	622.5	613.0	580.6	560.2	545.1	535.5	535.4	519.2	505.0	485.9	467.1	438.0	400.2	372.6	352.3	327.9	301.5	281.6	265.2	274.1	308.9	203.4	130.7	102.4	81.24	91.35	148.0	408.1	1991	2345	236.2	4.885	2.110	1.686	1.464	2.284	1.171	0.971	1.028	1.165	1.225	1.311	1.639	1.607	1.756	1.753	1.946	1.874	2.378	2.275	2.303	2.320	2.329	2.562	2.392	2.563	2.463	2.788	2.524	2.399	2.459	2.531	2.416	2.474	2.340	2.650	2.505	2.220	2.576	2.673	2.610	2.558	2.513	2.637
385.0	537.6	648.5	640.1	638.8	608.2	597.8	578.5	560.7	544.6	546.0	522.1	511.9	485.0	462.2	431.8	402.3	381.3	362.4	339.2	316.1	291.1	275.4	256.6	292.0	274.8	163.6	116.3	92.13	75.12	71.76	119.5	584.0	2218	1830	37.56	3.054	1.948	1.636	2.601	1.261	1.131	1.011	1.214	1.265	1.447	1.601	1.641	1.790	1.756	1.753	1.897	2.296	2.211	2.375	2.460	2.416	2.493	2.420	2.558	2.472	2.617	2.521	2.414	2.444	2.424	2.595	2.444	2.394	2.396	2.543	2.603	2.442	2.798	2.712	2.605	2.544	2.685
390.0	536.7	619.3	637.6	637.7	632.0	609.6	593.0	582.8	558.2	549.5	531.6	515.1	487.3	461.9	433.9	402.0	383.5	366.2	347.3	327.5	307.9	286.4	266.5	259.1	280.2	243.8	158.0	114.4	90.41	70.64	65.55	157.1	642.0	1609	1617	156.7	10.17	2.163	3.577	1.305	1.316	1.117	1.311	1.176	1.340	1.596	1.603	1.842	1.824	1.807	1.840	2.274	2.363	2.354	2.425	2.463	2.589	2.515	2.578	2.503	2.606	2.548	2.563	2.720	2.537	2.516	2.522	2.588	2.493	2.523	2.445	2.572	2.713	2.630	2.614	2.572	2.690
395.0	550.8	613.0	630.4	632.3	638.9	623.4	606.8	579.3	571.3	555.9	537.0	518.2	487.1	462.1	434.6	406.2	382.4	370.0	352.9	329.5	319.4	303.7	280.6	255.5	249.9	267.1	228.9	146.5	111.4	85.58	67.70	71.59	168.2	390.6	1116	1896	249.2	8.291	5.113	1.541	1.330	1.236	1.266	1.369	1.370	1.395	1.480	1.849	1.851	1.768	1.947	2.329	2.313	2.357	2.468	2.445	2.718	2.641	2.622	2.747	2.800	2.712	2.759	2.888	2.539	2.561	2.447	2.547	2.469	2.335	2.322	2.619	2.438	2.420	2.631	2.389	2.749
400.0	549.2	618.6	628.7	635.3	651.1	622.8	610.9	602.6	573.9	568.7	536.0	513.8	491.5	462.7	437.5	397.7	382.2	368.1	354.0	335.4	323.4	313.3	285.5	266.0	245.5	244.7	264.8	193.2	130.6	103.6	78.08	60.88	69.66	109.3	309.5	1446	1623	37.91	9.982	1.730	1.630	1.470	1.418	1.288	1.468	1.435	1.540	1.773	1.756	1.693	1.878	2.244	2.337	2.355	2.471	2.494	2.724	2.685	2.657	2.650	2.619	2.526	2.805	2.873	2.572	2.596	2.541	2.634	2.621	2.467	2.280	2.530	2.563	2.441	2.422	2.665	2.657
405.0	546.3	601.1	636.2	634.8	625.6	625.4	611.3	602.5	580.1	563.9	538.8	516.3	493.3	460.4	427.4	392.7	379.0	362.2	350.2	338.5	325.8	319.5	289.5	274.3	251.1	233.9	249.3	237.5	160.8	120.1	91.15	67.23	55.43	51.51	88.94	432.2	1586	1250	36.77	2.603	1.856	1.645	1.517	1.455	1.492	1.553	1.524	1.857	1.874	1.637	1.877	2.393	2.280	2.509	2.415	2.413	2.660	2.707	2.708	2.695	2.788	2.601	2.765	2.847	2.624	2.698	2.641	2.486	2.629	2.512	2.358	2.420	2.568	2.446	2.446	2.676	2.655
410.0	526.9	605.0	616.8	633.2	635.6	618.6	608.3	602.0	578.9	579.1	541.7	511.8	482.2	448.4	419.1	386.8	371.6	359.2	344.9	330.4	319.4	328.1	294.8	279.8	257.3	239.2	228.0	239.7	216.9	151.1	109.1	82.39	62.36	47.69	44.94	115.0	464.3	1163	3865	142.6	8.295	1.985	1.667	1.432	1.398	1.586	1.512	1.833	1.872	1.842	1.808	2.201	2.413	2.415	2.320	2.524	2.526	2.882	2.717	2.731	2.827	2.582	2.822	2.607	2.767	2.472	2.602	2.507	2.398	2.482	2.363	2.538	2.507	2.494	2.489	2.589	2.632
415.0	524.5	585.3	607.8	621.4	615.5	609.2	616.9	605.2	585.5	586.2	534.9	511.1	470.2	441.2	404.1	373.6	356.9	344.5	333.3	322.9	312.5	328.3	291.5	278.3	258.6	243.2	224.8	213.8	224.9	201.3	131.7	96.14	72.69	54.44	42.08	48.49	119.6	282.7	3195	1356	214.5	6.776	1.819	1.549	1.675	1.631	1.594	1.752	1.842	1.788	1.858	2.378	2.371	2.432	2.539	2.427	2.606	2.711	2.758	2.847	2.691	2.640	2.726	2.660	2.589	2.498	2.420	2.394	2.488	2.473	2.359	2.362	2.373	2.475	2.383	2.593	2.516
420.0	527.6	568.9	586.9	603.9	601.5	595.7	606.1	594.4	576.9	578.2	532.2	502.0	469.0	426.4	392.4	363.1	344.1	332.7	324.0	311.9	300.5	325.2	284.7	277.2	261.0	240.9	224.3	207.2	205.4	221.2	163.1	107.5	80.18	60.88	46.34	37.84	45.43	76.10	886.8	1037	1199	34.74	3.231	1.993	1.570	1.719	1.667	1.950	1.863	1.664	1.700	2.300	2.362	2.380	2.423	2.559	2.676	2.574	2.673	2.684	2.693	2.815	2.826	2.667	2.843	2.520	2.391	2.251	2.425	2.193	2.358	2.355	2.265	2.354	2.198	2.335	2.417
425.0	509.2	548.1	586.4	572.6	589.7	591.2	595.7	589.5	572.2	578.9	529.2	494.4	457.4	421.0	382.4	354.3	333.1	326.0	312.0	305.4	294.9	314.4	278.8	271.6	255.9	241.2	223.6	206.9	194.3	205.5	192.9	126.1	87.67	67.86	51.47	40.14	32.73	33.01	222.2	312.3	1161	931.3	29.22	2.297	1.764	1.726	1.562	2.075	1.819	1.633	1.799	2.119	2.165	2.429	2.317	2.471	2.626	2.603	2.549	2.526	2.554	2.736	2.719	2.656	2.381	2.390	2.424	2.471	2.434	2.419	2.245	2.513	2.248	2.196	2.105	2.463	2.292
430.0	597.1	530.4	556.5	564.7	576.2	584.5	582.5	579.0	563.4	574.7	526.7	484.4	449.5	406.3	369.9	340.6	319.5	310.4	299.9	293.2	284.8	305.9	272.6	264.5	251.8	238.4	224.0	208.0	192.4	185.6	187.2	161.6	107.7	77.13	59.50	45.87	35.24	27.69	74.62	80.59	337.2	849.8	900.0	131.2	7.841	1.991	1.737	1.863	1.641	1.587	1.633	2.069	2.124	2.285	2.237	2.347	2.590	2.513	2.698	2.463	2.532	2.636	2.675	2.472	2.379	2.525	2.325	2.398	2.394	2.356	2.286	2.318	2.287	2.127	2.118	2.228	2.216
435.0	924.9	523.1	538.2	558.2	567.6	567.9	574.8	579.5	562.7	562.3	514.9	479.2	435.8	394.6	361.6	326.6	306.4	297.5	289.1	278.0	269.9	296.4	262.1	255.5	246.3	235.9	221.9	209.0	197.1	182.2	167.6	164.8	141.4	93.00	66.81	52.13	41.66	30.56	46.05	31.96	85.84	205.7	619.4	1115	202.4	7.013	2.144	1.959	1.883	1.697	1.733	2.056	2.038	2.200	2.432	2.344	2.662	2.332	2.572	2.723	2.544	2.557	2.396	2.457	2.207	2.567	2.191	2.162	2.476	2.207	2.470	2.353	2.189	2.114	2.028	2.040	2.135
440.0	1275	590.0	514.8	537.2	553.4	548.4	561.6	559.1	558.4	565.0	508.8	474.4	426.4	386.4	348.4	314.0	296.3	281.0	275.6	267.6	261.2	288.3	251.9	248.0	239.4	230.1	218.2	209.2	195.7	181.1	163.6	152.5	151.2	113.5	73.74	57.94	45.74	34.64	41.74	23.61	31.32	55.40	171.7	852.7	1040	32.10	3.600	2.301	1.905	1.559	1.741	2.011	2.055	2.108	2.288	2.327	2.478	2.628	2.644	2.579	2.503	2.576	2.664	2.337	2.430	2.557	2.153	2.047	2.243	2.076	2.262	2.244	1.978	2.038	1.957	2.180	2.274
445.0	1495	791.2	504.3	531.2	528.6	536.0	550.1	542.7	549.2	553.5	501.8	463.4	409.0	378.2	335.6	302.5	290.3	271.5	265.3	256.6	250.7	279.0	244.2	238.3	233.7	222.9	216.6	204.3	191.7	180.2	160.4	143.4	141.8	128.1	86.80	61.95	49.31	38.74	43.25	24.34	21.63	23.60	47.03	256.7	995.5	830.6	25.53	2.912	1.974	1.624	1.786	2.016	2.057	1.920	2.171	2.248	2.304	2.528	2.403	2.601	2.597	2.521	2.568	2.617	2.602	2.358	2.303	2.134	2.203	2.294	2.058	2.117	1.958	1.823	1.969	2.047	2.105
450.0	1063	1289	586.3	494.6	497.8	510.4	525.4	524.5	517.1	526.3	482.1	444.7	399.6	357.7	318.5	287.8	270.0	257.9	247.5	240.4	234.3	257.0	227.3	223.6	218.4	211.8	203.5	195.4	185.9	175.4	156.7	139.4	124.6	122.3	106.7	72.75	54.29	43.11	45.28	27.87	22.27	18.78	20.97	66.09	286.9	736.4	804.5	119.2	7.109	1.925	1.878	1.943	1.953	2.100	2.004	2.192	2.158	2.415	2.280	2.455	2.441	2.405	2.467	2.480	2.361	2.332	2.210	2.206	2.105	1.959	1.993	1.999	1.989	1.858	1.838	2.042	1.990
455.0	581.9	1457	995.9	460.9	462.3	473.6	487.2	491.9	486.4	495.8	456.4	416.9	375.0	333.1	296.9	269.0	254.9	236.6	227.9	222.7	215.9	234.6	211.1	203.4	202.7	194.9	188.4	182.9	177.1	168.0	151.8	134.1	117.5	105.8	106.0	91.28	61.12	45.84	46.35	32.10	24.75	20.48	17.09	24.56	71.85	176.6	483.0	911.6	169.0	6.950	2.070	2.091	1.818	2.016	2.012	2.089	2.185	2.199	2.196	2.290	2.445	2.294	2.438	2.227	2.130	2.232	2.123	2.074	2.088	1.878	1.983	2.055	1.892	1.782	1.765	1.781	2.030
460.0	409.3	1102	1463	502.1	439.1	452.6	454.7	471.0	465.4	483.5	430.9	398.8	355.9	312.4	279.0	253.0	235.8	222.2	212.5	205.6	200.8	219.5	196.6	192.2	190.1	184.1	181.2	173.8	167.7	161.2	147.3	129.2	113.1	98.01	92.89	94.96	72.62	49.64	47.69	33.57	26.71	22.58	17.08	16.62	24.70	46.29	127.8	627.5	811.0	123.5	3.976	2.296	1.917	1.889	2.012	2.030	2.021	2.074	2.360	2.050	2.182	2.101	2.164	2.211	2.144	2.223	2.038	1.936	2.082	1.810	1.997	1.884	1.841	1.657	1.643	1.705	1.828
465.0	358.6	695.8	1649	741.8	415.9	416.5	428.4	441.6	443.8	450.9	408.3	376.7	333.8	297.6	261.7	236.1	219.9	211.3	198.3	189.1	185.9	203.0	184.2	178.6	176.9	172.0	167.2	162.7	159.1	152.8	140.6	126.0	109.0	95.07	84.71	86.71	80.38	55.98	48.41	34.39	28.52	23.86	19.11	16.04	14.90	18.29	34.89	179.0	719.5	659.0	21.94	3.040	1.935	2.189	2.001	1.975	1.948	2.032	2.064	2.102	2.374	2.244	2.102	2.129	1.890	2.118	1.882	1.712	1.817	1.817	1.870	1.702	1.690	1.593	1.713	1.526	1.770
470.0	361.9	414.5	1147	1360	482.0	385.6	399.0	403.4	407.5	422.3	378.5	351.3	309.8	271.7	242.9	215.2	198.7	190.6	178.8	172.6	167.4	181.3	164.3	161.1	158.6	157.5	151.1	148.7	146.5	141.2	131.2	116.9	102.4	89.86	79.26	72.79	74.05	65.44	53.09	36.39	29.63	25.78	20.99	17.45	14.15	12.90	15.04	45.94	200.0	501.6	559.6	113.8	8.095	2.178	1.876	1.870	1.895	2.051	2.029	2.005	1.955	2.018	1.903	1.955	1.814	1.963	1.719	1.703	1.712	1.697	1.689	1.659	1.650	1.631	1.540	1.465	1.604
475.0	367.4	336.1	572.5	1507	920.4	354.7	361.7	362.1	367.7	378.8	343.6	319.9	286.4	251.8	219.1	198.4	180.2	170.6	161.7	154.7	148.1	161.8	147.2	144.0	140.9	140.2	136.9	133.9	131.4	128.1	119.3	107.9	95.28	84.73	74.26	65.46	61.64	61.84	60.65	40.53	30.66	26.36	22.40	19.00	15.30	13.22	11.23	16.72	50.08	118.0	274.7	598.2	169.7	9.559	1.967	1.952	1.825	1.843	1.743	1.835	1.746	1.822	1.735	1.904	1.810	1.608	1.683	1.690	1.567	1.590	1.614	1.547	1.504	1.410	1.477	1.370	1.436
480.0	363.0	315.0	356.6	1090	1425	402.6	330.8	339.2	344.8	349.1	328.1	301.5	266.3	232.2	206.7	180.4	166.6	157.2	146.9	142.9	138.0	148.2	133.1	130.8	130.4	129.1	125.7	123.7	121.3	116.8	111.1	100.2	91.98	79.94	71.04	62.42	55.33	54.46	60.34	45.34	32.45	26.24	22.77	19.39	16.09	13.63	11.33	10.59	16.86	30.85	69.90	335.1	592.3	148.7	4.458	2.034	1.965	1.749	1.599	1.919	1.778	1.745	1.689	1.809	1.792	1.571	1.608	1.511	1.468	1.503	1.386	1.446	1.366	1.312	1.357	1.298	1.179
485.0	319.2	327.3	307.9	617.4	1620	580.7	319.2	325.0	329.6	328.0	311.9	286.1	252.7	218.5	193.7	170.5	158.9	147.2	140.2	133.5	128.9	136.6	126.3	124.2	120.5	120.1	117.0	115.6	113.8	109.3	103.6	94.66	86.44	75.82	68.59	59.53	53.10	49.80	54.46	49.29	35.43	27.75	22.65	20.39	16.78	14.48	11.78	9.947	10.30	11.96	19.80	90.24	432.4	556.7	27.12	2.933	1.894	1.840	1.770	1.805	1.846	1.775	1.650	1.765	1.615	1.467	1.630	1.341	1.384	1.554	1.491	1.379	1.361	1.244	1.343	1.261	1.272
490.0	253.6	337.4	280.4	352.9	1084	1296	380.3	295.9	302.1	304.9	285.3	265.1	234.6	201.3	178.2	158.1	145.1	134.4	127.1	121.1	118.2	122.8	112.8	112.4	110.1	108.1	106.6	106.8	104.0	102.6	96.40	88.71	80.31	71.71	64.56	57.35	51.45	46.63	45.83	45.40	41.96	30.94	24.40	20.75	17.84	15.19	13.22	10.55	9.273	8.270	9.126	24.39	113.4	332.3	461.3	120.3	10.65	1.982	1.731	1.697	1.721	1.580	1.606	1.648	1.501	1.405	1.564	1.271	1.384	1.371	1.367	1.392	1.388	1.178	1.190	1.239	1.190
495.0	227.1	309.9	301.6	268.3	490.6	1451	859.2	274.3	276.9	284.3	258.9	243.7	214.0	184.4	163.2	144.6	128.6	122.0	115.9	110.7	105.8	111.5	101.4	99.64	98.81	96.77	95.57	93.97	94.02	93.75	89.62	80.93	72.89	65.54	61.07	54.63	49.85	44.08	41.50	37.48	40.00	35.89	26.33	20.85	18.32	15.51	13.56	11.65	9.717	7.670	7.049	9.905	28.83	77.75	202.9	526.8	210.3	13.43	1.826	1.719	1.669	1.610	1.522	1.510	1.441	1.364	1.464	1.308	1.272	1.412	1.241	1.319	1.259	1.146	1.117	1.185	1.137
500.0	193.2	247.0	309.7	235.5	286.6	1014	1395	328.4	255.0	263.5	236.8	225.3	200.3	171.2	153.0	131.5	121.4	113.3	107.0	100.9	96.26	101.0	92.21	91.01	91.14	87.73	86.45	86.77	85.54	84.66	82.04	74.75	69.27	61.38	55.95	51.24	46.35	41.72	38.76	34.19	34.67	37.68	29.29	22.07	17.85	15.42	13.36	11.63	10.20	8.012	6.989	6.957	10.26	20.73	50.13	254.4	562.1	177.4	7.193	1.898	1.664	1.572	1.361	1.383	1.417	1.234	1.283	1.293	1.131	1.326	1.147	1.306	1.117	1.092	0.967	1.051	1.205
505.0	157.5	200.6	296.5	243.3	229.2	539.0	1585	597.8	231.5	241.3	222.5	209.5	183.8	156.8	140.3	121.1	110.9	104.7	98.49	91.66	88.30	90.60	84.08	82.33	81.92	80.32	79.08	78.18	78.25	79.13	75.31	69.92	64.59	57.86	52.74	47.74	42.52	39.76	36.45	31.08	30.74	32.58	31.93	23.65	18.05	15.26	13.33	11.44	10.37	8.832	7.135	6.485	6.367	8.148	14.40	64.27	325.1	527.7	31.51	3.505	1.501	1.391	1.389	1.433	1.335	1.298	1.234	1.207	1.184	1.188	0.959	1.198	1.047	0.945	0.992	1.101	1.030
510.0	151.7	170.7	238.6	264.7	198.2	273.0	1030	1283	283.7	216.6	203.0	183.0	164.4	144.3	123.8	109.6	99.58	91.79	86.38	82.08	78.20	80.68	74.11	72.75	72.27	72.08	70.13	70.20	69.79	70.02	65.99	61.98	57.19	51.92	47.71	43.25	38.82	35.89	33.74	28.79	27.41	26.66	28.43	26.12	20.18	15.13	13.42	11.29	10.12	8.708	7.636	6.523	5.524	5.382	6.379	17.26	81.04	257.3	371.9	131.1	11.93	1.529	1.398	1.352	1.200	1.151	1.197	1.178	1.105	1.068	1.015	1.094	0.969	0.861	0.881	0.961	0.916
515.0	132.6	149.3	171.9	262.3	206.1	190.4	413.6	1463	763.3	198.1	178.4	165.6	145.0	127.6	110.7	95.00	86.89	81.82	76.98	72.01	69.15	70.26	63.72	64.38	62.72	62.21	61.78	60.69	61.00	60.29	58.55	53.83	50.26	46.12	43.05	38.65	35.20	31.39	30.04	27.05	24.73	22.37	22.25	24.35	22.51	16.65	13.37	11.38	9.796	8.656	7.651	7.086	5.514	4.840	4.615	6.851	20.54	59.68	129.2	371.1	214.2	15.02	1.417	1.253	1.213	1.164	1.081	1.060	0.979	0.949	0.894	1.016	0.891	0.851	0.853	0.920	0.790
520.0	126.8	131.7	141.5	233.4	216.5	162.6	213.9	970.4	1378	253.5	163.1	151.3	132.8	115.7	102.3	88.49	80.34	72.29	68.29	64.66	61.54	61.88	58.07	58.03	56.11	55.92	54.00	54.41	54.71	54.16	51.71	48.52	45.29	41.67	38.90	35.24	31.79	28.87	28.27	25.04	23.00	20.78	19.38	20.57	22.35	18.27	13.18	10.97	9.445	8.010	7.258	6.720	5.740	4.771	4.185	4.305	7.192	15.78	31.43	155.7	400.4	172.1	7.962	1.374	1.199	1.091	1.148	1.000	0.894	0.943	0.799	0.910	0.741	0.812	0.795	0.764	0.887
525.0	116.6	117.4	123.7	187.1	233.4	162.8	164.7	465.2	1664	659.0	150.1	133.3	120.6	105.2	91.88	79.69	72.57	66.70	62.03	57.36	56.48	57.37	52.40	51.65	50.66	50.30	49.16	48.93	50.04	50.05	46.93	43.96	40.92	37.85	34.13	31.64	29.00	27.49	25.23	23.01	21.78	18.96	18.11	17.36	20.14	19.65	14.67	10.55	9.205	7.979	6.951	6.169	5.956	5.290	4.075	3.858	4.206	5.675	9.255	38.33	197.0	380.6	32.48	3.645	1.096	1.035	0.948	0.925	0.864	0.969	0.823	0.865	0.670	0.784	0.810	0.758	0.759
530.0	108.5	108.1	116.5	133.6	214.9	184.6	139.6	214.8	1032	1742	204.0	120.8	105.9	91.99	81.71	70.81	62.78	59.40	54.27	50.34	48.92	49.69	46.10	45.05	43.05	44.35	42.99	43.17	42.28	42.53	40.90	38.20	35.89	32.93	30.40	28.47	25.82	24.36	22.54	20.54	18.93	17.39	16.20	15.35	15.67	16.93	16.05	11.73	8.930	7.429	6.673	5.916	5.452	5.167	4.243	3.730	3.552	3.498	4.072	10.32	47.62	162.0	251.6	129.4	12.14	1.174	0.932	0.841	0.797	0.822	0.874	0.819	0.739	0.726	0.733	0.664	0.790
535.0	98.87	91.05	106.1	102.6	153.8	204.8	133.5	138.3	369.9	1997	713.4	107.9	92.50	79.74	69.85	62.64	54.91	50.86	47.25	43.37	42.89	41.60	39.22	38.58	37.89	37.59	36.30	36.64	35.77	35.75	35.23	33.43	30.28	28.96	26.70	24.08	22.22	21.62	19.79	18.32	16.69	15.30	14.11	13.49	12.80	12.98	14.41	12.83	9.586	7.235	6.150	5.907	4.969	4.711	4.303	4.039	3.086	3.002	2.779	4.038	12.26	37.53	77.64	244.0	196.4	15.09	0.975	0.859	0.731	0.750	0.830	0.810	0.662	0.639	0.640	0.715	0.731
540.0	81.88	81.42	86.87	87.45	117.0	195.9	142.9	110.1	169.9	1291	1364	149.8	82.98	71.60	61.66	56.18	47.89	44.85	41.14	40.29	37.85	36.25	34.78	34.29	33.37	32.73	32.56	32.70	32.18	31.91	31.29	29.37	26.38	25.41	23.52	22.24	20.82	19.19	18.33	16.20	15.01	13.56	12.87	12.27	11.06	11.28	12.00	12.54	9.693	7.159	5.866	5.243	4.689	4.286	4.134	4.082	3.387	2.848	2.591	2.649	4.483	9.759	18.79	91.58	280.2	141.5	7.037	0.852	0.720	0.804	0.662	0.780	0.702	0.639	0.617	0.687	0.580
545.0	70.26	77.65	72.66	79.13	92.73	165.0	160.6	100.4	111.4	568.6	1614	378.2	73.59	64.49	55.84	49.27	43.77	40.30	36.50	34.51	33.15	33.24	30.49	30.79	29.49	29.38	29.49	28.54	28.55	28.22	26.96	25.93	23.96	22.46	21.02	19.31	17.83	16.61	16.36	15.17	13.59	12.53	11.60	10.84	10.27	9.698	9.614	10.66	10.32	7.423	5.612	4.837	4.368	4.221	3.972	3.773	3.581	3.008	2.350	2.289	2.492	3.569	5.459	22.27	123.1	261.6	32.88	3.023	0.798	0.721	0.657	0.782	0.650	0.573	0.548	0.622	0.543
550.0	62.52	70.91	67.38	69.62	76.62	109.0	167.9	101.7	86.69	203.0	921.9	1104	112.5	55.69	47.01	43.21	37.83	33.98	30.91	29.10	28.15	28.00	25.58	25.20	24.74	24.34	23.94	23.83	23.74	23.90	23.23	22.11	20.26	18.60	17.67	16.24	15.36	14.22	13.79	12.78	11.65	10.85	9.762	9.488	8.737	8.358	7.907	8.000	9.065	8.099	5.684	4.494	4.026	3.755	3.369	3.232	3.225	3.110	2.382	2.178	2.040	2.107	2.341	6.087	29.55	105.0	167.3	99.21	10.51	0.822	0.638	0.718	0.629	0.488	0.503	0.553	0.550
555.0	67.90	64.53	61.27	60.00	63.94	77.79	136.5	125.6	73.17	97.98	293.4	1291	477.0	49.33	40.16	33.59	29.75	27.92	25.24	23.61	23.89	23.01	21.87	21.32	20.17	19.96	19.32	19.11	19.41	19.59	18.81	17.76	16.52	15.60	14.16	13.18	12.89	11.79	11.28	10.71	9.625	9.166	8.365	7.890	7.378	6.915	6.771	6.049	6.673	7.001	6.130	4.374	3.472	3.105	3.073	2.690	2.571	2.690	2.596	1.994	1.869	1.502	1.591	2.216	7.431	24.33	50.68	157.2	125.2	11.22	0.697	0.756	0.634	0.545	0.500	0.453	0.522
560.0	61.28	52.15	53.65	53.20	53.64	58.93	101.5	139.4	66.21	66.96	109.3	780.8	1031	69.34	34.90	29.93	25.38	22.98	22.07	20.69	20.44	19.36	17.89	17.64	17.23	17.38	16.27	16.40	16.41	16.30	15.81	14.71	13.89	13.46	12.28	11.71	11.04	10.06	9.634	9.012	8.494	7.400	7.363	6.697	6.656	6.122	5.694	5.232	4.922	5.687	6.107	4.702	3.111	2.889	2.678	2.316	2.232	2.154	2.611	2.162	1.666	1.526	1.423	1.503	2.516	6.262	12.28	57.34	166.8	87.68	4.921	0.812	0.608	0.456	0.457	0.475	0.480
565.0	56.95	53.97	45.50	47.42	44.52	50.50	66.32	135.7	75.00	55.87	63.50	305.3	1301	151.2	30.86	25.87	22.56	20.53	18.78	18.04	16.82	16.66	15.28	14.58	14.58	14.35	13.82	14.08	14.47	14.45	13.97	12.52	12.51	11.32	10.35	9.952	8.930	8.759	8.400	7.641	7.104	6.606	6.492	5.967	5.723	5.402	5.044	4.492	4.306	4.357	5.194	4.790	3.151	2.547	2.431	2.276	2.147	1.904	2.178	2.135	1.621	1.477	1.109	1.266	1.497	2.169	3.512	13.88	71.91	154.6	31.74	4.152	0.661	0.420	0.478	0.492	0.477
570.0	51.17	57.00	45.62	42.41	38.64	42.30	45.46	96.04	99.92	50.61	46.87	104.3	751.2	781.6	55.04	21.67	18.56	17.02	15.70	14.53	13.71	13.77	12.64	12.14	12.21	11.72	11.01	11.34	11.30	11.46	10.91	10.39	10.00	9.453	8.455	7.983	7.497	7.163	6.939	6.121	5.972	5.762	5.379	5.067	4.784	4.412	4.037	3.765	3.691	3.321	3.708	4.203	3.457	2.508	2.102	2.029	1.774	1.737	1.593	1.881	1.771	1.584	1.159	1.140	1.125	1.317	1.476	3.802	17.34	60.07	100.2	261.6	7.933	0.572	0.469	0.456	0.430
575.0	56.09	54.71	41.37	36.61	31.67	34.16	36.86	58.13	115.1	60.00	40.10	50.30	223.6	975.8	300.3	19.49	15.31	13.74	12.08	11.97	11.57	11.04	9.990	9.871	9.889	9.396	9.364	8.977	9.290	9.811	8.767	8.493	8.230	7.456	6.908	6.476	6.319	6.077	5.640	4.931	4.642	4.529	4.419	4.178	3.941	3.760	3.386	3.147	2.710	2.797	2.621	2.909	3.355	2.756	1.977	1.698	1.628	1.553	1.356	1.453	1.606	1.639	1.182	1.010	0.988	0.926	0.951	1.507	4.552	14.11	29.38	485.5	75.51	7.559	0.586	0.505	0.523
580.0	48.63	50.89	39.17	34.04	26.77	30.43	31.36	37.91	95.02	80.03	37.34	37.80	74.95	584.7	712.1	30.25	13.36	11.82	10.93	10.10	9.863	9.654	8.702	8.473	7.859	8.066	7.923	7.966	7.859	8.018	7.734	7.024	6.768	6.420	6.141	5.486	5.069	5.001	4.715	4.048	4.175	3.840	3.739	3.690	3.238	3.096	2.923	2.631	2.232	2.148	2.130	2.019	2.665	2.759	2.129	1.509	1.494	1.328	1.305	1.182	1.210	1.450	1.326	1.026	0.923	0.868	0.850	0.939	1.591	3.700	7.214	182.0	99.49	33.90	3.199	0.445	0.405
585.0	54.43	46.19	39.79	34.39	26.77	28.37	28.44	29.87	63.50	100.4	38.48	32.58	38.96	217.8	915.4	93.76	11.68	10.89	9.683	8.730	8.645	8.309	7.331	7.284	6.979	7.458	6.722	6.985	6.782	7.038	6.554	6.283	5.846	5.299	5.260	4.528	4.729	4.193	3.869	3.716	3.485	3.251	3.176	2.943	2.940	2.710	2.460	2.476	2.227	1.969	1.816	1.696	2.134	2.583	2.194	1.695	1.354	1.316	1.235	1.120	1.107	1.083	1.472	1.210	0.960	0.764	0.853	0.812	0.942	1.457	2.104	42.35	42.09	87.68	27.54	1.340	0.506
590.0	52.01	46.73	33.93	28.49	24.32	24.16	24.39	25.53	39.02	92.45	57.65	30.99	29.12	69.26	528.1	505.0	24.03	9.008	7.999	7.218	6.963	7.048	6.392	5.934	5.663	6.082	5.716	5.765	5.635	5.956	5.219	5.050	4.749	4.442	4.352	3.910	3.932	3.576	3.297	3.163	2.947	2.878	2.716	2.507	2.434	2.349	2.158	2.112	1.858	1.638	1.487	1.509	1.528	1.925	2.026	1.905	1.326	1.121	1.111	0.934	0.953	0.970	1.015	1.253	1.066	0.738	0.673	0.646	0.809	0.831	1.002	10.06	10.08	34.63	60.70	39.02	5.225
595.0	51.10	44.69	32.63	26.47	21.12	20.49	20.18	21.94	29.42	60.34	80.79	32.34	24.41	30.30	151.3	662.5	93.75	8.315	6.839	5.727	5.589	6.047	5.110	5.016	4.731	4.851	4.805	4.430	4.594	4.802	4.030	4.386	3.900	3.767	3.590	3.306	3.053	2.932	2.910	2.659	2.469	2.485	2.262	2.125	2.018	1.851	1.774	1.729	1.631	1.332	1.326	1.120	1.209	1.350	1.627	1.720	1.365	1.019	0.892	0.840	0.895	0.814	0.763	0.873	1.176	0.906	0.740	0.739	0.643	0.682	0.697	2.781	2.544	8.172	17.18	51.02	34.90
600.0	49.24	46.94	32.01	25.58	23.37	21.42	18.29	20.52	25.33	40.62	86.41	39.11	24.68	21.58	45.79	419.4	393.3	12.42	5.663	5.336	4.754	5.577	4.367	4.078	4.116	4.064	3.900	3.882	3.794	3.903	3.499	3.649	3.584	3.222	3.040	2.742	2.787	2.543	2.353	2.181	2.133	2.112	1.922	1.823	1.778	1.650	1.465	1.536	1.323	1.278	1.151	1.177	1.075	1.021	1.281	1.507	1.393	1.138	0.960	0.822	0.737	0.865	0.708	0.701	0.916	1.010	0.753	0.673	0.605	0.535	0.599	1.050	0.960	2.170	4.246	18.20	54.19
605.0	46.58	36.70	33.94	23.91	20.60	19.04	18.57	19.48	23.13	30.93	73.02	52.52	25.61	19.78	20.98	157.1	561.1	51.53	5.454	4.941	4.177	4.933	3.880	3.572	3.433	3.534	3.178	3.356	3.260	3.243	3.044	3.008	2.735	2.738	2.649	2.323	2.444	1.901	1.981	1.902	1.859	1.784	1.870	1.581	1.579	1.500	1.336	1.276	1.208	1.107	1.047	1.089	0.873	0.988	0.914	1.246	1.432	1.205	0.940	0.742	0.675	0.684	0.681	0.645	0.735	0.862	0.977	0.658	0.548	0.547	0.495	0.624	0.553	0.871	1.311	4.491	22.39
610.0	45.45	37.44	31.49	22.73	20.86	17.72	19.98	20.71	23.16	27.16	49.94	69.30	29.15	19.47	15.44	46.44	360.5	287.3	10.91	4.288	3.464	4.089	2.987	3.083	2.971	2.795	2.699	2.771	2.829	2.671	2.572	2.687	2.287	2.309	2.248	2.055	2.086	1.816	1.590	1.579	1.565	1.473	1.459	1.426	1.412	1.261	1.124	1.080	0.976	0.920	0.911	0.919	0.851	0.777	0.786	0.946	1.067	1.083	0.956	0.686	0.635	0.611	0.603	0.642	0.646	0.677	0.885	0.846	0.645	0.622	0.448	0.548	0.444	0.517	0.608	1.300	5.439
615.0	39.98	33.16	28.45	20.44	19.14	18.67	19.76	20.45	21.77	25.69	33.25	66.41	43.81	19.46	14.36	18.14	105.8	430.3	63.43	3.674	3.019	3.491	2.779	2.746	2.696	2.421	2.391	2.147	2.350	2.046	2.047	2.023	1.856	1.969	1.735	1.731	1.754	1.576	1.398	1.436	1.260	1.218	1.156	1.136	1.279	1.023	1.048	0.922	0.828	0.847	0.802	0.776	0.705	0.710	0.601	0.710	0.749	0.852	0.893	0.738	0.608	0.643	0.527	0.586	0.472	0.631	0.614	0.795	0.758	0.569	0.480	0.522	0.410	0.449	0.411	0.598	1.503
620.0	38.19	35.40	29.25	19.87	18.96	17.79	17.78	19.93	20.91	25.13	29.04	52.58	54.93	19.93	12.95	11.52	31.58	303.3	238.7	5.178	2.590	3.289	2.119	2.367	2.280	2.138	2.091	2.191	2.024	1.904	1.785	1.906	1.787	1.577	1.491	1.532	1.578	1.368	1.356	1.191	1.096	1.075	0.951	1.082	1.025	0.971	0.965	0.777	0.747	0.704	0.690	0.593	0.631	0.661	0.582	0.651	0.635	0.711	0.854	0.787	0.678	0.636	0.537	0.566	0.429	0.518	0.599	0.616	0.757	0.620	0.524	0.515	0.356	0.395	0.417	0.465	0.603
625.0	38.91	34.00	25.29	18.63	19.91	16.02	16.93	18.54	20.22	24.02	25.98	37.20	56.45	22.53	12.98	10.30	12.81	122.8	379.3	23.76	2.638	3.448	2.049	2.024	1.868	1.876	1.771	1.771	1.753	1.671	1.648	1.556	1.545	1.472	1.423	1.412	1.349	1.179	1.206	1.242	1.131	0.826	0.865	0.949	0.838	0.769	0.753	0.771	0.577	0.671	0.638	0.551	0.615	0.498	0.540	0.512	0.590	0.691	0.823	0.826	0.734	0.551	0.444	0.480	0.544	0.463	0.521	0.514	0.714	0.648	0.542	0.512	0.394	0.394	0.379	0.428	0.444
630.0	35.42	32.11	26.36	18.46	18.14	16.01	17.03	17.36	19.26	22.25	23.91	27.95	48.04	34.13	13.42	8.834	8.044	34.85	271.2	158.1	4.807	2.991	1.981	2.038	1.568	1.558	1.552	1.466	1.375	1.483	1.444	1.438	1.417	1.200	1.140	1.100	1.147	1.059	1.025	1.002	0.965	0.861	0.719	0.691	0.708	0.703	0.622	0.648	0.570	0.517	0.540	0.506	0.546	0.445	0.485	0.439	0.477	0.584	0.601	0.698	0.642	0.538	0.466	0.461	0.477	0.480	0.458	0.473	0.488	0.567	0.576	0.546	0.371	0.364	0.392	0.377	0.349
635.0	40.59	31.33	27.39	17.21	17.05	14.31	16.25	17.21	17.72	18.89	21.65	23.86	33.64	44.27	15.86	8.977	7.029	11.54	83.52	309.6	41.13	3.339	1.806	1.688	1.419	1.463	1.523	1.228	1.208	1.243	1.315	1.218	1.141	1.131	1.049	0.923	0.828	0.890	0.927	0.923	0.767	0.680	0.619	0.670	0.620	0.595	0.586	0.619	0.570	0.446	0.426	0.424	0.469	0.426	0.407	0.373	0.479	0.477	0.524	0.550	0.647	0.529	0.494	0.392	0.445	0.452	0.394	0.464	0.412	0.451	0.565	0.630	0.452	0.315	0.396	0.354	0.340
640.0	42.77	29.83	28.91	21.39	17.17	15.71	15.69	15.90	18.52	17.76	21.29	21.86	26.33	43.66	21.33	9.124	7.326	6.342	23.22	240.4	147.6	6.350	1.734	1.494	1.354	1.269	1.228	1.171	1.082	1.159	1.102	1.129	1.050	1.008	0.955	0.864	0.855	0.902	0.746	0.747	0.683	0.707	0.599	0.576	0.630	0.606	0.510	0.561	0.570	0.448	0.443	0.396	0.414	0.425	0.397	0.365	0.391	0.459	0.446	0.410	0.557	0.545	0.468	0.369	0.446	0.415	0.394	0.421	0.445	0.520	0.469	0.602	0.610	0.383	0.349	0.349	0.304
645.0	43.01	30.36	25.69	20.61	16.57	15.55	13.59	15.36	16.93	18.51	19.78	22.69	22.76	34.18	28.20	9.639	7.409	5.366	8.313	107.8	262.4	38.99	1.634	1.309	1.346	1.228	1.222	1.197	1.074	1.042	0.950	0.920	1.053	0.888	0.761	0.814	0.760	0.828	0.659	0.614	0.583	0.677	0.555	0.583	0.495	0.562	0.470	0.526	0.489	0.393	0.380	0.395	0.349	0.377	0.419	0.369	0.393	0.453	0.347	0.390	0.409	0.465	0.447	0.377	0.450	0.453	0.340	0.386	0.403	0.390	0.423	0.565	0.601	0.413	0.376	0.325	0.353
650.0	37.72	34.01	27.87	19.04	15.23	15.07	14.69	15.49	16.62	17.52	19.11	21.68	19.76	25.51	31.24	12.01	7.391	5.213	4.636	32.43	265.2	225.4	1.635	1.219	1.165	0.986	1.023	1.148	0.983	0.948	0.945	0.807	0.929	0.772	0.726	0.777	0.708	0.734	0.654	0.628	0.646	0.682	0.524	0.481	0.487	0.547	0.440	0.434	0.357	0.367	0.334	0.402	0.292	0.354	0.393	0.331	0.380	0.374	0.302	0.394	0.376	0.403	0.528	0.478	0.431	0.431	0.389	0.340	0.383	0.400	0.388	0.466	0.565	0.535	0.450	0.353	0.431
