Sample:	'1
File name:	银盘河入淮口.FD3
Run date:	'10:43:31, 04/03/2024
Operator:	Administrator
Comment:	'

Instrument
Model:	F-2700 FL Spectrophotometer
Serial number:	23B8-004
ROM Version:	4J14000 07

Instrument parameters
Measurement type:	3-D scan
Data mode:	Fluorescence
EX  Start WL:	220.0 nm
EX  End WL:	600.0 nm
EX Sampling interval:	5.0 nm
EM  Start WL:	230.0 nm
EM  End WL:	650.0 nm
EM Sampling interval:	5.0 nm
Scan speed:	12000 nm/min
EX Slit:	5.0 nm
EM Slit:	5.0 nm
PMT Voltage:	700 V
Response:	Auto 
Corrected spectra:	Off
Contour interval:	50.000

Peak integration
Integration method:	Rectangular
Sensitivity:	1
Threshold:	1.000

Peaks
No.	ApexEX/EM(nm)	Height(Data)
1	225.0/600.0	86.83
2	225.0/625.0	74.37
3	230.0/325.0	1535
4	230.0/495.0	333.9
5	230.0/640.0	65.26
6	240.0/520.0	236.1
7	245.0/535.0	193.5
8	250.0/545.0	160.1
9	255.0/280.0	541.2
10	255.0/560.0	129.7
11	260.0/285.0	560.0
12	260.0/575.0	107.7
13	265.0/585.0	109.5
14	270.0/300.0	1226
15	270.0/595.0	107.9
16	275.0/305.0	1526
17	275.0/330.0	1542
18	275.0/610.0	103.7
19	280.0/310.0	1542
20	280.0/625.0	95.65
21	285.0/320.0	1529
22	285.0/635.0	75.16
23	310.0/350.0	331.8
24	315.0/355.0	329.1
25	320.0/360.0	325.9
26	325.0/370.0	316.9
27	330.0/375.0	321.1
28	335.0/380.0	323.8
29	340.0/390.0	300.3
30	345.0/395.0	288.2
31	350.0/400.0	285.3
32	355.0/410.0	263.2
33	360.0/415.0	250.0
34	365.0/420.0	241.7
35	430.0/505.0	37.78
36	435.0/510.0	32.60
37	440.0/515.0	29.00
38	455.0/330.0	5.721
39	460.0/325.0	5.622
40	505.0/275.0	3.078
41	515.0/280.0	3.218
42	520.0/285.0	3.593
43	530.0/290.0	4.296
44	540.0/295.0	5.816
45	555.0/305.0	7.656
46	560.0/310.0	7.717
47	570.0/315.0	7.910
48	575.0/320.0	7.268
49	585.0/325.0	6.812

Data points
	220.0	225.0	230.0	235.0	240.0	245.0	250.0	255.0	260.0	265.0	270.0	275.0	280.0	285.0	290.0	295.0	300.0	305.0	310.0	315.0	320.0	325.0	330.0	335.0	340.0	345.0	350.0	355.0	360.0	365.0	370.0	375.0	380.0	385.0	390.0	395.0	400.0	405.0	410.0	415.0	420.0	425.0	430.0	435.0	440.0	445.0	450.0	455.0	460.0	465.0	470.0	475.0	480.0	485.0	490.0	495.0	500.0	505.0	510.0	515.0	520.0	525.0	530.0	535.0	540.0	545.0	550.0	555.0	560.0	565.0	570.0	575.0	580.0	585.0	590.0	595.0	600.0
230.0	56.37	1847	6344	2504	99.55	8.049	6.698	5.412	4.418	4.269	4.401	4.245	3.678	3.411	3.241	2.705	2.498	2.174	2.014	1.899	1.755	1.542	1.533	1.377	1.413	1.279	1.145	1.093	1.122	1.073	0.963	1.007	0.952	0.974	0.840	0.719	0.733	0.649	0.624	0.565	0.628	0.962	0.899	0.634	0.580	0.598	2.483	12.93	24.02	18.26	7.338	1.508	0.448	0.375	0.334	0.305	0.355	0.342	0.284	0.261	0.250	0.233	0.252	0.210	0.171	0.213	0.154	0.152	0.146	0.126	0.119	0.090	0.091	0.080	0.093	0.097	0.080
235.0	159.3	478.4	3103	6333	3006	183.6	9.412	6.717	5.988	5.378	5.141	4.832	4.090	3.841	3.407	2.689	2.617	2.403	2.242	2.039	1.707	1.632	1.509	1.566	1.433	1.265	1.165	1.053	1.216	1.105	0.882	1.023	0.975	0.951	0.857	0.915	0.639	0.668	0.737	0.572	0.522	0.634	0.778	1.004	0.910	0.719	0.981	3.441	8.137	14.43	22.00	24.43	12.91	3.052	0.430	0.367	0.348	0.325	0.284	0.217	0.273	0.243	0.236	0.198	0.183	0.176	0.175	0.132	0.179	0.208	0.131	0.117	0.102	0.077	0.107	0.087	0.055
240.0	180.8	224.9	830.1	4265	7551	2464	96.04	11.12	7.738	7.482	7.088	5.006	4.437	4.476	3.747	3.325	2.815	2.937	2.378	2.181	2.009	1.592	1.535	1.604	1.414	1.396	1.321	1.359	1.167	1.075	1.129	0.941	1.111	0.918	0.863	1.035	0.798	0.752	0.724	0.533	0.639	0.585	0.601	0.740	1.019	1.257	0.936	1.260	2.268	4.050	10.10	27.27	37.20	24.14	10.92	1.489	0.388	0.336	0.358	0.324	0.397	0.229	0.206	0.211	0.216	0.151	0.206	0.165	0.180	0.129	0.149	0.120	0.099	0.101	0.095	0.131	0.078
245.0	118.0	253.9	271.4	1256	6427	8209	460.3	38.23	10.55	9.096	7.634	6.208	4.900	5.142	4.199	3.302	3.188	2.685	2.463	2.439	2.074	1.822	1.548	1.656	1.405	1.308	1.287	1.251	1.169	1.235	1.256	0.978	1.082	0.964	0.903	0.928	0.754	0.770	0.718	0.674	0.652	0.543	0.569	0.566	0.819	1.124	1.261	1.230	1.034	1.265	2.683	8.220	21.77	39.51	44.19	22.16	7.290	0.762	0.325	0.350	0.376	0.326	0.194	0.223	0.270	0.194	0.199	0.170	0.194	0.118	0.136	0.096	0.111	0.084	0.054	0.091	0.082
250.0	47.40	134.7	272.8	391.5	1798	6036	9313	4054	131.7	13.37	11.17	8.904	6.985	5.762	4.815	3.820	3.424	3.172	2.717	2.402	2.084	1.934	1.830	1.795	1.734	1.520	1.412	1.369	1.276	1.381	1.219	1.064	1.079	1.021	0.809	0.936	0.834	0.752	0.757	0.632	0.664	0.619	0.593	0.628	0.543	0.653	0.820	1.058	1.312	1.166	1.240	2.307	5.393	11.65	22.62	33.87	40.87	43.43	17.13	7.295	0.922	0.391	0.303	0.307	0.245	0.224	0.209	0.141	0.218	0.178	0.146	0.165	0.122	0.111	0.145	0.126	0.109
255.0	30.76	46.71	138.1	337.5	514.3	1427	5362	9999.9	2458	159.3	18.17	13.02	9.508	7.744	6.314	4.895	3.980	3.430	2.724	2.600	2.415	2.065	1.908	2.108	1.629	1.690	1.589	1.617	1.467	1.410	1.525	1.043	0.957	1.026	0.803	0.949	0.766	0.837	0.747	0.685	0.632	0.604	0.571	0.595	0.595	0.572	0.576	0.699	0.786	1.074	1.454	1.899	1.942	3.064	5.462	8.099	14.00	35.67	67.48	80.27	26.53	9.342	0.727	0.323	0.349	0.245	0.322	0.159	0.270	0.189	0.171	0.146	0.133	0.092	0.142	0.136	0.153
260.0	24.25	28.99	52.63	230.5	374.9	385.3	1412	8039	9999.9	2050	106.4	18.35	13.39	9.625	7.435	5.353	4.813	3.835	3.368	2.977	3.032	2.168	2.110	2.096	1.870	2.087	1.818	1.430	1.504	1.475	1.425	1.276	1.176	1.028	0.939	0.981	0.864	0.858	0.847	0.664	0.694	0.684	0.581	0.589	0.666	0.536	0.610	0.671	0.523	0.603	0.971	1.861	2.167	1.545	1.689	2.199	3.617	9.094	25.60	64.87	97.18	88.34	22.46	4.692	0.427	0.313	0.346	0.218	0.177	0.177	0.197	0.222	0.155	0.116	0.140	0.105	0.155
265.0	23.23	25.51	29.74	95.63	329.3	299.6	365.8	2351	9999.9	9999.9	1567	46.64	18.22	11.96	8.829	6.883	5.907	4.408	3.719	3.448	3.028	2.635	2.300	2.166	1.939	1.896	1.807	1.555	1.789	1.445	1.409	1.461	1.197	1.103	0.932	0.803	0.873	0.838	0.763	0.763	0.708	0.702	0.664	0.603	0.650	0.622	0.691	0.577	0.502	0.484	0.674	0.939	1.691	2.185	1.743	1.132	1.271	2.447	6.227	17.61	46.03	100.2	122.4	33.50	16.37	1.672	0.418	0.308	0.239	0.229	0.245	0.217	0.217	0.221	0.177	0.182	0.170
270.0	39.53	35.19	31.13	45.53	137.4	329.7	331.5	590.0	2978	9999.9	9999.9	5700	91.57	20.91	13.90	9.831	8.024	6.099	4.797	4.179	3.291	2.969	2.808	2.397	2.276	2.114	2.003	1.913	1.925	1.756	1.723	1.591	1.334	1.283	1.037	0.964	1.012	0.915	0.823	0.766	0.788	0.702	0.785	0.680	0.662	0.722	0.635	0.676	0.521	0.515	0.575	0.600	0.791	1.280	1.844	2.141	1.949	1.500	1.945	4.411	10.90	26.68	52.27	78.18	112.0	91.95	68.89	11.95	2.212	0.499	0.391	0.329	0.275	0.267	0.187	0.212	0.242
275.0	68.85	63.73	55.95	40.40	55.77	126.8	402.7	414.6	720.9	2377	8927	9999.9	8123	107.4	22.77	14.86	11.07	8.114	6.483	5.205	4.336	3.795	3.155	2.680	2.420	2.852	2.318	1.861	2.142	2.111	1.848	1.525	1.444	1.478	1.176	1.208	1.150	1.059	0.789	0.886	0.798	0.896	0.867	0.816	0.876	0.744	0.710	0.793	0.669	0.659	0.608	0.601	0.599	0.660	0.819	1.073	1.856	3.078	2.789	1.935	2.963	6.477	12.19	18.09	30.14	58.14	141.0	182.4	34.52	18.43	1.781	0.427	0.398	0.289	0.299	0.313	0.253
280.0	131.7	137.0	109.3	62.80	47.04	57.66	206.7	541.2	354.3	597.9	2368	9999.9	9999.9	1195	75.78	21.14	15.69	10.62	8.007	6.224	5.012	4.376	4.033	3.076	2.830	2.823	2.370	2.200	2.322	2.166	1.948	1.682	1.640	1.619	1.369	1.490	1.238	1.335	0.966	1.012	0.884	1.033	0.906	0.978	0.970	0.985	0.937	1.045	0.946	0.619	0.694	0.636	0.637	0.574	0.588	0.634	1.025	1.846	3.167	3.218	2.117	2.037	3.361	4.663	7.446	14.21	43.15	107.4	169.7	192.9	32.13	12.08	0.819	0.388	0.455	0.333	0.290
285.0	233.9	269.6	245.6	160.2	75.14	55.22	97.68	380.2	560.0	298.2	672.7	3145	9999.9	9999.9	923.3	45.61	21.02	13.89	9.920	7.370	6.104	5.008	4.695	3.527	3.366	3.096	2.679	2.416	2.726	2.229	2.078	1.880	1.533	1.773	1.732	1.732	1.696	1.505	1.359	1.307	1.074	1.097	1.150	1.210	1.214	1.188	1.243	1.532	1.400	1.028	1.084	0.868	0.822	0.741	0.655	0.620	0.819	1.016	1.763	3.019	3.593	2.745	1.822	1.920	2.554	4.122	10.79	26.31	60.20	150.5	209.9	174.0	26.89	7.108	0.739	0.526	0.401
290.0	471.6	568.9	541.6	354.0	167.2	95.04	98.78	203.2	507.6	665.6	510.0	1017	3475	9999.9	9999.9	3672	62.55	22.90	15.44	10.60	8.148	6.323	5.479	4.311	4.082	3.732	3.221	2.935	3.094	2.485	2.451	2.234	1.964	2.011	2.438	2.192	2.378	2.204	1.865	1.712	1.516	1.657	1.671	1.814	1.872	2.127	2.140	2.564	2.306	1.962	1.614	1.469	1.112	0.971	0.854	0.749	0.834	0.900	1.215	1.546	2.404	3.320	4.296	3.601	2.626	2.613	4.083	7.484	15.18	37.34	69.82	118.9	152.4	179.5	128.6	19.16	8.129
295.0	732.9	893.6	873.0	562.5	271.3	152.2	143.4	198.5	340.7	710.6	1032	776.2	1228	2619	9999.9	9999.9	5504	74.47	24.36	16.20	11.90	8.676	7.105	5.488	5.084	4.708	3.990	3.529	3.317	3.101	2.712	2.575	2.388	2.648	2.854	2.845	2.892	2.756	2.606	2.133	2.028	2.192	2.225	2.332	2.683	2.955	2.988	3.633	3.222	2.689	2.212	2.023	1.773	1.193	1.110	1.015	1.124	1.135	1.196	1.483	1.695	2.332	3.114	4.471	5.816	4.928	4.011	4.185	5.672	10.52	17.70	28.22	36.74	63.58	149.8	253.2	226.4
300.0	853.7	1080	1106	718.4	344.8	196.4	185.2	246.8	361.8	607.3	1226	1122	873.2	1010	2743	9999.9	9999.9	4053	56.24	22.60	15.24	10.92	8.983	6.648	5.986	5.304	4.418	4.201	3.532	3.384	2.805	2.654	2.697	2.905	2.952	3.269	3.281	3.160	2.737	2.543	2.319	2.453	2.667	2.851	2.929	3.434	3.489	4.294	4.034	3.292	2.682	2.566	2.012	1.518	1.269	1.292	1.324	1.405	1.410	1.636	1.986	2.305	2.845	3.439	5.074	6.810	6.836	4.941	4.650	5.424	6.673	8.479	10.01	15.89	38.69	105.1	225.9
305.0	984.6	1224	1254	819.4	417.7	251.7	233.7	299.9	433.2	651.1	1099	1526	1058	772.5	932.7	3176	9999.9	9999.9	592.1	40.88	20.15	13.85	11.52	8.640	6.621	6.049	4.862	4.773	3.997	3.871	3.199	2.947	2.842	3.314	3.430	3.366	3.749	3.442	2.969	2.831	2.622	2.524	2.850	2.940	3.342	3.695	3.906	5.000	4.701	3.722	3.040	3.178	2.384	1.791	1.522	1.389	1.416	1.754	1.604	1.936	2.429	2.771	3.081	3.374	3.957	5.727	7.455	7.656	6.378	5.243	4.593	4.554	4.517	5.479	10.07	25.07	61.56
310.0	1057	1334	1389	894.6	469.7	307.4	298.5	378.8	534.9	763.5	1124	1459	1542	1042	678.2	938.4	3489	9999.9	9999.9	9237	48.14	22.27	15.92	11.61	8.706	7.351	6.086	5.320	4.617	4.331	3.754	3.505	3.274	3.722	3.547	3.761	3.783	3.755	3.230	2.970	2.955	2.756	3.096	3.268	3.614	4.173	4.298	4.987	5.004	4.009	3.574	3.249	2.590	2.044	1.822	1.758	1.755	1.987	1.959	2.372	2.940	3.146	3.637	3.976	4.387	5.159	6.073	6.926	7.717	7.615	6.337	4.723	3.729	3.759	4.179	7.090	15.05
315.0	1117	1365	1473	927.8	521.7	361.5	369.1	445.5	623.8	881.9	1243	1432	1534	1505	843.0	499.6	913.9	2385	9999.9	9999.9	4016	57.16	24.25	16.12	11.73	8.706	7.922	6.326	5.619	5.235	4.524	3.889	3.693	3.828	3.787	3.780	3.936	3.857	3.576	3.252	3.056	3.218	3.350	3.556	3.968	4.252	4.547	5.214	5.316	4.375	3.669	3.398	2.662	2.241	2.150	1.952	2.011	2.369	2.201	2.549	3.196	3.744	4.171	4.445	4.981	5.623	6.451	6.247	6.642	7.323	7.910	7.266	5.471	4.498	3.311	3.287	4.802
320.0	1110	1387	1487	944.4	553.2	406.5	404.6	486.6	668.1	957.3	1339	1486	1491	1529	1136	471.8	352.4	613.6	2580	9999.9	9999.9	3255	47.79	22.33	15.39	11.55	9.341	7.435	6.414	5.871	5.014	4.257	4.128	3.987	3.717	4.014	4.122	4.007	3.564	3.683	3.203	3.457	3.668	3.705	4.216	4.406	4.811	5.340	5.515	4.302	3.732	3.614	2.790	2.514	2.503	2.149	2.166	2.402	2.665	2.984	3.503	3.859	4.521	5.028	5.010	5.826	6.312	6.193	6.569	6.804	6.884	7.268	7.184	6.198	4.078	2.686	2.629
325.0	1105	1422	1535	973.0	578.7	432.8	440.9	519.4	701.6	985.0	1389	1527	1518	1410	1276	625.1	250.8	223.9	641.0	3119	9999.9	9999.9	467.8	36.67	20.34	15.15	11.36	9.180	7.628	6.352	5.422	4.652	4.568	4.343	3.940	4.033	4.045	3.852	3.863	3.489	3.466	3.549	3.585	3.854	3.989	4.554	4.812	5.374	5.622	4.637	3.788	3.670	3.053	2.637	2.600	2.352	2.240	2.455	2.701	3.059	3.449	4.020	4.821	5.084	5.589	5.975	6.565	6.383	6.563	6.508	6.516	6.501	6.502	6.812	6.192	3.714	2.424
330.0	1087	1400	1534	987.2	607.3	458.9	463.3	535.4	723.9	1005	1412	1542	1532	1351	1109	759.4	377.0	160.7	210.5	753.7	3413	9999.9	9999.9	8676	43.13	22.14	15.68	11.54	9.683	7.954	6.790	5.540	5.061	4.779	4.358	4.146	4.166	4.198	3.974	3.454	3.459	3.435	3.668	3.820	4.256	4.674	4.981	5.721	5.507	4.455	3.959	3.757	3.201	2.831	2.662	2.457	2.552	2.696	2.715	3.026	3.807	4.084	4.635	5.142	5.506	5.890	6.613	6.836	6.690	6.753	6.575	6.082	5.856	5.724	4.902	4.554	3.869
335.0	1038	1358	1491	952.8	623.0	485.4	474.8	543.3	721.2	991.0	1363	1509	1482	1314	1015	626.1	523.4	260.4	129.8	229.1	813.5	2369	9999.9	9999.9	3392	50.81	23.44	16.17	12.52	9.595	7.752	6.930	5.481	5.877	5.024	4.281	4.549	4.346	4.211	3.546	3.508	3.701	3.477	4.023	4.313	4.806	5.237	5.657	5.158	4.585	3.891	4.138	3.335	3.009	2.686	2.601	2.870	2.874	2.869	3.133	3.895	4.167	4.521	4.881	5.408	5.705	6.431	6.662	6.574	6.706	6.418	6.382	5.803	5.270	4.014	3.809	3.347
340.0	1014	1279	1410	940.0	624.2	492.7	473.7	543.6	702.5	955.0	1314	1436	1419	1258	962.3	554.1	438.9	396.6	162.5	120.1	242.4	581.8	2695	9999.9	9999.9	2893	42.36	20.51	15.31	11.38	9.255	7.869	6.119	5.681	5.060	4.552	4.216	4.750	4.202	3.589	3.641	3.442	3.457	3.962	4.297	4.522	4.953	5.633	5.126	4.384	3.758	4.004	3.447	2.748	2.790	2.867	2.767	2.898	3.041	3.047	3.937	4.096	4.588	4.868	5.382	5.631	6.043	6.325	6.246	6.458	6.263	6.161	5.712	5.100	3.982	3.363	2.919
345.0	968.3	1214	1348	905.4	632.1	511.7	486.4	532.7	673.3	901.5	1222	1353	1339	1189	914.3	527.6	341.8	392.3	282.2	125.7	123.6	190.2	658.1	3309	9999.9	9999.9	416.1	32.07	18.81	13.84	10.83	8.380	6.809	5.978	5.495	4.801	4.646	4.487	3.794	3.608	3.643	3.266	3.472	4.023	3.988	4.549	4.624	4.952	4.838	3.987	3.743	4.044	3.364	2.823	2.776	2.688	2.660	2.819	2.862	3.082	3.784	3.889	4.279	4.586	4.942	5.326	5.507	5.876	6.149	6.090	6.149	5.429	5.030	4.739	3.672	2.960	2.802
350.0	874.8	1096	1193	842.7	619.0	501.6	474.1	520.7	642.2	821.7	1094	1207	1199	1081	843.1	508.3	314.7	285.5	331.8	242.0	130.5	120.3	212.0	796.5	3768	9999.9	9999.9	7867	39.20	19.64	14.28	10.34	7.822	6.849	5.820	4.879	4.583	4.607	3.912	3.821	3.437	3.256	3.348	3.558	3.674	4.129	4.197	4.863	4.544	3.985	3.526	3.704	3.226	2.752	2.601	2.512	2.765	2.816	2.957	2.976	3.384	3.694	3.923	4.188	4.430	5.029	5.307	5.285	5.456	5.624	5.275	5.134	4.713	4.447	3.538	2.918	2.712
355.0	819.5	1027	1077	783.7	604.5	508.3	471.4	506.0	598.9	751.9	981.7	1071	1062	956.3	765.3	486.4	321.6	257.7	256.9	329.1	232.3	131.6	129.9	245.7	896.0	2413	9999.9	9999.9	3185	46.72	19.40	14.25	10.15	8.109	6.173	5.320	4.939	4.725	4.255	3.470	3.277	3.350	3.276	3.414	3.642	3.985	3.780	4.289	4.365	3.471	3.248	3.455	3.108	2.742	2.735	2.441	2.773	2.538	2.767	2.830	3.209	3.322	3.626	3.945	4.215	4.691	4.633	4.888	5.171	4.938	4.878	4.645	4.408	4.373	3.489	2.901	2.661
360.0	764.4	946.7	1004	748.7	597.9	522.6	476.4	503.6	583.9	706.6	890.9	975.5	964.5	878.9	709.9	471.9	331.7	270.6	240.9	283.2	325.9	190.5	130.6	139.0	266.6	595.4	2755	9999.9	9999.9	2783	38.29	18.12	12.86	9.832	7.505	5.822	5.554	4.980	4.429	3.951	3.442	3.231	3.314	3.247	3.345	3.952	3.838	4.338	4.124	3.361	2.985	3.362	3.287	2.688	2.780	2.576	2.699	2.649	2.882	2.853	3.236	3.270	3.362	3.744	4.115	4.115	4.418	4.522	4.770	4.670	4.542	4.361	4.094	4.047	3.426	2.847	2.660
365.0	720.6	881.5	920.8	730.7	607.3	523.3	489.7	507.1	562.1	673.6	826.9	893.1	876.2	820.9	665.8	468.1	344.0	284.7	254.6	247.9	319.0	286.8	159.8	127.6	139.0	197.7	671.0	3540	9999.9	9999.9	395.6	30.97	16.62	12.35	8.722	6.258	5.789	5.126	4.712	4.098	3.523	3.358	3.439	3.339	3.488	3.800	3.832	4.177	3.957	3.355	3.020	3.194	2.940	2.796	2.564	2.564	2.772	2.760	2.779	2.879	3.029	3.126	3.436	3.514	3.756	3.936	3.997	4.227	4.294	4.392	4.399	4.199	3.869	3.679	3.212	2.767	2.692
370.0	664.2	813.1	862.3	699.2	592.6	526.7	513.9	518.6	553.3	640.4	760.2	815.1	797.8	741.5	619.4	457.8	360.3	314.1	279.8	262.3	271.2	316.9	267.3	167.2	132.3	125.2	215.0	849.3	3952	9999.9	9999.9	7839	34.84	17.69	11.93	8.493	6.761	6.073	4.970	4.204	3.808	3.475	3.471	3.420	3.360	3.676	3.626	3.860	3.718	3.258	2.990	3.300	2.869	2.804	2.752	2.654	2.789	2.857	2.740	2.914	3.095	3.022	3.370	3.453	3.581	3.654	3.780	3.881	4.067	4.241	3.958	3.708	3.745	3.647	3.095	2.743	2.636
375.0	622.8	746.1	793.2	680.9	593.8	551.9	523.6	527.4	550.6	618.8	702.0	747.4	725.7	679.3	579.7	447.3	376.7	341.3	315.5	288.2	275.3	277.3	321.1	266.4	160.7	128.2	127.1	252.6	932.9	2459	9999.9	9999.9	2774	40.57	17.78	11.98	8.885	7.470	5.719	4.824	4.120	3.949	3.661	3.747	3.451	3.628	3.504	3.619	3.439	3.136	2.911	3.161	2.993	2.916	2.765	2.767	2.913	2.930	2.842	2.896	3.003	3.174	3.332	3.417	3.375	3.425	3.578	3.434	3.696	3.733	3.589	3.626	3.315	3.544	3.083	2.927	2.861
380.0	588.8	736.4	764.8	684.9	595.4	575.4	526.2	541.3	556.6	598.2	662.0	712.5	682.2	641.0	547.8	449.7	387.9	356.7	338.2	311.8	293.2	272.3	296.1	323.8	214.5	145.5	121.1	129.5	266.1	600.2	2819	9999.9	9999.9	2387	32.73	15.23	11.34	8.615	6.474	5.294	4.321	3.975	4.019	3.630	3.559	3.486	3.269	3.712	3.587	2.975	2.940	3.070	3.133	3.092	2.916	2.808	2.925	2.925	2.798	2.930	3.054	3.176	3.164	3.466	3.185	3.305	3.423	3.283	3.685	3.659	3.614	3.525	3.227	3.550	3.139	2.568	2.923
385.0	593.2	696.5	754.0	667.4	588.7	574.0	530.7	534.5	556.5	587.5	643.0	675.8	652.5	605.2	537.0	446.7	398.3	372.3	349.8	331.0	310.2	288.6	277.9	311.4	290.0	179.9	134.3	114.4	127.8	189.8	678.8	3668	9999.9	9999.9	327.3	24.31	14.12	10.63	7.487	5.794	4.947	4.238	3.901	3.846	3.783	3.681	3.677	3.716	3.532	3.095	2.905	3.339	3.103	3.071	2.892	2.801	2.802	3.058	2.878	3.082	3.091	3.124	3.210	3.196	3.234	3.218	3.504	3.166	3.555	3.661	3.416	3.390	3.247	3.259	2.920	2.768	2.709
390.0	594.6	686.1	731.0	660.6	605.4	589.7	574.2	561.3	560.4	581.7	621.1	635.7	616.0	578.3	516.6	444.1	406.2	386.6	368.8	351.5	327.7	309.8	288.6	282.5	300.3	260.0	173.1	131.4	112.9	110.5	205.9	867.9	3735	9999.9	9999.9	6159	29.12	14.33	10.12	7.502	5.892	5.009	4.570	4.030	3.967	4.038	3.817	3.757	3.354	3.204	2.989	3.293	3.278	3.103	2.984	2.918	3.272	3.135	3.053	2.989	2.995	3.074	3.109	3.206	3.337	3.158	3.247	3.209	3.333	3.337	3.178	2.985	3.097	3.046	3.109	2.925	2.916
395.0	608.6	688.4	698.1	641.5	619.0	602.6	581.9	570.1	569.2	574.2	599.6	596.7	588.8	550.2	503.1	440.7	411.0	397.6	385.4	366.4	348.0	325.9	306.4	287.3	273.0	288.2	248.4	164.0	129.2	108.0	112.5	244.4	872.6	2443	9999.9	9999.9	2352	35.16	14.25	9.924	7.177	5.860	5.520	4.702	4.424	4.168	3.945	4.135	3.820	3.257	2.953	3.383	3.280	3.334	3.204	3.122	3.240	3.444	3.176	3.149	3.309	3.111	3.184	3.040	3.332	3.109	3.234	3.040	3.176	3.074	3.138	2.975	2.877	3.271	2.960	2.979	2.956
400.0	600.3	678.0	674.5	647.2	630.4	607.6	591.3	582.3	574.1	574.6	590.7	586.5	567.7	537.9	489.9	437.5	417.3	404.8	390.5	373.3	358.8	337.1	320.7	298.4	273.3	267.7	285.3	211.6	150.5	120.0	100.3	114.1	238.3	583.1	2708	9999.9	9999.9	2089	28.41	12.24	9.142	7.036	5.941	5.015	4.628	4.137	3.910	4.172	3.634	3.184	3.052	3.277	3.425	3.233	3.311	3.157	3.348	3.369	3.313	3.317	2.995	3.161	3.083	3.046	3.269	3.222	3.050	3.226	2.920	3.026	3.038	2.848	2.974	2.961	3.105	2.703	3.007
405.0	580.6	659.8	673.2	642.9	623.8	622.6	607.7	592.2	576.4	567.9	579.8	570.6	553.5	528.7	478.1	437.4	416.4	405.2	392.3	377.6	362.6	348.5	330.8	308.9	282.7	257.6	274.6	262.0	179.4	135.3	107.5	89.91	103.9	169.1	639.4	3191	9999.9	9999.9	1598	21.45	10.79	8.086	7.002	5.108	4.880	4.279	4.053	3.980	3.674	3.323	3.078	3.590	3.444	2.973	3.199	3.381	3.640	3.255	3.366	3.456	3.027	3.191	3.120	3.195	2.938	3.048	3.118	2.898	2.940	2.663	3.069	2.981	2.928	3.073	2.953	2.793	3.059
410.0	586.3	653.1	668.7	644.2	626.4	605.7	598.0	591.3	587.7	573.5	577.6	569.8	539.3	508.1	464.3	426.8	409.8	402.0	393.6	378.3	365.2	352.1	336.5	315.6	293.5	265.5	254.5	263.2	238.9	169.5	125.1	98.41	82.78	84.64	178.8	744.1	3210	9999.9	9999.9	5845	25.83	11.30	8.484	6.690	5.469	5.012	4.427	4.370	3.913	3.473	3.188	3.607	3.403	3.110	3.255	3.290	3.465	3.348	3.255	3.413	3.266	3.196	3.277	3.214	3.031	2.868	2.995	2.889	2.898	2.831	2.899	2.811	2.909	2.900	2.900	3.018	2.870
415.0	568.0	624.4	644.8	625.4	604.5	599.0	597.4	595.6	588.7	577.8	563.8	549.9	514.4	486.7	447.9	417.3	398.9	390.8	386.8	371.9	359.8	350.9	335.9	319.8	300.7	274.4	252.6	241.3	250.0	222.3	152.1	111.2	88.31	72.18	82.18	197.4	741.8	2338	8084	9999.9	2201	32.35	11.89	8.273	6.395	5.878	4.782	4.558	4.000	3.371	3.234	3.498	3.498	3.321	3.345	3.301	3.524	3.490	3.140	3.308	3.312	3.384	3.284	3.025	2.836	2.757	2.925	2.893	2.841	2.778	2.807	2.683	2.768	2.883	2.648	2.696	2.899
420.0	551.7	625.4	641.4	608.4	594.3	597.5	598.3	591.5	594.3	572.6	565.8	536.8	507.0	473.1	431.7	401.0	388.5	384.5	379.2	366.9	355.5	347.0	334.2	319.9	303.0	278.3	257.2	236.7	231.1	241.7	189.0	126.6	95.76	75.15	64.88	79.80	193.8	546.5	2049	9999.9	9999.9	2028	28.01	10.56	7.704	6.780	5.217	4.837	4.152	3.509	3.279	3.591	3.690	3.389	3.429	3.178	3.527	3.688	3.515	3.189	3.260	3.258	3.283	2.921	3.067	2.945	2.881	3.069	2.915	2.736	2.657	2.566	2.672	2.595	2.704	2.630	2.705
425.0	554.3	607.5	622.7	609.2	588.4	589.8	584.4	588.3	585.1	571.5	557.2	531.8	494.2	463.3	417.7	389.8	379.3	371.9	365.0	361.4	351.1	340.5	329.0	314.7	301.2	279.2	260.2	239.4	224.2	226.1	216.9	147.7	106.1	80.93	64.67	57.69	74.06	148.1	480.2	2754	9999.9	9999.9	1661	21.55	10.27	7.965	5.710	5.106	4.358	3.719	3.284	3.802	3.526	3.418	3.285	3.112	3.724	3.844	3.444	3.395	3.158	3.379	3.367	3.087	3.088	3.158	2.682	3.073	2.985	2.728	2.519	2.776	2.636	2.739	2.659	2.588	2.738
430.0	1110	569.3	602.2	585.3	571.6	571.4	585.3	575.4	571.7	564.6	550.8	519.6	488.8	447.3	408.4	379.8	366.9	360.5	352.2	346.5	339.4	332.1	320.5	311.5	297.7	278.8	262.0	243.3	225.8	212.4	208.2	183.5	128.4	92.95	71.98	58.84	53.00	62.59	130.8	635.7	2759	9621	9999.9	5737	109.4	11.19	7.439	6.325	5.006	4.042	3.415	3.917	3.563	3.570	3.358	3.365	3.557	3.608	3.503	3.272	3.348	3.257	3.231	3.192	3.165	2.898	2.751	2.737	2.739	2.552	2.543	2.701	2.605	2.478	2.534	2.574	2.797
435.0	2662	636.5	584.7	566.5	556.8	559.5	574.8	572.2	577.2	557.5	544.3	506.6	474.3	434.6	402.0	369.0	354.1	343.6	342.8	335.7	327.7	322.7	314.1	305.6	296.4	279.4	261.5	249.4	232.5	211.7	194.5	184.6	163.8	111.7	82.13	65.68	53.75	47.97	55.96	163.4	633.6	2196	6355	9999.9	8693	33.21	11.28	8.121	6.124	4.721	3.791	4.228	3.937	3.653	3.515	3.416	3.708	3.475	3.623	3.562	3.371	3.417	3.191	3.212	3.094	3.134	2.909	2.716	2.582	2.540	2.619	2.686	2.477	2.421	2.296	2.592	2.676
440.0	3681	1095	554.1	549.1	561.8	548.1	560.0	565.1	558.9	554.6	542.8	503.3	467.3	426.6	389.2	356.2	340.7	333.5	330.6	323.7	314.9	313.6	307.8	298.9	290.5	276.2	258.1	247.3	231.2	211.6	191.1	174.8	171.8	136.0	91.19	71.65	57.39	46.96	41.76	60.19	161.1	507.9	1566	8545	9999.9	2015	26.37	10.83	7.364	5.506	4.505	4.692	4.460	3.683	3.520	3.673	3.760	3.518	3.634	3.428	3.409	3.257	3.325	3.027	2.953	2.916	2.825	2.961	2.703	2.549	2.597	2.492	2.427	2.487	2.517	2.556	2.562
445.0	3367	2254	561.8	538.5	544.2	536.4	541.8	555.0	550.5	554.4	539.8	495.9	455.2	416.0	373.4	345.9	329.0	323.1	316.2	309.7	306.7	301.7	297.4	288.7	283.1	267.3	256.1	243.6	230.2	215.0	192.2	166.8	158.5	153.0	108.1	76.79	61.36	49.70	41.40	39.41	57.54	131.8	368.5	2255	9999.9	9999.9	1561	23.31	9.165	6.108	5.105	5.296	4.761	3.721	3.733	3.822	3.565	3.875	3.600	3.516	3.288	3.426	3.468	3.055	2.948	2.944	2.903	2.958	2.735	2.673	2.796	2.297	2.359	2.381	2.407	2.435	2.351
450.0	1712	3693	975.5	508.4	514.6	507.8	522.3	526.8	532.9	524.6	517.7	479.3	439.4	395.6	353.2	326.6	311.0	301.8	296.5	290.2	284.9	283.6	280.8	272.9	269.1	258.3	248.7	237.5	225.0	212.2	191.0	166.7	146.7	142.3	126.7	91.93	67.67	54.85	44.17	37.39	36.75	49.70	100.4	520.5	2640	9098	9999.9	6098	100.4	9.642	6.512	5.879	5.183	4.381	4.016	4.012	3.805	3.789	3.695	3.568	3.306	3.354	3.290	3.123	2.985	2.887	2.746	2.857	2.540	2.537	2.667	2.304	2.421	2.215	2.206	2.377	2.416
455.0	717.2	2952	3030	564.3	484.6	482.0	494.1	495.1	511.3	501.4	487.0	460.8	407.5	374.5	334.7	304.2	289.3	276.9	277.3	267.0	262.6	262.7	258.5	254.8	251.1	242.0	233.0	225.4	216.4	204.5	184.9	164.4	141.5	127.7	120.9	109.8	78.92	58.64	47.63	39.31	34.26	32.90	41.36	132.8	603.4	2065	5113	9999.9	8024	25.39	9.318	7.269	5.918	5.158	4.394	4.140	3.827	3.819	3.508	3.602	3.132	3.233	3.243	3.144	2.929	2.957	2.630	2.500	2.618	2.575	2.467	2.393	2.203	2.263	2.201	2.222	2.171
460.0	475.4	1619	4263	858.5	449.1	460.2	460.5	472.8	478.3	478.1	466.9	436.4	399.3	354.9	318.4	285.8	270.1	261.9	257.9	251.8	245.2	241.4	242.2	239.7	236.5	228.3	219.2	213.1	206.9	196.5	180.7	158.9	139.0	120.0	110.2	110.0	91.07	63.26	50.32	41.54	35.38	30.55	28.94	46.94	150.3	475.8	1219	6801	9999.9	1527	22.74	9.800	6.961	5.426	4.665	4.313	4.149	3.960	3.632	3.574	3.313	3.277	3.389	2.972	2.917	2.613	2.735	2.524	2.477	2.341	2.307	2.116	2.166	2.177	2.228	2.165	2.187
465.0	427.1	745.0	3831	2398	444.3	430.9	440.0	448.4	447.5	450.0	442.6	415.4	383.0	336.7	299.9	272.8	253.2	248.9	238.5	237.3	230.0	226.8	226.3	225.1	221.2	213.0	205.3	203.5	197.1	188.0	174.4	154.3	134.6	117.4	104.2	97.92	96.27	71.78	53.00	43.35	36.94	31.36	27.77	28.45	49.18	121.3	287.2	1711	9155	9999.9	1384	23.44	9.188	6.530	5.436	4.935	4.380	4.100	3.503	3.613	3.413	3.375	3.130	2.960	2.812	2.904	2.779	2.728	2.478	2.312	2.262	2.144	2.102	2.233	2.043	2.189	2.004
470.0	403.6	459.1	1882	4057	1111	397.4	402.5	412.9	419.5	421.2	408.4	385.1	348.8	310.6	275.3	248.7	228.3	224.7	217.3	212.0	206.5	205.8	205.3	202.5	200.0	195.1	189.3	186.2	181.6	173.4	162.2	145.7	128.1	112.1	98.24	86.93	85.04	78.01	60.26	44.92	36.72	31.68	27.56	24.80	27.66	41.82	77.27	395.0	2295	6966	9999.9	6090	113.1	9.992	6.615	5.315	5.124	4.475	3.758	3.389	3.474	3.286	3.140	3.105	2.915	2.825	2.552	2.505	2.386	2.282	2.262	2.093	2.061	1.924	1.871	1.918	1.954
475.0	383.7	369.7	703.3	3140	3284	460.1	367.7	375.1	379.7	385.6	375.5	353.5	319.0	283.1	251.9	226.8	208.1	202.3	194.3	187.5	183.2	184.5	184.1	179.5	179.3	173.3	171.3	167.6	165.0	159.2	149.9	133.4	118.1	105.5	92.72	80.54	72.58	70.92	68.12	49.78	37.65	32.04	27.92	24.34	22.67	23.95	30.28	99.44	521.2	1568	3527	9999.9	7574	30.87	9.160	6.030	5.827	4.547	3.729	3.340	3.376	3.155	2.747	2.701	2.846	2.330	2.344	2.344	2.275	2.027	2.031	2.072	1.954	1.910	1.740	1.780	1.747
480.0	356.0	355.2	405.9	1572	4621	1041	340.1	350.4	357.4	359.3	352.5	335.1	299.6	266.3	234.9	211.4	195.4	186.2	177.7	173.8	169.2	168.9	167.7	167.8	165.5	159.4	157.9	157.4	154.7	150.6	139.4	127.3	114.3	100.4	89.50	76.88	68.68	63.73	65.40	55.82	40.30	32.71	28.17	24.29	21.78	20.40	19.17	33.41	126.0	358.6	814.0	4335	9999.9	6113	28.49	8.634	6.603	5.320	4.073	3.562	3.473	3.079	2.946	2.778	2.558	2.608	2.343	2.325	2.066	2.160	1.757	1.982	1.891	1.793	1.822	1.745	1.666
485.0	296.7	373.3	338.7	665.0	4139	2586	345.5	334.2	340.1	336.8	336.3	314.2	285.4	256.4	224.2	201.0	183.1	175.1	167.0	164.1	160.7	158.6	158.1	155.5	153.4	150.1	148.7	146.8	146.0	142.1	133.5	123.2	109.3	95.64	84.75	75.09	66.81	59.05	58.27	58.31	45.50	33.51	28.67	24.97	22.07	20.03	17.46	18.77	37.98	88.79	190.8	1032	6254	9999.9	1723	24.18	8.117	6.043	4.742	4.023	3.602	3.366	2.796	2.767	2.479	2.503	2.408	2.226	2.121	1.887	1.849	1.779	1.815	1.849	1.699	1.562	1.699
490.0	245.5	353.1	318.3	366.3	1923	4397	1042	312.8	313.3	319.7	315.6	294.0	266.4	239.5	204.8	186.1	171.2	161.8	154.5	149.5	145.5	145.5	143.0	143.3	141.8	138.8	137.3	135.8	134.3	130.7	124.8	114.0	103.0	91.31	80.97	72.20	64.13	57.28	52.22	51.64	49.89	39.03	29.90	25.68	22.74	19.71	17.82	16.12	18.71	28.74	50.61	239.2	1501	5085	9999.9	6372	133.2	11.48	5.970	4.786	3.942	3.532	3.160	2.774	2.581	2.435	2.422	2.253	1.965	2.025	1.802	1.775	1.642	1.748	1.533	1.578	1.597
495.0	210.7	297.6	333.9	280.0	637.3	3428	3339	366.7	291.2	293.0	289.5	273.3	244.1	217.5	190.4	168.2	155.9	145.8	142.4	135.1	130.6	130.9	128.4	127.2	127.3	125.0	123.9	123.3	121.4	120.1	114.7	105.2	95.16	85.36	75.06	68.22	60.11	55.41	48.49	44.98	44.75	43.10	33.48	26.05	22.60	20.06	18.02	15.91	15.23	15.21	19.38	61.24	341.8	1143	3217	9999.9	9376	216.9	9.911	5.593	4.346	3.810	3.184	2.785	2.680	2.341	2.295	2.130	1.973	1.933	1.847	1.770	1.505	1.587	1.447	1.401	1.502
500.0	188.1	235.8	323.5	257.7	325.0	1653	4984	923.5	270.4	269.5	269.3	256.9	228.8	202.1	175.5	157.1	143.2	134.3	130.0	124.5	120.9	118.0	116.7	115.9	116.4	114.4	113.3	112.9	112.3	111.3	105.1	95.14	87.62	80.16	72.42	64.40	57.70	52.00	45.53	41.72	40.02	41.45	37.29	27.41	23.07	20.12	18.37	15.84	14.25	12.79	12.37	21.51	83.52	261.8	736.6	3892	9999.9	7347	32.70	8.046	4.912	4.254	3.553	3.112	2.516	2.165	2.225	2.023	2.143	1.810	1.822	1.740	1.452	1.572	1.319	1.481	1.245
505.0	175.7	207.4	288.8	263.2	236.8	634.1	4562	2527	270.7	251.7	249.5	238.3	212.3	187.5	161.4	142.8	132.2	123.9	119.2	115.0	108.8	109.6	108.3	107.5	105.7	104.0	104.0	103.6	102.6	102.1	97.36	88.94	81.22	74.20	67.44	60.04	54.50	48.52	43.80	39.47	35.48	37.07	37.78	30.74	23.64	20.08	18.15	15.77	13.76	12.06	11.12	12.42	25.85	65.20	171.8	908.4	5388	9999.9	1960	27.03	6.733	4.761	3.672	3.213	2.594	2.165	2.182	1.837	1.814	1.736	1.687	1.584	1.468	1.623	1.231	1.381	1.276
510.0	165.9	181.3	217.9	259.9	210.5	294.1	2096	4906	878.5	228.7	228.7	213.0	192.0	169.3	146.1	129.3	118.9	112.6	106.7	102.5	98.65	95.77	95.85	94.78	93.87	93.20	92.10	91.42	90.94	91.64	87.18	80.56	73.65	66.61	60.81	55.39	49.87	45.45	40.34	36.70	33.24	31.17	32.53	32.60	26.30	20.35	17.25	15.56	13.37	11.59	10.96	10.06	12.17	20.92	44.75	209.2	1268	4704	8678	5269	136.6	9.462	4.403	3.375	2.863	2.456	2.232	1.876	1.859	1.725	1.669	1.567	1.409	1.361	1.258	1.172	1.091
515.0	145.0	153.3	172.9	239.0	218.2	198.1	634.0	4102	2628	268.8	206.6	188.3	171.7	149.5	131.4	116.5	104.9	98.73	94.28	88.56	85.36	83.11	84.23	83.76	81.36	82.05	79.50	81.18	81.69	80.68	76.93	71.65	65.63	59.81	54.70	49.65	44.59	41.20	37.71	33.91	30.53	27.79	26.59	28.43	29.00	21.65	16.96	15.09	12.93	10.79	10.02	9.620	9.183	10.57	15.74	52.26	288.4	1056	2594	8339	7168	214.5	7.758	4.005	3.348	2.568	2.295	1.814	1.904	1.729	1.521	1.517	1.214	1.372	1.217	1.057	1.088
520.0	131.7	143.1	151.9	200.5	236.1	172.5	275.2	1984	5431	773.0	189.9	175.8	154.2	135.4	120.3	106.9	96.24	88.50	84.30	80.47	77.27	76.14	76.70	75.45	73.99	72.98	71.02	73.32	72.37	72.07	68.84	66.17	59.62	55.63	49.70	46.36	41.60	37.16	34.34	30.63	28.67	25.99	24.29	24.27	27.38	23.75	17.37	15.02	12.41	10.82	9.661	9.324	8.698	7.539	9.204	16.85	69.70	241.0	591.1	3049	9806	5407	32.95	5.759	3.774	2.744	2.528	2.014	1.748	1.789	1.489	1.423	1.213	1.205	1.125	1.002	1.043
525.0	115.9	132.1	141.6	157.0	231.7	164.9	181.4	694.3	5557	2091	186.9	159.8	141.3	124.1	109.3	97.46	88.09	80.93	76.67	73.86	69.40	69.12	68.26	68.42	67.51	66.51	64.45	65.38	66.76	65.96	63.46	59.72	54.72	49.23	46.00	42.18	39.18	34.72	31.86	28.63	26.59	23.80	22.18	21.46	23.04	23.55	18.32	14.63	12.04	10.64	9.081	8.733	8.134	7.397	7.429	8.760	20.33	58.90	137.7	708.2	4298	9653	1947	26.45	4.762	3.505	2.682	2.241	1.755	1.619	1.466	1.381	1.315	1.098	1.138	1.060	0.993
530.0	108.4	113.7	123.3	120.5	184.7	183.8	145.5	265.2	2632	5304	766.2	146.1	129.1	111.8	96.53	86.37	77.71	72.76	66.84	65.74	62.13	61.00	60.04	60.54	58.47	56.95	57.28	56.63	57.67	58.06	55.43	51.80	47.83	44.05	40.24	37.17	34.51	31.12	29.28	25.56	24.22	22.07	20.29	19.29	18.75	20.64	19.53	15.05	11.65	10.11	8.622	8.093	7.703	7.293	6.802	6.502	9.178	17.73	35.02	162.6	1001	3817	6435	3957	137.2	7.671	3.183	2.428	2.081	1.639	1.540	1.316	1.265	1.089	1.073	1.022	0.965
535.0	100.7	103.0	107.4	100.7	129.4	193.5	136.2	152.1	729.7	4785	3680	162.7	112.3	98.31	85.15	73.64	67.21	61.34	59.17	56.81	53.86	53.41	51.72	51.50	49.52	50.42	49.49	49.97	48.96	49.64	47.79	45.64	41.61	38.27	34.98	31.91	29.66	27.44	26.28	23.04	21.32	20.13	17.89	17.03	16.14	16.33	17.41	16.17	12.04	9.317	8.080	7.534	6.507	6.495	6.583	5.892	6.300	8.060	11.75	40.01	226.5	855.1	1874	5853	5059	209.3	5.700	2.874	2.285	1.910	1.579	1.397	1.223	0.988	0.973	0.888	1.004
540.0	94.53	93.34	95.87	93.63	101.5	167.6	145.1	123.8	252.8	2312	6468	487.1	103.6	91.81	76.14	66.79	60.95	55.60	52.59	49.93	47.86	46.86	45.54	46.03	44.27	44.29	43.15	43.82	42.62	43.34	42.18	40.25	37.44	34.12	31.05	29.16	27.13	25.12	22.82	21.00	19.58	18.04	16.37	15.66	14.40	13.96	14.50	15.50	12.59	9.668	7.647	6.773	6.546	6.138	5.837	5.798	5.411	5.539	6.157	12.33	53.85	194.4	425.7	2080	6568	2143	33.17	4.139	2.719	1.950	1.521	1.361	1.242	1.008	0.934	0.952	0.947
545.0	73.94	81.69	84.29	84.04	92.65	131.5	160.1	107.1	139.0	759.7	6638	1574	94.80	82.50	68.34	60.74	54.16	50.33	46.85	45.12	42.51	41.61	40.27	40.63	39.41	39.44	38.51	38.58	38.56	38.63	37.79	35.74	33.48	29.84	27.97	24.86	24.15	22.48	20.84	19.14	17.49	16.32	14.95	13.78	12.84	12.65	12.20	13.50	12.90	10.14	7.465	6.157	6.185	5.725	5.556	5.488	5.292	4.640	4.540	6.108	15.03	46.53	98.63	480.2	2760	5995	1853	26.05	3.574	2.297	1.688	1.403	1.282	0.958	0.967	0.977	0.855
550.0	67.19	70.66	74.68	71.53	73.49	93.80	148.5	108.1	94.64	245.6	3086	5315	447.2	72.15	60.12	52.77	46.22	42.40	40.01	37.82	35.91	35.03	34.09	34.19	33.08	32.87	32.14	31.64	32.70	32.36	32.05	29.92	28.10	25.52	23.67	21.66	20.24	19.12	17.74	16.31	14.70	14.10	13.00	12.42	11.29	10.86	10.22	10.13	11.09	10.34	7.793	5.816	5.354	4.925	4.800	4.631	4.640	4.560	3.975	4.005	5.958	13.10	24.86	109.9	639.0	2330	4299	2910	139.2	6.320	2.059	1.617	1.389	1.150	1.014	0.889	0.746
555.0	59.75	60.53	61.26	60.04	61.41	63.23	108.6	129.5	80.92	114.2	794.8	5340	2647	74.78	50.94	44.76	40.02	35.48	34.02	31.20	29.78	29.01	27.87	28.33	27.17	26.52	26.83	25.30	26.63	26.65	25.97	24.27	21.93	20.52	19.89	18.03	16.89	15.49	14.64	13.30	12.30	11.91	11.05	10.52	9.442	9.409	8.787	7.646	7.946	8.766	7.978	5.826	4.728	4.233	4.099	3.921	3.957	3.897	3.590	3.144	3.574	5.212	7.684	26.72	144.7	522.0	1194	3767	2236	206.8	4.352	1.857	1.608	1.104	1.082	0.828	0.706
560.0	52.70	58.58	56.19	50.62	46.14	54.45	75.64	129.7	76.20	78.29	234.0	2718	5430	153.6	45.68	38.13	34.59	31.17	28.45	26.86	25.58	24.94	23.23	24.14	23.76	22.74	22.82	21.75	22.75	22.12	22.05	20.93	18.94	17.85	16.42	15.55	14.29	13.18	12.39	11.49	10.64	10.30	9.539	8.987	8.345	7.944	7.447	6.714	6.128	7.268	7.332	6.124	4.280	3.842	3.678	3.595	3.499	3.246	3.634	3.170	2.789	3.171	3.752	8.061	34.32	118.5	270.9	1288	3850	2053	33.44	2.747	1.784	1.308	1.003	0.886	0.717
565.0	49.67	50.95	54.43	49.17	43.76	46.48	56.43	115.7	85.94	65.46	100.1	868.6	6288	1026	43.71	34.23	29.38	26.82	24.87	21.88	22.13	21.99	20.50	19.95	19.60	19.19	19.52	18.78	19.15	19.27	19.00	17.73	16.17	15.39	14.03	13.50	12.03	11.19	11.11	10.26	9.433	8.767	8.387	7.692	7.071	7.018	6.559	5.976	5.291	5.527	5.905	6.091	4.493	3.725	3.396	3.296	2.972	3.066	2.875	3.079	2.819	2.576	2.647	3.499	9.476	28.21	62.78	295.7	1554	3810	1597	25.58	2.127	1.488	1.059	0.907	0.743
570.0	57.47	52.17	56.75	51.39	40.01	38.51	43.66	76.52	107.5	61.28	69.02	246.1	3248	4378	250.6	30.29	25.36	22.79	20.91	19.16	18.17	17.99	17.24	16.75	15.91	15.86	15.98	15.86	16.30	16.09	15.67	14.61	13.44	12.43	11.76	11.22	10.31	9.495	9.100	8.505	7.853	7.181	6.988	6.500	6.243	5.876	5.451	4.982	4.505	4.277	4.478	5.217	4.684	3.434	3.031	2.890	2.762	2.671	2.577	2.621	2.734	2.344	2.148	2.284	3.675	8.010	15.87	67.89	358.8	1411	2610	1267	127.6	4.549	1.344	0.997	0.827
575.0	56.98	61.52	65.26	50.66	39.14	31.86	35.83	52.38	107.7	77.13	60.68	102.0	844.1	5139	1047	31.12	21.71	19.07	17.59	16.30	14.83	14.66	13.90	13.52	13.18	12.46	12.87	13.49	12.21	13.04	11.82	11.66	11.12	10.41	9.710	8.999	8.723	7.677	7.584	6.895	6.338	5.714	5.643	5.267	5.253	5.110	4.520	4.206	3.983	3.647	3.554	3.799	4.097	3.723	2.738	2.558	2.334	2.351	2.174	2.348	2.316	2.426	1.908	1.950	2.255	3.307	5.091	16.87	81.75	316.3	701.2	2009	1999	37.44	2.902	1.218	0.932
580.0	64.12	68.97	74.52	52.63	38.53	31.47	31.37	39.88	80.18	98.85	58.31	68.21	233.6	2874	4305	88.28	20.46	17.90	15.90	13.56	13.10	12.32	12.13	11.88	11.33	10.95	10.99	11.14	11.16	11.68	10.23	9.785	9.630	8.862	8.475	7.543	7.657	6.497	6.448	5.965	5.733	4.869	5.083	4.532	4.696	4.224	3.954	3.812	3.347	3.226	3.132	2.971	3.315	3.541	2.976	2.442	2.049	2.242	1.985	1.993	1.931	2.151	2.008	1.863	1.801	2.010	2.497	5.284	19.66	72.12	159.2	670.8	2300	1597	32.16	1.867	0.992
585.0	67.90	77.06	75.63	52.91	36.88	29.66	29.19	37.08	57.35	109.5	63.79	60.15	96.09	950.6	5653	635.5	19.18	15.38	13.87	11.92	11.28	10.50	10.39	10.33	10.18	10.24	9.296	10.01	9.352	9.911	9.042	8.656	7.827	7.473	7.274	6.512	6.473	5.854	5.652	5.097	4.977	4.360	4.493	4.179	3.971	3.883	3.447	3.414	3.195	2.782	2.592	2.684	2.625	3.174	3.016	2.367	1.980	1.907	1.764	1.846	1.843	1.787	2.113	2.033	1.685	1.732	1.906	2.662	5.834	17.60	37.16	154.0	870.2	2308	1111	23.72	1.401
590.0	70.41	81.36	79.06	57.96	34.23	27.94	27.15	32.12	42.85	94.76	84.97	60.32	65.69	255.3	3130	3259	62.35	14.40	12.48	10.49	9.983	8.894	9.076	8.641	8.156	8.316	7.872	7.967	7.972	8.053	7.644	7.169	6.576	6.318	6.027	5.475	5.167	4.966	5.015	4.467	4.200	3.835	3.730	3.449	3.412	3.316	3.040	3.059	2.850	2.321	2.358	2.106	2.218	2.475	2.641	2.406	1.888	1.779	1.578	1.529	1.593	1.516	1.578	1.844	1.847	1.530	1.714	1.860	2.577	5.291	9.582	35.83	199.5	796.3	1576	981.3	126.8
595.0	68.01	83.58	81.36	61.29	33.49	24.50	25.11	30.57	39.10	68.05	107.9	67.05	59.16	91.02	808.2	4249	707.3	15.38	10.94	9.797	8.431	8.148	7.302	6.834	6.663	6.945	6.469	6.605	6.606	6.322	6.494	5.893	5.397	5.381	4.957	4.554	4.604	4.168	3.940	3.555	3.463	3.406	3.037	2.975	2.793	3.016	2.646	2.615	2.426	2.196	1.826	1.931	1.786	1.691	2.210	2.347	2.179	1.598	1.485	1.392	1.445	1.411	1.452	1.546	1.859	1.738	1.479	1.697	1.813	2.442	3.473	9.375	45.53	178.6	406.3	1181	1373
600.0	69.40	86.83	76.77	56.79	32.13	22.06	23.43	28.78	35.34	52.03	106.9	76.51	57.49	53.15	207.5	2601	2824	46.72	10.48	8.369	7.724	7.299	6.632	6.220	6.045	6.117	5.678	5.626	5.535	5.648	5.397	5.164	4.884	4.541	4.230	4.045	4.057	3.679	3.363	3.217	2.974	2.921	2.917	2.762	2.588	2.423	2.316	2.152	1.957	1.975	1.756	1.611	1.623	1.410	1.748	1.936	2.097	1.721	1.314	1.337	1.319	1.297	1.418	1.357	1.608	1.712	1.690	1.548	1.583	1.718	2.037	3.231	11.31	40.93	92.07	369.5	1398
605.0	68.59	86.79	74.88	58.66	32.57	22.07	22.93	27.88	34.03	49.00	93.85	91.06	57.60	47.13	70.27	897.6	4075	367.0	9.722	7.859	6.806	6.413	6.052	5.710	5.779	5.681	4.847	4.881	5.095	4.959	4.631	4.684	4.326	3.928	3.532	3.438	3.423	3.381	2.820	2.753	2.469	2.492	2.669	2.362	2.180	2.211	2.103	1.916	1.818	1.684	1.848	1.424	1.323	1.407	1.398	1.742	2.017	1.858	1.393	1.340	1.364	1.240	1.403	1.342	1.434	1.642	1.739	1.498	1.624	1.531	1.667	2.029	3.745	10.14	21.63	84.55	495.5
610.0	69.48	81.39	80.32	52.49	31.73	21.40	22.83	25.63	32.58	45.04	70.36	103.7	64.53	46.15	40.30	226.2	2544	2151	37.96	7.596	6.352	5.565	5.208	4.856	4.580	4.556	4.058	4.098	4.340	4.356	3.809	3.886	3.734	3.302	3.109	2.868	2.870	2.968	2.505	2.397	2.085	2.233	2.125	1.982	1.869	1.999	1.858	1.780	1.617	1.442	1.357	1.332	1.192	1.277	1.260	1.320	1.629	1.717	1.391	1.368	1.313	1.281	1.352	1.382	1.417	1.563	1.757	1.791	1.764	1.877	1.655	1.612	1.972	3.380	5.808	19.74	113.1
615.0	61.78	75.23	78.49	50.51	32.03	19.81	19.73	22.39	32.14	43.84	58.97	96.18	78.99	48.78	34.39	65.17	682.9	3183	486.8	8.475	6.034	5.273	4.931	4.082	3.722	3.740	3.711	3.652	3.580	3.625	3.333	3.093	3.179	2.968	2.623	2.535	2.517	2.509	2.271	2.061	1.905	1.806	1.868	1.707	1.554	1.465	1.634	1.598	1.409	1.260	1.151	1.041	1.102	1.041	1.060	1.092	1.248	1.461	1.305	1.487	1.377	1.244	1.343	1.300	1.394	1.514	1.703	1.767	1.891	1.749	1.663	1.617	1.650	1.898	2.131	5.222	25.85
620.0	56.56	71.95	74.29	51.87	28.79	20.74	20.15	24.17	30.58	43.20	57.16	80.84	91.65	52.42	35.94	28.82	168.0	2150	1827	20.05	5.679	4.619	3.940	3.731	3.446	3.163	3.243	3.160	3.273	2.939	2.899	2.655	2.739	2.666	2.530	2.269	2.083	2.002	2.046	1.741	1.740	1.563	1.582	1.605	1.471	1.400	1.524	1.438	1.263	1.188	1.036	1.077	1.031	0.956	1.067	0.899	0.995	1.250	1.317	1.454	1.259	1.139	1.273	1.350	1.488	1.397	1.442	1.647	1.857	1.851	1.519	1.423	1.476	1.357	1.324	1.990	6.593
625.0	52.87	74.37	68.06	49.93	28.54	19.63	19.81	24.50	31.29	40.00	56.92	72.52	95.65	56.19	35.88	21.61	46.94	801.3	2948	73.96	5.970	4.334	3.666	3.267	3.167	2.996	2.743	3.065	2.592	2.872	2.585	2.424	2.201	2.369	2.133	1.927	1.860	1.710	1.923	1.699	1.540	1.366	1.387	1.296	1.231	1.281	1.206	1.284	1.106	1.080	0.992	0.933	0.984	0.855	0.982	0.905	0.925	1.107	1.254	1.480	1.203	1.085	1.237	1.226	1.462	1.295	1.568	1.641	1.791	1.871	1.697	1.470	1.208	1.214	1.024	1.211	2.151
630.0	47.56	68.84	66.19	48.24	25.66	18.40	20.01	23.55	31.27	40.89	55.84	67.95	84.15	70.49	38.65	19.43	19.81	198.1	2042	1261	22.88	4.335	3.914	3.130	2.893	2.704	2.576	2.515	2.498	2.573	2.415	2.077	1.963	2.025	1.861	1.684	1.710	1.568	1.605	1.488	1.493	1.167	1.204	1.168	1.071	1.168	1.115	1.133	0.962	0.975	0.906	0.816	0.797	0.765	0.861	0.788	0.849	0.931	0.999	1.193	1.279	1.142	1.023	1.184	1.205	1.111	1.295	1.384	1.432	1.588	1.490	1.391	1.076	1.002	0.912	0.874	1.011
635.0	50.59	62.56	62.47	46.76	25.05	19.45	18.83	24.10	32.34	42.02	53.24	65.59	70.51	75.16	41.71	19.21	13.23	50.32	571.4	2444	334.6	4.907	3.424	3.050	2.819	2.545	2.469	2.035	2.150	2.086	1.958	1.883	1.650	1.935	1.667	1.442	1.569	1.360	1.268	1.197	1.352	1.246	1.035	1.094	1.026	1.062	0.968	0.951	0.931	0.894	0.847	0.746	0.870	0.645	0.681	0.698	0.783	0.728	0.811	0.861	0.956	1.052	0.909	0.913	0.987	0.980	1.153	1.152	1.219	1.236	1.251	1.315	1.000	0.814	0.717	0.662	0.699
640.0	46.43	60.76	65.26	41.88	24.34	18.15	17.99	22.49	29.84	41.60	51.83	63.08	64.53	71.35	49.98	19.02	11.03	17.02	138.3	1841	1278	11.72	3.235	3.058	2.550	2.411	2.148	1.973	1.877	1.999	1.759	1.720	1.691	1.557	1.493	1.500	1.475	1.428	1.091	1.059	1.046	1.359	0.974	1.016	1.015	0.980	0.852	0.938	0.851	0.851	0.761	0.761	0.687	0.594	0.636	0.721	0.895	0.664	0.668	0.748	0.796	0.889	0.846	0.969	0.888	1.023	0.994	0.993	1.078	1.057	1.054	1.050	0.973	0.810	0.642	0.616	0.519
645.0	47.99	58.00	54.89	42.54	23.84	18.45	18.11	22.05	33.08	40.90	51.48	62.06	60.96	63.28	55.32	19.54	10.80	9.518	36.07	759.3	2223	57.77	3.641	2.967	2.758	1.901	1.937	1.902	1.890	1.970	1.760	1.696	1.624	1.532	1.361	1.506	1.317	1.261	1.048	1.133	1.014	1.115	1.035	0.925	0.949	0.872	0.858	0.865	0.759	0.826	0.771	0.673	0.719	0.671	0.643	0.748	0.764	0.682	0.608	0.605	0.751	0.787	0.869	0.934	0.832	1.012	0.855	0.852	1.021	0.825	0.809	0.951	0.968	0.859	0.512	0.533	0.530
650.0	46.39	58.47	55.77	39.38	24.55	18.59	17.96	21.58	29.63	39.61	49.54	60.90	61.50	55.43	59.06	21.66	9.675	7.273	12.65	203.0	2160	467.2	4.588	3.056	3.006	1.840	1.861	1.763	1.978	1.615	1.566	1.643	1.470	1.443	1.211	1.346	1.265	1.166	1.044	1.060	0.910	1.057	1.078	0.864	0.907	0.885	0.896	0.798	0.792	0.793	0.680	0.756	0.621	0.588	0.563	0.622	0.610	0.616	0.530	0.602	0.667	0.603	0.653	0.824	0.753	0.756	0.761	0.890	0.784	0.813	0.752	0.785	0.745	0.830	0.405	0.475	0.409
