Sample:	'1
File name:	T2025041715по╪рдоге.FD3
Run date:	'15:55:20, 04/21/2025
Operator:	Administrator
Comment:	'

Instrument
Model:	F-2700 FL Spectrophotometer
Serial number:	23B8-004
ROM Version:	4J14000 07

Instrument parameters
Measurement type:	3-D scan
Data mode:	Fluorescence
EX  Start WL:	220.0 nm
EX  End WL:	600.0 nm
EX Sampling interval:	5.0 nm
EM  Start WL:	230.0 nm
EM  End WL:	650.0 nm
EM Sampling interval:	5.0 nm
Scan speed:	12000 nm/min
EX Slit:	5.0 nm
EM Slit:	5.0 nm
PMT Voltage:	700 V
Response:	Auto 
Corrected spectra:	Off
Contour interval:	50.000

Peak integration
Integration method:	Rectangular
Sensitivity:	1
Threshold:	1.000

Peaks
No.	ApexEX/EM(nm)	Height(Data)
1	225.0/575.0	67.61
2	225.0/610.0	52.32
3	225.0/625.0	52.68
4	230.0/340.0	1165
5	230.0/500.0	283.4
6	235.0/510.0	242.7
7	240.0/265.0	348.8
8	240.0/525.0	207.4
9	245.0/270.0	345.9
10	245.0/535.0	186.6
11	250.0/275.0	434.6
12	250.0/550.0	150.0
13	255.0/280.0	541.6
14	255.0/560.0	129.9
15	260.0/285.0	548.0
16	260.0/575.0	101.8
17	265.0/585.0	99.59
18	270.0/300.0	918.5
19	270.0/595.0	88.18
20	275.0/305.0	1196
21	275.0/610.0	89.17
22	280.0/310.0	1146
23	280.0/620.0	78.82
24	285.0/315.0	1077
25	285.0/635.0	58.78
26	290.0/325.0	947.2
27	315.0/355.0	352.9
28	320.0/360.0	327.3
29	325.0/370.0	302.6
30	330.0/375.0	297.0
31	335.0/380.0	295.0
32	340.0/390.0	263.8
33	345.0/395.0	249.6
34	350.0/400.0	250.2
35	360.0/415.0	212.1
36	365.0/420.0	208.6
37	430.0/505.0	28.22
38	440.0/520.0	19.87
39	445.0/525.0	16.84
40	460.0/340.0	3.782
41	475.0/350.0	3.408
42	505.0/275.0	3.026
43	510.0/280.0	3.328
44	520.0/285.0	3.701
45	530.0/290.0	3.652
46	540.0/295.0	4.511
47	545.0/300.0	5.517
48	555.0/305.0	6.299
49	560.0/310.0	6.261
50	575.0/315.0	6.132
51	580.0/320.0	6.017
52	585.0/325.0	5.764

Data points
	220.0	225.0	230.0	235.0	240.0	245.0	250.0	255.0	260.0	265.0	270.0	275.0	280.0	285.0	290.0	295.0	300.0	305.0	310.0	315.0	320.0	325.0	330.0	335.0	340.0	345.0	350.0	355.0	360.0	365.0	370.0	375.0	380.0	385.0	390.0	395.0	400.0	405.0	410.0	415.0	420.0	425.0	430.0	435.0	440.0	445.0	450.0	455.0	460.0	465.0	470.0	475.0	480.0	485.0	490.0	495.0	500.0	505.0	510.0	515.0	520.0	525.0	530.0	535.0	540.0	545.0	550.0	555.0	560.0	565.0	570.0	575.0	580.0	585.0	590.0	595.0	600.0
230.0	55.43	679.3	2161	871.5	41.86	7.617	6.297	5.345	4.697	4.204	3.771	3.246	2.995	2.781	2.316	1.889	1.750	1.531	1.332	1.279	1.156	1.110	1.070	0.998	0.979	0.891	0.915	0.766	0.764	0.807	0.723	0.729	0.742	0.712	0.686	0.609	0.598	0.596	0.587	0.594	0.588	0.670	0.769	0.621	0.558	0.492	0.990	3.924	8.008	6.667	2.879	0.801	0.413	0.382	0.373	0.372	0.389	0.356	0.367	0.367	0.377	0.342	0.388	0.365	0.363	0.361	0.357	0.400	0.351	0.342	0.373	0.342	0.334	0.367	0.350	0.364	0.348
235.0	123.4	209.0	1175	2456	578.6	70.02	8.635	6.079	4.633	4.441	4.401	3.764	3.095	2.429	2.365	2.214	1.799	1.924	1.445	1.261	1.075	1.169	1.047	0.874	1.076	1.059	0.935	0.903	0.824	0.839	0.775	0.778	0.810	0.707	0.792	0.592	0.720	0.559	0.654	0.611	0.543	0.601	0.705	0.695	0.793	0.622	0.593	1.304	2.961	5.059	7.832	9.070	5.183	1.534	0.552	0.431	0.380	0.417	0.381	0.404	0.435	0.371	0.372	0.395	0.359	0.345	0.333	0.418	0.337	0.345	0.317	0.372	0.372	0.375	0.355	0.389	0.365
240.0	162.7	153.7	339.5	1817	2468	461.9	41.03	7.887	5.584	4.332	4.618	4.044	3.152	2.961	2.479	2.187	1.808	1.706	1.424	1.161	1.093	1.237	1.161	0.978	0.991	0.976	0.931	0.956	0.817	0.838	0.859	0.769	0.721	0.819	0.702	0.566	0.667	0.620	0.625	0.541	0.565	0.569	0.557	0.571	0.928	0.868	0.688	0.632	1.036	1.664	3.904	9.763	14.19	10.79	4.880	1.106	0.464	0.414	0.416	0.412	0.346	0.352	0.380	0.404	0.349	0.327	0.332	0.391	0.331	0.386	0.312	0.372	0.436	0.362	0.387	0.400	0.400
245.0	109.4	221.7	160.6	583.8	2286	2671	362.4	21.18	6.749	5.943	5.266	3.846	3.704	3.156	2.510	2.435	2.052	1.747	1.435	1.435	1.219	1.186	1.139	0.960	0.954	0.863	0.946	0.864	0.917	0.927	0.794	0.847	0.758	0.688	0.642	0.604	0.669	0.663	0.557	0.616	0.663	0.527	0.577	0.502	0.739	0.740	1.010	0.904	0.748	0.684	1.204	3.159	8.240	14.09	17.29	10.46	3.768	0.825	0.404	0.463	0.399	0.370	0.450	0.422	0.356	0.366	0.386	0.349	0.378	0.411	0.373	0.363	0.395	0.350	0.374	0.453	0.393
250.0	60.23	151.5	252.0	244.0	693.7	2162	3095	1257	94.60	7.345	5.997	5.109	4.059	3.455	2.609	2.275	2.170	1.706	1.449	1.693	1.421	1.221	1.215	1.055	0.968	0.998	0.993	0.923	0.928	0.899	0.813	0.780	0.710	0.721	0.715	0.677	0.663	0.660	0.658	0.589	0.641	0.617	0.583	0.573	0.694	0.561	0.671	0.923	1.135	0.986	0.840	1.102	2.299	4.436	8.755	13.57	18.84	18.18	11.88	4.312	0.913	0.408	0.434	0.461	0.409	0.370	0.390	0.418	0.452	0.394	0.439	0.410	0.413	0.399	0.427	0.392	0.427
255.0	42.91	58.21	153.7	321.7	262.5	536.2	1897	4659	1886	112.4	9.119	7.004	4.747	4.166	3.281	2.652	2.326	1.928	1.604	1.688	1.444	1.300	1.223	1.128	1.092	1.017	0.950	0.887	0.945	0.997	0.991	0.801	0.744	0.858	0.675	0.662	0.562	0.621	0.584	0.597	0.610	0.642	0.704	0.640	0.577	0.545	0.578	0.590	0.695	0.872	1.314	1.481	1.243	1.361	2.357	3.568	5.959	13.38	27.82	29.71	19.93	5.716	0.870	0.529	0.443	0.486	0.360	0.396	0.401	0.415	0.439	0.544	0.418	0.352	0.408	0.404	0.470
260.0	46.89	39.12	64.04	253.8	325.0	190.7	538.5	3127	5978	1453	62.36	9.046	5.718	5.550	3.703	2.895	2.611	2.069	1.620	1.735	1.638	1.235	1.125	1.111	1.114	0.948	1.019	1.035	1.016	0.995	1.010	0.747	0.750	0.862	0.741	0.711	0.627	0.630	0.605	0.648	0.652	0.606	0.660	0.614	0.590	0.542	0.532	0.565	0.580	0.622	0.943	1.531	2.123	1.362	1.046	1.233	1.751	3.765	10.35	23.21	39.51	29.33	17.13	3.740	0.569	0.508	0.422	0.455	0.369	0.470	0.432	0.512	0.386	0.406	0.436	0.443	0.569
265.0	48.84	36.29	33.66	115.8	348.8	269.2	166.4	945.5	4966	6124	1070	24.94	7.705	6.748	4.591	3.436	2.705	2.280	2.095	1.716	1.645	1.532	1.312	1.280	1.106	1.051	1.079	1.003	1.157	0.942	1.085	0.897	0.898	0.760	0.753	0.755	0.787	0.655	0.773	0.616	0.665	0.632	0.554	0.639	0.590	0.575	0.506	0.540	0.490	0.466	0.504	0.849	1.740	2.003	1.771	0.999	0.820	1.321	2.825	6.521	17.27	35.62	51.42	28.09	12.56	1.728	0.638	0.534	0.443	0.437	0.453	0.491	0.493	0.402	0.482	0.433	0.504
270.0	67.23	48.24	35.89	51.27	152.8	345.9	299.6	272.9	1429	4430	6660	2607	69.69	9.208	6.311	4.182	3.583	2.729	2.274	2.053	1.833	1.595	1.521	1.334	1.204	1.239	1.201	1.108	1.067	1.044	1.015	1.011	0.888	0.851	0.858	0.804	0.809	0.705	0.711	0.708	0.674	0.639	0.616	0.619	0.668	0.660	0.626	0.551	0.580	0.505	0.483	0.548	0.838	1.157	1.704	2.120	2.018	1.472	1.221	1.981	4.422	9.758	20.42	33.30	46.85	44.83	19.07	9.577	1.693	0.521	0.518	0.494	0.525	0.503	0.490	0.462	0.497
275.0	121.4	95.06	77.93	52.31	59.59	141.3	434.6	341.3	371.9	1067	3368	9348	1289	78.48	9.203	6.390	4.372	3.451	2.649	2.600	2.050	1.734	1.547	1.329	1.575	1.363	1.077	0.994	1.212	1.084	1.076	1.146	1.033	0.942	0.762	0.895	0.772	0.833	0.784	0.805	0.656	0.729	0.670	0.683	0.729	0.753	0.716	0.698	0.708	0.611	0.484	0.603	0.640	0.638	0.838	1.151	1.989	3.026	2.574	1.494	1.596	2.628	5.134	8.079	12.68	24.48	53.03	73.45	29.06	12.73	1.325	0.599	0.544	0.506	0.579	0.560	0.574
280.0	153.2	154.6	128.4	83.37	49.20	65.09	242.7	541.6	278.9	296.4	910.1	5345	9535	1011	40.37	8.157	5.873	3.865	3.545	2.991	2.501	2.118	1.718	1.388	1.608	1.444	1.150	1.151	1.280	1.168	1.058	1.116	1.017	1.078	1.024	0.942	0.809	0.811	0.793	0.808	0.728	0.787	0.719	0.848	0.770	0.846	0.880	0.883	0.779	0.657	0.587	0.654	0.659	0.550	0.677	0.747	1.056	2.061	3.328	3.260	1.949	1.269	1.883	2.434	3.457	6.322	16.56	42.41	70.76	76.21	25.18	7.245	0.827	0.624	0.575	0.612	0.569
285.0	225.5	218.2	184.4	121.8	63.16	55.30	108.3	413.2	548.0	203.1	292.4	1508	7084	8248	681.7	17.23	7.016	4.781	3.895	2.941	2.861	2.170	1.836	1.656	1.572	1.444	1.360	1.288	1.169	1.224	1.011	1.183	1.055	1.180	1.089	1.013	0.975	0.905	0.809	0.790	0.858	0.867	0.764	0.930	0.832	1.055	0.915	1.057	1.049	0.833	0.679	0.666	0.680	0.639	0.643	0.670	0.733	1.064	1.775	2.652	3.701	2.564	1.419	1.328	1.522	2.230	4.483	10.94	25.73	59.00	84.47	34.11	19.07	2.968	0.594	0.760	0.680
290.0	293.6	307.0	262.2	168.0	96.86	72.43	83.37	185.0	480.6	565.0	245.2	487.8	1943	5662	7265	2260	38.88	7.607	5.205	3.803	3.108	2.529	2.180	1.803	1.769	1.692	1.422	1.467	1.304	1.338	1.287	1.193	1.126	1.142	1.184	1.159	1.115	1.075	0.990	0.840	0.859	0.912	0.948	0.954	0.928	1.192	1.046	1.288	1.134	1.030	0.826	0.842	0.842	0.652	0.798	0.784	0.772	0.855	1.089	1.388	2.269	3.105	3.652	2.932	2.004	1.618	2.052	3.540	6.885	15.06	29.18	41.38	61.97	54.14	44.41	13.08	3.150
295.0	323.4	390.4	343.8	225.8	132.7	105.1	114.3	146.3	261.2	568.4	737.3	400.8	634.2	1421	3458	9022	727.5	43.36	7.305	5.260	3.942	2.810	2.499	2.162	2.114	1.705	1.476	1.477	1.359	1.505	1.464	1.418	1.220	1.278	1.230	1.136	1.315	1.268	1.102	1.030	0.919	0.933	1.101	0.965	1.122	1.336	1.255	1.512	1.352	1.137	1.035	1.039	0.944	0.742	0.940	0.818	0.931	0.912	1.085	1.194	1.487	1.746	2.535	3.627	4.511	3.331	2.225	2.257	2.871	4.608	7.678	10.15	15.66	25.05	59.79	88.63	34.96
300.0	372.0	434.1	411.9	277.0	176.1	146.0	165.5	203.7	271.5	444.0	918.5	751.0	465.3	541.8	983.6	5141	8371	591.3	22.61	6.576	4.969	3.465	3.181	2.470	2.137	1.698	1.644	1.700	1.590	1.514	1.405	1.333	1.245	1.143	1.285	1.320	1.401	1.366	1.151	0.978	1.005	1.001	1.164	1.065	1.281	1.361	1.427	1.609	1.520	1.341	1.102	1.248	1.239	1.121	0.992	1.059	1.084	1.253	1.348	1.455	1.589	1.754	2.177	2.622	4.051	5.517	5.158	3.101	2.381	2.766	3.435	3.797	4.823	6.800	17.52	43.65	77.55
305.0	417.9	501.5	490.3	346.3	230.1	205.3	241.9	310.4	389.4	526.3	832.6	1196	722.9	482.5	480.4	1503	6595	5221	423.3	10.66	5.865	4.393	3.481	2.782	2.339	1.809	1.820	1.920	1.754	1.714	1.342	1.288	1.208	1.270	1.457	1.321	1.514	1.273	1.226	1.184	1.093	0.976	1.164	1.286	1.328	1.518	1.617	1.710	1.759	1.500	1.267	1.430	1.339	1.283	1.164	1.239	1.481	1.443	1.797	1.857	2.016	2.133	2.654	3.044	3.565	4.549	6.244	6.299	4.728	3.446	3.232	2.770	2.913	3.240	5.550	11.55	26.25
310.0	446.5	572.8	553.4	394.8	284.0	269.2	309.2	385.1	475.5	603.3	781.5	1077	1146	709.8	456.7	567.6	1906	4885	5740	1571	25.91	5.875	4.546	3.366	2.645	2.411	2.348	2.134	1.905	1.882	1.498	1.464	1.424	1.317	1.480	1.489	1.505	1.365	1.271	1.211	1.102	1.111	1.165	1.304	1.400	1.537	1.643	1.934	1.905	1.727	1.483	1.542	1.524	1.432	1.386	1.532	1.685	1.780	2.085	2.167	2.493	2.695	3.002	3.287	3.718	3.987	4.693	5.664	6.261	5.891	4.807	3.451	2.997	2.887	3.218	4.261	7.344
315.0	486.9	636.5	621.3	454.3	330.9	317.8	360.1	436.6	533.3	647.2	793.6	932.5	1050	1077	597.8	402.6	638.3	1245	3302	7531	518.5	23.67	6.270	4.509	3.238	3.005	2.509	2.426	2.190	2.148	1.603	1.502	1.589	1.345	1.474	1.512	1.551	1.252	1.359	1.290	1.219	1.174	1.302	1.314	1.580	1.714	1.972	2.088	2.018	1.812	1.720	1.677	1.748	1.586	1.729	1.785	1.904	2.074	2.165	2.319	2.832	2.812	3.150	3.586	3.939	3.943	4.222	4.793	5.058	5.364	6.116	6.132	4.497	3.284	2.654	2.844	3.414
320.0	532.1	714.7	706.5	501.8	372.1	334.2	384.6	465.1	559.6	674.0	812.5	931.7	940.7	1043	846.6	423.6	382.4	428.9	887.7	4935	6937	412.7	12.90	5.399	4.056	3.194	2.662	2.437	2.355	2.149	1.790	1.502	1.601	1.547	1.500	1.549	1.537	1.362	1.380	1.372	1.313	1.303	1.391	1.330	1.673	1.927	2.058	2.521	2.362	2.035	1.903	1.841	1.877	1.665	1.831	1.823	2.012	2.117	2.415	2.500	2.784	2.868	3.191	3.648	3.933	4.162	4.334	4.578	4.715	4.793	5.108	5.845	6.017	4.802	3.260	2.853	2.632
325.0	593.7	828.9	829.2	603.3	402.2	353.0	392.4	473.5	562.6	668.3	800.7	911.4	909.3	876.4	947.2	563.6	339.4	256.7	269.3	1396	6399	3866	59.30	8.231	5.309	4.090	3.090	2.751	2.375	2.403	1.859	1.709	1.623	1.493	1.424	1.491	1.397	1.437	1.332	1.242	1.309	1.347	1.519	1.445	1.890	2.052	2.231	2.910	2.612	2.400	2.084	2.077	1.883	1.773	1.919	1.955	2.195	2.256	2.343	2.645	2.745	2.833	3.236	3.728	3.956	3.973	4.033	4.478	4.812	4.675	4.680	4.811	5.154	5.764	4.689	3.539	2.665
330.0	629.6	928.2	984.5	753.5	498.1	399.0	397.0	459.8	543.3	638.3	772.8	868.9	872.9	791.5	756.2	698.4	456.5	240.8	153.8	371.6	1820	4390	4828	1168	18.72	5.455	4.028	3.108	2.733	2.448	2.018	1.847	1.673	1.627	1.503	1.475	1.511	1.383	1.413	1.226	1.372	1.388	1.495	1.509	1.842	2.256	2.404	3.007	3.302	2.884	2.571	2.499	2.351	2.036	2.071	2.095	2.221	2.227	2.423	2.552	2.660	2.799	3.083	3.452	3.744	3.930	4.150	4.442	4.377	4.540	4.376	4.077	4.193	4.672	4.590	4.671	4.083
335.0	676.6	1013	1117	941.6	648.4	456.9	424.0	464.4	539.8	623.1	739.9	837.3	843.5	769.8	669.9	579.7	607.0	352.0	161.2	167.6	463.2	1057	3437	6624	412.4	18.03	5.349	4.106	3.536	2.642	2.116	2.070	2.027	1.800	1.676	1.727	1.529	1.521	1.370	1.389	1.417	1.448	1.487	1.559	1.934	2.349	2.680	3.348	3.560	3.139	2.903	3.032	2.932	2.498	2.315	2.250	2.369	2.172	2.393	2.478	2.562	2.802	3.060	3.475	3.618	3.805	3.863	4.153	4.342	4.368	4.120	4.059	4.054	3.795	3.714	3.573	4.147
340.0	683.5	1010	1165	983.2	695.5	489.4	436.0	461.7	518.5	592.2	701.0	793.0	809.7	737.1	642.6	514.1	540.4	490.7	213.2	138.3	174.6	285.3	933.7	5001	5645	334.6	8.872	5.305	3.840	3.311	2.352	2.156	1.992	1.877	1.639	1.722	1.462	1.358	1.381	1.466	1.387	1.449	1.543	1.562	1.821	2.275	2.872	3.383	3.782	3.409	2.937	3.272	3.170	2.587	2.363	2.210	2.161	2.203	2.413	2.536	2.509	2.889	3.070	3.278	3.448	3.713	3.684	4.009	4.354	4.209	4.294	3.956	3.857	3.798	3.369	3.361	3.188
345.0	665.2	989.4	1157	988.6	696.9	496.2	433.1	435.6	496.3	561.8	660.5	737.2	763.2	710.4	608.0	481.1	435.2	488.8	325.4	153.2	122.2	123.9	253.5	1498	5900	3203	49.58	7.173	4.650	3.632	2.814	2.391	1.985	1.929	1.788	1.746	1.480	1.386	1.393	1.409	1.288	1.382	1.482	1.477	1.691	2.262	2.766	3.309	3.511	3.351	3.114	3.405	3.108	2.571	2.325	2.158	2.419	2.214	2.168	2.420	2.413	2.742	2.724	3.307	3.416	3.417	3.478	3.760	3.842	3.946	4.109	3.692	3.737	3.709	3.274	3.337	3.147
350.0	611.9	880.0	1071	979.0	715.9	517.6	428.4	430.2	476.3	530.7	606.5	673.4	693.3	657.5	573.6	468.0	394.6	374.5	380.9	266.7	142.1	106.2	116.4	378.1	1757	4156	4160	977.2	15.28	4.730	3.287	2.692	2.328	1.958	1.697	1.680	1.452	1.473	1.249	1.251	1.273	1.230	1.328	1.388	1.672	2.121	2.472	3.124	3.129	3.090	3.007	3.408	3.039	2.772	2.425	2.122	2.099	2.195	2.249	2.430	2.292	2.555	2.705	2.983	3.216	3.202	3.225	3.524	3.595	3.578	3.591	3.574	3.433	3.395	3.054	3.169	2.788
355.0	539.1	802.7	986.3	924.0	706.3	530.2	443.2	433.5	458.3	504.7	573.0	627.1	634.3	612.6	543.7	457.3	390.7	334.6	307.3	352.9	241.6	128.4	105.9	142.6	430.4	1002	3283	5924	373.4	16.15	4.500	3.407	2.596	2.162	1.850	1.548	1.460	1.470	1.357	1.253	1.142	1.191	1.219	1.475	1.587	2.030	2.247	2.644	2.902	2.918	2.730	3.339	3.072	2.726	2.643	2.248	2.093	2.236	2.330	2.360	2.281	2.479	2.756	2.923	2.961	2.920	2.918	3.155	3.536	3.223	3.435	3.547	3.122	3.441	3.169	3.024	2.991
360.0	518.9	765.3	920.6	870.7	694.8	541.4	451.3	448.1	464.4	491.5	546.1	589.2	595.4	574.3	521.1	449.0	391.8	330.7	282.0	308.9	327.3	181.0	117.5	104.1	145.0	259.5	903.7	4842	5152	310.4	7.885	4.551	3.337	2.473	1.851	1.692	1.661	1.461	1.378	1.214	1.152	1.356	1.251	1.398	1.568	1.868	2.085	2.537	2.699	2.779	2.595	3.005	2.975	2.522	2.608	2.258	2.001	2.104	2.241	2.339	2.281	2.333	2.524	2.852	2.802	2.798	3.036	2.883	3.186	3.112	3.230	3.341	3.117	3.344	3.024	3.114	2.835
365.0	476.5	687.5	822.1	803.0	683.2	539.8	457.0	455.5	451.2	486.0	520.2	561.9	564.7	552.0	501.7	446.3	390.5	339.3	289.5	272.0	327.3	272.4	147.5	109.2	95.14	102.5	234.4	1505	5816	3048	45.69	5.847	3.772	2.953	2.071	1.911	1.691	1.523	1.470	1.272	1.165	1.272	1.215	1.328	1.472	1.805	2.007	2.307	2.559	2.467	2.448	2.898	2.867	2.675	2.417	2.036	2.047	2.167	2.165	2.305	2.347	2.512	2.572	2.726	2.776	2.617	2.775	2.806	2.956	3.004	3.193	3.132	2.899	3.057	3.035	2.721	2.743
370.0	438.9	640.2	766.9	755.5	658.4	545.7	469.1	453.8	455.5	480.0	508.9	531.4	539.8	520.6	486.1	433.5	392.5	349.5	306.5	275.5	273.6	302.6	245.1	146.6	105.4	85.32	97.05	369.8	1772	4513	4155	913.4	14.18	3.740	2.664	2.218	1.864	1.630	1.484	1.369	1.186	1.263	1.284	1.318	1.474	1.695	1.848	2.229	2.425	2.298	2.214	2.806	2.753	2.659	2.499	2.149	2.147	2.336	2.329	2.259	2.347	2.456	2.522	2.657	2.747	2.552	2.668	2.678	2.736	2.896	3.053	2.916	2.802	3.102	2.928	2.783	2.909
375.0	429.2	598.4	703.3	732.7	642.9	553.7	486.5	457.7	460.1	483.4	502.4	510.7	512.2	493.9	473.1	423.5	392.1	360.5	324.7	294.7	269.6	259.8	297.0	237.8	136.9	101.1	83.90	127.6	427.4	1096	3505	5706	324.9	13.69	3.643	2.823	2.100	1.781	1.475	1.391	1.345	1.368	1.372	1.320	1.439	1.681	1.667	2.057	2.314	2.095	2.208	2.537	2.753	2.523	2.510	2.248	2.310	2.396	2.448	2.582	2.477	2.413	2.369	2.641	2.545	2.566	2.553	2.719	3.006	2.725	3.042	2.734	2.869	3.186	2.989	2.774	2.936
380.0	408.8	565.4	671.0	678.5	633.0	556.3	488.6	476.4	469.0	479.6	496.2	505.6	497.7	484.2	456.2	419.2	391.0	363.7	336.5	306.8	276.0	256.2	267.1	295.0	187.0	119.3	92.70	84.68	136.0	274.6	980.5	4713	4741	259.0	6.419	3.411	2.534	2.006	1.709	1.685	1.354	1.357	1.347	1.283	1.342	1.612	1.607	2.105	2.225	2.307	2.135	2.570	2.750	2.609	2.496	2.381	2.273	2.365	2.437	2.386	2.488	2.451	2.425	2.465	2.568	2.477	2.782	2.471	2.837	2.813	2.966	2.721	2.695	3.047	2.771	2.876	3.094
385.0	406.7	530.0	648.8	649.2	616.2	551.5	508.5	485.4	476.0	480.6	487.1	490.1	487.7	472.9	447.7	413.4	389.6	369.1	342.8	318.0	288.8	264.6	248.8	279.0	253.8	149.8	109.5	86.04	82.49	98.81	246.9	1448	5146	2575	37.99	4.771	2.945	2.350	1.741	1.759	1.428	1.395	1.283	1.344	1.458	1.714	1.649	2.093	1.941	2.238	2.001	2.491	2.624	2.504	2.477	2.347	2.397	2.384	2.290	2.391	2.474	2.441	2.620	2.608	2.460	2.398	2.712	2.783	2.747	2.726	2.738	2.713	2.691	2.852	2.647	2.928	2.849
390.0	393.3	511.2	604.7	638.5	614.0	558.2	507.9	497.6	480.4	484.3	477.3	484.8	477.5	460.0	438.3	407.2	384.9	368.7	347.1	325.8	300.4	277.6	255.4	247.5	263.8	226.8	144.8	105.3	85.44	73.42	92.31	350.6	1523	3415	3319	809.8	12.31	3.099	2.328	1.924	1.538	1.588	1.392	1.458	1.445	1.573	1.627	1.957	1.924	2.027	1.961	2.402	2.511	2.462	2.456	2.359	2.627	2.410	2.405	2.569	2.370	2.500	2.486	2.511	2.524	2.502	2.542	2.570	2.603	2.543	2.597	2.525	2.679	2.772	2.707	2.799	2.659
395.0	370.1	502.2	602.8	624.4	601.2	553.4	517.9	506.8	488.1	485.4	478.6	474.8	462.7	451.2	430.5	396.9	380.8	365.0	350.0	331.1	313.2	290.7	268.0	245.5	235.7	249.6	218.1	137.0	104.2	83.95	71.48	113.4	363.5	821.5	2534	4676	277.8	14.32	3.149	2.312	1.949	1.780	1.569	1.448	1.413	1.634	1.682	1.995	2.046	2.017	1.807	2.288	2.590	2.502	2.416	2.397	2.550	2.662	2.456	2.553	2.396	2.416	2.354	2.396	2.486	2.633	2.503	2.489	2.445	2.427	2.443	2.665	2.672	2.556	2.616	2.806	2.857
400.0	377.6	502.1	595.9	606.6	585.6	554.5	527.2	510.4	495.8	480.9	475.6	471.9	448.7	442.3	424.4	393.1	370.6	360.5	348.4	329.4	312.9	294.2	279.5	252.3	236.0	229.1	250.2	182.7	122.5	97.32	77.30	68.59	111.3	204.8	685.8	3483	3844	243.1	7.178	2.844	2.178	1.811	1.606	1.553	1.524	1.783	1.652	1.919	2.034	2.075	1.955	2.334	2.538	2.519	2.663	2.309	2.628	2.492	2.520	2.579	2.637	2.552	2.467	2.450	2.442	2.520	2.575	2.426	2.436	2.444	2.397	2.525	2.508	2.510	2.447	2.707	2.875
405.0	388.9	484.6	578.7	604.6	580.4	559.6	534.4	513.7	501.6	490.8	472.3	466.9	445.8	434.0	411.8	385.3	366.7	355.1	346.4	326.1	313.8	296.6	281.4	259.4	241.8	223.9	236.3	229.4	152.9	112.3	86.85	67.39	61.78	72.29	172.4	1007	3657	2249	35.69	4.235	2.603	1.935	1.763	1.665	1.646	1.777	1.557	1.859	1.893	1.817	1.844	2.329	2.525	2.594	2.476	2.328	2.496	2.572	2.475	2.532	2.685	2.487	2.478	2.447	2.419	2.564	2.404	2.466	2.391	2.480	2.363	2.426	2.602	2.456	2.640	2.653	2.649
410.0	356.3	477.4	558.6	596.0	583.0	561.5	533.1	513.0	499.6	487.4	474.7	465.0	442.6	429.1	400.1	375.1	357.8	346.5	335.4	319.0	308.5	295.8	282.2	266.6	248.0	228.6	218.1	226.8	207.1	144.3	103.3	78.89	59.45	50.30	62.44	242.6	1025	2463	2640	777.0	12.53	2.574	1.908	1.883	1.648	1.753	1.759	1.830	1.879	1.830	1.872	2.300	2.451	2.396	2.447	2.300	2.404	2.597	2.601	2.550	2.515	2.584	2.500	2.387	2.495	2.436	2.517	2.443	2.390	2.399	2.413	2.444	2.603	2.375	2.631	2.558	2.643
415.0	354.3	469.2	536.6	584.1	566.2	556.0	533.9	513.5	500.2	484.7	476.7	458.8	435.3	415.7	384.9	357.3	342.3	327.7	319.1	307.9	301.5	291.5	279.6	265.7	250.7	233.2	216.9	205.3	212.1	193.1	128.2	91.05	69.26	52.46	44.13	75.37	243.4	579.5	1637	3349	262.2	15.34	2.662	2.129	1.953	1.802	1.730	1.717	2.078	1.839	1.836	2.391	2.362	2.137	2.432	2.405	2.434	2.640	2.601	2.597	2.443	2.526	2.591	2.457	2.528	2.426	2.317	2.523	2.395	2.341	2.479	2.384	2.573	2.317	2.388	2.459	2.548
420.0	368.8	464.2	522.9	571.5	540.5	534.6	525.8	512.7	499.7	484.6	466.7	452.8	423.9	403.0	370.4	345.6	330.7	317.0	308.4	303.2	290.8	283.6	273.6	265.0	249.6	233.5	216.7	201.4	194.5	208.6	159.8	103.1	76.59	57.46	44.05	42.25	72.83	143.0	420.6	2126	2938	240.2	8.882	2.461	2.146	1.995	1.796	1.861	1.954	1.809	1.819	2.264	2.191	2.183	2.309	2.429	2.589	2.444	2.477	2.689	2.359	2.557	2.364	2.653	2.441	2.302	2.242	2.270	2.295	2.285	2.172	2.322	2.312	2.343	2.410	2.237	2.464
425.0	333.0	434.8	501.8	563.9	535.1	516.9	518.6	506.2	492.5	477.3	471.2	446.8	416.1	393.6	360.6	337.5	319.8	308.9	298.0	294.1	282.8	278.0	268.9	259.0	247.2	234.2	218.1	203.6	187.6	193.0	185.5	123.0	83.91	64.44	49.04	38.79	37.73	46.68	105.5	575.7	2337	2086	192.7	4.577	2.442	2.002	1.833	1.866	2.136	1.790	1.767	2.140	2.206	2.348	2.305	2.404	2.446	2.543	2.378	2.647	2.326	2.638	2.588	2.547	2.288	2.257	2.465	2.183	2.226	2.233	2.292	2.203	2.241	2.472	2.246	2.265	2.296
430.0	387.4	413.2	491.6	523.7	517.4	513.1	518.5	501.0	492.7	472.8	466.8	441.6	406.9	379.7	345.4	318.9	302.0	292.8	282.2	276.8	267.9	265.2	259.5	251.5	241.6	231.7	217.7	203.7	189.9	178.3	176.6	156.8	105.4	73.86	56.34	43.55	34.86	29.78	37.92	138.9	614.6	1610	2059	757.3	13.84	2.492	2.107	2.029	2.165	1.808	1.852	2.085	2.177	2.181	2.267	2.308	2.422	2.597	2.424	2.496	2.378	2.398	2.496	2.465	2.444	2.265	2.433	2.281	2.191	2.195	2.207	2.136	2.231	2.262	2.217	2.146	2.276
435.0	678.7	418.8	453.5	511.4	500.8	512.4	507.3	485.7	484.0	463.7	462.7	437.6	402.5	368.2	331.9	303.4	288.7	280.0	269.2	264.6	255.9	252.9	247.8	241.2	236.1	228.4	217.0	204.5	189.4	175.2	159.8	155.8	137.4	91.44	65.07	50.61	39.40	30.42	25.89	44.04	146.6	371.3	974.7	2533	1138	19.49	2.815	2.330	2.239	1.838	1.760	2.128	2.142	2.069	2.341	2.324	2.485	2.559	2.543	2.539	2.530	2.246	2.426	2.458	2.403	2.390	2.496	2.180	2.236	2.198	2.347	2.275	2.229	2.212	2.059	1.996	2.154
440.0	916.5	489.4	452.6	474.0	494.3	503.4	488.7	491.3	482.8	477.5	452.2	423.9	393.2	358.9	321.8	295.9	278.9	263.4	260.2	252.2	247.5	242.4	241.8	234.7	229.9	220.9	212.9	202.9	191.2	176.3	156.9	142.8	144.4	110.4	72.41	54.93	43.15	33.64	25.61	24.85	43.91	91.53	238.9	1349	2605	241.1	12.67	2.580	2.188	1.928	1.898	2.167	2.039	2.237	2.296	2.278	2.315	2.683	2.423	2.530	2.529	2.569	2.448	2.427	2.329	2.582	2.573	2.194	2.122	2.187	2.132	2.310	2.007	2.110	1.929	2.034	2.131
445.0	935.9	739.0	455.4	477.0	496.5	484.8	471.5	484.7	469.8	469.3	443.1	420.0	384.4	348.4	313.2	282.1	268.9	251.2	250.1	240.5	234.4	231.0	230.3	227.3	221.1	214.0	205.4	197.1	190.2	172.2	157.0	136.7	130.7	124.2	86.61	59.93	46.47	36.98	28.51	22.81	23.38	30.56	61.74	343.5	1643	1964	193.7	8.199	2.555	2.028	1.919	2.055	2.153	2.222	2.178	2.368	2.373	2.390	2.353	2.324	2.510	2.332	2.377	2.440	2.167	2.353	2.349	2.295	2.153	2.206	2.005	2.125	1.962	1.916	1.923	1.827	2.009
450.0	638.6	1290	640.9	447.8	455.6	460.2	459.7	461.5	451.3	445.1	428.7	401.4	361.7	329.2	294.9	265.1	248.9	235.7	230.1	223.0	216.8	214.5	214.4	211.3	208.2	202.7	195.0	188.4	181.6	167.9	153.6	133.6	119.2	114.2	103.1	72.65	51.67	40.21	31.68	25.19	20.77	18.88	23.41	84.32	411.4	1190	1685	804.7	14.06	2.527	2.114	2.134	2.264	2.210	2.152	2.154	2.178	2.313	2.256	2.334	2.491	2.098	2.183	2.247	2.239	2.341	2.289	2.201	2.085	2.039	1.933	1.987	1.804	1.934	1.956	1.919	1.883
455.0	338.5	1179	1248	442.8	417.1	419.9	429.7	440.9	438.4	428.6	411.7	380.1	342.1	303.0	274.7	244.4	227.8	214.6	213.0	202.9	199.5	197.9	194.9	193.5	191.1	185.3	182.8	175.7	169.7	161.2	147.4	130.8	113.0	98.81	96.33	89.54	61.02	43.59	34.48	27.33	22.04	18.38	16.34	27.25	98.34	272.2	637.8	1877	1079	18.23	2.471	2.337	2.209	2.118	2.124	2.050	2.333	2.255	2.221	2.219	2.486	2.256	2.084	2.307	2.239	2.221	2.160	2.015	1.947	1.981	1.804	1.738	1.743	1.762	1.816	1.571	1.725
460.0	265.6	757.7	1954	613.4	399.5	399.5	400.1	419.2	408.2	406.1	389.1	359.9	326.4	291.0	259.0	227.5	214.8	201.6	195.3	187.2	183.3	183.1	182.9	179.1	179.8	175.8	170.5	167.0	160.5	154.1	141.1	125.7	110.4	93.08	84.73	87.85	70.99	47.57	36.05	29.54	23.54	18.86	15.78	15.74	29.52	67.23	151.8	838.3	2008	769.5	13.13	2.673	2.202	2.176	2.132	2.163	2.011	2.176	2.120	2.138	2.145	2.180	2.172	2.156	2.115	2.172	2.050	2.016	2.011	1.811	1.816	1.891	1.612	1.706	1.644	1.679	1.806
465.0	240.0	453.1	2063	928.2	389.0	392.8	385.5	391.4	383.9	381.4	364.1	340.4	318.0	277.7	240.4	218.7	200.8	189.3	182.4	174.7	171.8	168.4	168.8	166.4	166.3	164.1	160.2	155.8	153.1	144.0	135.8	121.9	105.8	90.10	79.22	77.80	75.78	55.45	37.77	30.31	24.25	20.55	16.40	13.82	14.65	21.73	40.24	204.7	1122	1792	167.3	10.87	2.628	2.104	2.164	1.917	1.833	2.102	2.252	2.043	2.161	2.034	2.013	2.076	2.100	2.009	1.900	1.889	1.741	1.762	1.678	1.894	1.653	1.697	1.621	1.564	1.732
470.0	240.3	299.5	1243	1726	577.3	353.1	348.5	367.6	361.4	350.4	339.6	315.9	284.3	249.3	220.1	196.3	180.9	170.1	163.4	158.8	154.9	150.3	150.9	149.5	149.6	146.8	145.8	142.6	139.8	134.3	124.8	113.0	98.71	86.98	74.11	66.53	65.97	61.17	43.80	31.73	25.40	21.06	17.43	14.59	12.55	12.46	15.41	50.92	273.8	864.2	1183	696.0	15.53	2.638	2.317	2.074	1.923	1.962	2.044	1.989	2.103	2.025	1.933	1.990	2.013	1.914	1.808	1.830	1.702	1.771	1.724	1.647	1.618	1.560	1.494	1.391	1.549
475.0	256.2	252.4	519.4	1493	1354	361.2	313.7	327.8	328.9	319.7	310.3	285.1	254.0	230.3	199.8	176.2	163.1	153.4	146.5	141.5	137.5	133.7	133.7	133.3	132.6	131.0	130.2	128.6	126.2	120.8	114.4	103.8	91.48	80.17	71.03	61.22	55.29	55.11	51.23	36.15	26.36	21.68	18.43	15.36	12.91	11.28	10.20	16.98	65.65	196.8	396.5	1235	860.5	21.29	2.622	2.245	1.940	2.022	2.013	1.917	1.916	1.940	1.823	1.908	1.859	1.795	1.615	1.724	1.584	1.623	1.638	1.584	1.402	1.485	1.484	1.405	1.501
480.0	259.6	245.9	322.5	902.8	1883	522.4	295.9	307.9	300.8	298.9	297.3	272.6	243.2	216.0	184.9	165.2	150.5	141.7	135.6	129.7	126.1	123.1	122.1	123.1	122.4	120.8	120.9	118.4	116.7	113.0	107.9	98.57	87.64	76.33	65.97	57.92	50.77	48.15	50.30	42.44	28.06	21.89	18.73	15.58	13.25	12.02	9.386	9.692	19.63	48.22	93.61	489.5	1433	695.2	16.22	2.289	2.089	1.953	1.924	1.870	1.738	1.754	1.720	1.910	1.752	1.700	1.667	1.561	1.627	1.598	1.488	1.351	1.538	1.367	1.342	1.385	1.267
485.0	222.0	287.6	259.2	475.4	1816	1075	291.6	283.6	280.7	286.2	278.3	256.8	225.9	202.5	176.5	152.4	141.0	132.5	126.2	121.0	118.4	113.3	114.9	114.0	115.6	112.3	110.4	110.2	108.0	106.8	100.8	91.21	83.22	74.60	64.06	56.32	49.69	44.71	44.19	44.81	32.21	23.13	19.69	15.96	13.54	12.30	9.758	8.629	9.756	14.99	24.79	118.0	734.7	1429	204.6	10.15	2.290	2.013	1.667	1.704	1.759	1.648	1.683	1.704	1.657	1.580	1.454	1.536	1.632	1.483	1.458	1.369	1.472	1.297	1.473	1.293	1.253
490.0	169.8	287.3	255.1	293.2	998.9	1777	521.3	264.8	261.2	263.7	254.5	240.4	210.5	185.7	164.0	141.0	128.2	122.5	115.0	109.6	107.3	104.1	103.0	103.3	103.5	101.8	100.1	98.91	98.84	98.36	93.88	85.32	77.31	68.57	60.58	53.04	47.65	41.57	37.67	39.02	37.22	27.73	20.23	16.63	14.20	12.65	10.46	9.310	8.057	8.136	9.690	29.94	176.5	624.8	1101	666.0	17.12	2.643	1.861	1.791	1.796	1.684	1.579	1.554	1.533	1.570	1.469	1.515	1.439	1.401	1.304	1.314	1.339	1.243	1.322	1.202	1.342
495.0	138.8	243.2	270.0	232.4	410.8	1562	1323	269.6	245.4	243.2	228.5	219.4	195.6	171.7	146.6	127.1	117.1	110.6	104.4	98.90	96.11	93.01	91.77	91.67	92.40	90.40	89.88	89.46	89.25	87.76	84.96	79.24	69.88	63.82	55.94	49.41	44.34	38.98	34.58	32.83	33.63	32.91	23.25	17.56	14.67	12.91	11.03	9.758	8.101	6.749	6.488	10.73	42.40	142.3	367.4	1172	925.0	24.36	2.320	1.988	1.891	1.596	1.542	1.490	1.380	1.525	1.494	1.371	1.385	1.220	1.240	1.239	1.257	1.303	1.157	1.095	1.234
500.0	129.1	185.4	283.4	221.7	244.0	901.3	1934	385.2	223.0	225.7	214.6	201.7	179.1	158.6	134.6	118.5	107.4	100.5	95.98	89.91	87.26	84.49	83.54	82.50	82.46	84.09	82.37	80.72	81.12	81.22	78.83	71.89	65.05	58.66	52.11	47.34	41.42	37.16	31.99	29.31	29.18	31.98	26.27	18.20	14.70	12.63	11.10	9.525	8.278	6.949	5.731	6.343	12.75	34.70	86.49	456.4	1382	694.7	18.14	2.198	1.870	1.734	1.563	1.455	1.346	1.402	1.459	1.244	1.289	1.218	1.015	1.202	1.150	1.140	1.155	1.095	1.112
505.0	110.8	160.1	264.3	219.6	203.9	428.2	1904	941.3	210.2	206.9	199.6	185.2	163.4	144.6	123.9	110.9	99.17	91.50	88.25	81.91	78.66	76.84	78.28	75.12	76.26	76.24	76.53	73.37	73.86	74.49	71.55	67.09	59.81	53.63	48.30	43.76	39.37	35.13	31.17	27.95	25.30	26.63	28.22	20.83	14.91	12.33	11.11	9.448	7.934	7.335	5.928	5.207	6.198	10.93	22.33	109.2	655.9	1353	222.6	10.97	1.886	1.840	1.542	1.391	1.368	1.339	1.403	1.171	1.175	1.161	1.161	1.055	1.166	1.120	1.102	1.062	1.123
510.0	114.1	138.7	203.4	242.7	187.4	229.3	1031	1779	413.5	183.7	176.5	167.4	147.4	131.9	111.3	96.95	89.67	82.82	78.70	73.24	68.90	68.17	68.26	66.58	66.98	66.57	65.57	65.25	66.01	66.11	63.05	59.29	53.41	48.50	43.87	39.67	35.78	32.27	28.76	25.60	23.27	21.73	23.85	23.20	16.85	12.69	10.99	9.479	7.818	6.960	5.993	5.461	4.829	5.362	7.720	26.93	156.1	569.2	935.2	559.8	16.83	2.053	1.679	1.389	1.340	1.322	1.163	1.145	1.158	1.107	1.115	1.057	1.027	1.028	0.921	0.982	1.037
515.0	101.6	116.3	148.8	233.7	188.9	169.3	370.7	1667	1225	183.3	156.5	146.6	134.7	115.4	98.74	84.78	77.28	72.93	67.77	62.65	61.00	59.29	59.56	58.64	57.25	56.82	56.74	57.06	57.54	57.62	55.04	51.35	46.65	42.43	39.07	34.97	31.40	28.76	25.96	23.60	20.52	18.64	18.24	20.03	19.77	14.09	10.49	9.169	7.772	6.510	6.053	5.480	4.641	4.135	4.484	8.512	37.29	129.0	289.8	923.4	720.7	24.24	1.869	1.461	1.297	1.259	1.099	1.075	1.122	0.972	0.972	1.027	0.890	0.821	0.852	0.878	0.802
520.0	98.73	102.9	126.5	200.7	199.1	148.1	192.9	963.3	1965	275.5	144.3	131.6	120.9	102.3	90.65	77.09	71.16	65.20	60.94	58.09	56.17	53.31	52.61	52.22	51.19	51.44	51.71	51.14	51.20	51.17	49.06	45.62	42.15	38.04	35.12	32.34	28.82	26.33	23.70	21.90	18.88	17.20	15.57	16.75	19.87	16.15	10.99	8.779	7.715	6.381	5.654	5.153	4.877	3.873	3.625	4.514	10.74	30.99	67.69	357.2	1041	242.1	17.12	1.480	1.332	1.242	1.145	1.006	0.925	0.966	0.991	1.049	0.780	0.823	0.834	0.873	0.777
525.0	87.65	93.45	118.2	154.0	207.4	150.7	144.0	411.7	2084	840.5	139.1	123.0	108.7	94.23	81.37	69.66	64.95	60.78	55.10	52.78	50.35	48.45	47.81	47.12	46.97	47.45	46.01	45.52	45.77	46.73	45.09	41.43	38.35	35.78	32.18	29.19	26.70	24.21	21.49	20.20	18.00	16.00	14.13	14.03	16.60	16.84	12.24	8.790	7.318	6.157	5.663	5.050	4.932	4.026	3.679	3.475	4.791	8.913	17.13	84.78	481.2	953.7	216.2	8.655	1.512	1.149	1.126	0.964	0.939	0.934	0.911	0.840	0.797	0.826	0.841	0.826	0.803
530.0	79.06	80.43	101.8	112.5	180.5	164.6	120.3	186.0	1124	1846	310.1	109.7	96.66	85.40	72.30	62.24	56.77	52.09	48.39	45.96	43.45	41.62	41.47	40.27	40.67	40.86	39.40	39.73	39.75	40.01	39.46	36.57	33.62	31.39	28.23	26.21	23.72	21.75	19.64	17.68	16.12	14.60	13.25	12.46	12.40	14.39	13.58	9.700	7.289	6.000	5.305	4.752	4.407	4.117	3.827	3.186	3.230	3.994	5.663	20.74	114.9	415.6	699.7	418.1	15.77	1.432	1.138	0.994	1.003	0.965	0.885	0.801	0.756	0.816	0.777	0.811	0.702
535.0	65.99	69.12	95.48	91.14	126.2	186.6	111.4	118.4	361.6	1803	1143	106.6	87.16	74.80	63.30	55.29	49.07	44.20	41.10	39.00	36.40	35.63	35.50	34.36	34.42	34.71	33.56	34.45	34.07	35.08	33.42	30.89	29.40	26.77	24.84	22.55	20.69	18.99	17.48	15.62	14.50	13.10	11.44	11.00	10.22	10.84	12.47	11.47	7.890	5.841	5.015	4.523	4.010	4.035	3.844	3.448	2.958	2.943	2.955	6.267	27.02	94.19	216.4	684.0	524.5	21.76	1.235	1.107	0.846	0.921	0.885	0.761	0.799	0.713	0.696	0.641	0.711
540.0	67.16	68.51	80.65	82.98	95.69	166.6	120.8	94.39	153.4	982.3	1938	183.9	75.28	66.97	57.08	48.71	42.23	38.95	36.48	35.42	33.42	31.80	32.44	31.98	30.82	30.66	30.23	29.99	30.61	30.18	29.32	28.53	25.84	24.30	21.64	19.94	18.73	17.36	15.27	14.18	13.01	11.75	10.51	9.669	9.045	8.751	9.759	11.04	8.846	5.826	4.782	4.092	3.867	3.463	3.432	3.499	3.002	2.432	2.444	2.959	7.581	22.41	50.32	262.3	759.0	236.1	14.40	1.050	1.040	0.943	0.785	0.738	0.745	0.662	0.624	0.651	0.690
545.0	60.06	65.25	71.74	76.36	76.96	135.4	140.0	90.02	99.06	376.4	2111	637.7	68.21	59.67	52.51	42.11	39.60	35.50	33.45	30.83	29.94	28.25	28.66	27.56	27.68	26.10	26.63	26.40	27.19	27.08	26.07	24.95	23.10	21.17	18.90	17.97	16.99	15.46	13.56	13.04	11.53	10.25	9.620	8.886	8.754	8.066	7.624	9.219	9.035	6.336	4.448	3.817	3.708	3.278	3.163	3.168	2.984	2.642	2.297	2.149	3.242	6.403	12.58	62.12	348.7	681.8	194.3	6.608	1.078	0.878	0.717	0.772	0.725	0.666	0.723	0.654	0.689
550.0	63.73	62.05	62.91	62.50	63.12	89.12	150.0	91.08	75.79	141.2	1071	1658	131.4	53.38	44.23	36.65	33.88	29.89	28.09	26.31	24.31	24.47	23.55	22.99	23.10	22.39	22.53	22.45	22.46	22.62	21.89	20.76	19.39	17.89	16.30	15.06	14.49	12.72	11.52	10.81	9.752	9.013	8.678	7.723	7.412	6.971	6.304	6.862	7.979	6.948	4.801	3.761	3.239	3.006	2.804	2.722	2.786	2.843	2.117	1.894	2.031	2.750	4.061	15.03	82.80	288.8	492.2	250.1	14.84	1.103	0.806	0.778	0.697	0.650	0.656	0.675	0.672
555.0	67.86	59.07	57.02	54.51	52.19	60.10	110.9	114.0	61.13	76.77	312.2	1661	805.6	51.65	35.56	31.57	27.03	24.88	23.41	21.22	20.16	19.79	19.21	18.78	18.81	18.65	18.43	18.31	18.55	18.50	17.71	16.96	15.88	14.53	13.17	12.37	11.61	10.82	9.756	8.569	8.476	7.812	7.121	6.602	6.279	5.743	5.475	5.198	5.707	6.420	5.513	3.743	2.918	2.646	2.536	2.338	2.285	2.451	2.625	1.786	1.678	1.790	1.958	4.476	19.58	65.41	150.0	445.7	247.7	20.19	0.963	0.706	0.648	0.556	0.596	0.549	0.675
560.0	64.34	59.71	56.10	50.33	47.00	48.66	74.06	129.9	63.13	58.40	111.9	869.6	1460	118.2	31.03	26.92	24.02	21.69	20.08	18.36	17.26	16.83	16.52	15.82	15.68	15.42	15.36	15.31	15.96	15.53	15.18	14.26	13.54	12.31	11.27	10.54	9.719	9.334	8.456	7.651	7.328	6.623	6.081	5.628	5.727	4.880	4.642	4.364	4.300	5.134	5.318	4.263	2.743	2.360	2.213	2.152	2.072	2.070	2.409	1.906	1.631	1.399	1.417	2.041	5.279	15.58	34.87	168.3	464.2	215.8	12.02	0.876	0.645	0.625	0.657	0.570	0.599
565.0	65.59	51.62	51.47	44.55	39.14	42.61	50.02	122.7	79.01	50.78	61.68	304.9	1763	571.1	28.31	23.42	20.51	18.27	17.88	15.32	15.25	14.51	14.33	13.65	13.67	13.75	13.03	13.05	13.90	13.48	13.17	12.04	11.55	10.48	9.719	9.263	8.628	7.822	7.370	6.638	6.321	5.534	5.246	5.142	4.790	4.258	3.914	3.834	3.655	3.794	4.550	4.367	2.978	2.183	2.102	1.877	1.820	1.762	1.958	2.191	1.606	1.291	1.163	1.528	2.095	4.341	8.658	39.83	209.4	439.6	157.8	4.914	0.725	0.628	0.660	0.530	0.553
570.0	55.31	57.12	54.38	41.29	34.85	35.94	39.26	80.14	101.6	49.57	46.36	101.4	891.8	1697	73.46	19.70	16.95	15.07	14.57	13.25	12.78	11.97	11.64	11.14	11.11	11.16	10.55	10.94	10.74	11.09	10.65	10.03	9.187	8.799	7.876	7.322	7.197	6.601	6.024	5.649	5.272	4.734	4.543	4.410	4.061	3.768	3.497	3.335	2.983	2.835	3.174	3.586	3.217	2.251	1.814	1.763	1.662	1.538	1.524	1.666	1.788	1.468	1.070	1.253	1.276	1.731	2.707	9.676	49.59	176.0	306.4	142.4	14.10	0.906	0.647	0.561	0.610
575.0	63.87	67.61	52.40	38.37	32.49	31.44	34.20	47.19	101.8	62.53	40.03	51.44	248.9	1900	519.2	18.75	13.75	13.46	11.71	10.96	10.21	9.381	9.945	9.367	9.100	9.166	9.012	8.697	8.439	8.754	8.389	8.011	7.333	6.940	6.327	5.853	5.562	5.371	4.937	4.614	4.229	3.985	3.556	3.553	3.489	3.164	2.932	2.640	2.365	2.246	2.286	2.609	3.060	2.594	1.818	1.419	1.413	1.368	1.384	1.361	1.517	1.840	1.190	1.186	1.039	1.163	1.360	2.829	11.69	40.07	89.45	254.1	219.0	19.14	0.724	0.584	0.630
580.0	61.54	62.44	45.88	37.30	31.04	28.27	28.80	34.76	81.74	85.24	39.74	39.00	83.13	993.1	1040	44.59	12.57	11.57	10.37	9.707	8.662	7.933	8.595	8.009	7.397	7.238	7.507	7.608	7.267	7.368	7.427	6.734	6.332	5.972	5.504	5.109	4.797	4.603	4.212	4.104	3.783	3.495	3.287	3.040	2.903	2.805	2.511	2.305	2.221	1.976	1.955	1.979	2.548	2.609	1.900	1.408	1.316	1.266	1.339	1.154	1.297	1.570	1.481	1.136	0.955	0.964	1.042	1.304	3.271	9.610	20.86	93.71	289.5	169.2	10.58	0.705	0.580
585.0	54.67	57.05	51.89	36.77	26.79	26.57	26.63	28.47	55.56	99.59	45.70	35.43	42.35	352.7	1264	111.0	11.36	10.33	9.146	8.349	7.583	7.256	7.354	6.825	6.440	6.382	6.074	6.649	6.267	6.618	6.339	5.995	5.540	5.378	4.454	4.615	4.207	3.930	3.931	3.398	3.286	2.893	2.861	2.745	2.531	2.507	2.351	2.111	1.984	1.802	1.712	1.626	1.965	2.267	2.133	1.483	1.334	1.135	1.252	1.030	1.043	1.141	1.520	1.191	0.907	0.942	0.944	1.004	1.505	2.783	5.362	22.21	121.8	277.6	112.5	4.713	0.602
590.0	59.51	55.87	47.77	37.47	26.10	24.56	25.13	24.81	36.74	84.64	65.23	35.63	33.46	102.8	637.0	741.8	37.37	8.696	7.595	6.877	6.409	6.227	6.246	5.853	5.584	5.392	5.158	5.488	5.439	5.177	5.250	4.880	4.704	4.317	3.813	3.810	3.552	3.451	3.073	2.833	2.747	2.520	2.443	2.333	2.242	2.098	2.087	1.833	1.637	1.592	1.472	1.362	1.528	1.671	2.013	1.772	1.335	1.118	0.999	1.044	0.925	0.910	1.087	1.274	1.108	0.942	0.854	0.796	0.969	1.244	1.854	5.503	28.61	104.6	189.8	110.6	13.98
595.0	59.59	58.04	47.82	31.78	24.88	23.98	22.48	23.40	28.59	51.17	88.18	38.74	31.31	41.33	170.7	833.2	278.2	7.931	6.585	5.815	5.238	5.136	5.051	4.810	4.464	4.496	4.288	4.315	4.589	4.212	4.570	4.031	4.091	3.600	3.272	2.923	2.892	2.727	2.662	2.410	2.261	2.352	2.123	1.944	1.813	1.744	1.737	1.569	1.408	1.323	1.259	1.251	1.141	1.332	1.539	1.636	1.417	1.042	0.900	0.878	0.894	0.878	0.951	1.098	1.220	1.018	0.775	0.801	0.766	0.818	0.976	1.768	6.817	23.82	53.25	152.0	154.8
600.0	57.17	48.33	45.86	32.30	24.34	22.65	23.59	24.58	26.51	37.94	85.75	51.72	31.41	27.67	52.16	456.3	650.1	20.36	5.543	5.692	4.804	4.707	4.423	4.252	4.015	3.915	3.717	3.502	3.815	3.400	3.833	3.605	3.252	3.230	2.935	2.725	2.603	2.363	2.453	2.109	1.987	1.863	1.788	1.694	1.626	1.563	1.554	1.322	1.260	1.156	1.167	0.990	1.005	1.054	1.191	1.501	1.629	1.223	0.883	0.797	0.784	0.870	0.793	0.807	1.004	1.091	0.927	0.723	0.813	0.763	0.719	0.989	2.059	5.748	12.50	52.67	175.0
605.0	52.36	50.42	45.79	33.01	23.98	23.76	22.55	25.01	27.11	36.71	76.24	70.15	33.89	27.83	25.36	155.7	792.1	76.90	5.449	4.389	4.230	3.890	3.649	3.738	3.465	3.698	3.445	3.181	3.135	3.109	3.341	3.064	2.994	2.937	2.420	2.267	2.248	2.125	2.068	1.885	1.795	1.658	1.617	1.504	1.407	1.429	1.186	1.412	1.192	0.982	0.989	0.917	0.875	0.961	0.952	1.226	1.541	1.304	0.885	0.794	0.722	0.790	0.728	0.808	0.891	1.089	1.037	0.688	0.791	0.702	0.688	0.761	0.967	1.736	3.275	12.54	67.94
610.0	50.81	52.32	44.10	34.22	23.69	22.98	24.40	26.61	32.59	39.24	59.64	89.17	49.93	33.14	26.03	50.29	429.3	458.5	20.28	4.196	3.898	3.374	3.137	3.112	2.867	2.901	2.980	2.941	2.873	2.624	2.549	2.590	2.469	2.397	2.263	2.123	1.913	1.910	1.761	1.629	1.511	1.440	1.459	1.375	1.210	1.236	1.131	1.167	1.001	0.919	0.816	0.926	0.817	0.845	0.807	0.882	1.116	1.267	1.051	0.805	0.726	0.746	0.715	0.810	0.730	0.854	0.991	1.013	0.797	0.779	0.711	0.696	0.671	0.873	1.213	3.272	16.06
615.0	52.07	50.27	41.21	35.57	24.56	21.48	25.39	28.50	32.02	40.02	50.57	79.21	68.45	37.92	27.05	25.83	120.6	561.6	166.7	4.280	3.504	3.100	2.759	2.554	2.606	2.643	2.417	2.422	2.484	2.484	2.248	2.235	2.126	2.044	1.819	1.803	1.605	1.536	1.614	1.381	1.371	1.210	1.197	1.132	1.102	1.027	0.942	1.027	0.977	0.843	0.775	0.794	0.772	0.809	0.660	0.658	0.874	0.975	1.053	1.003	0.744	0.708	0.733	0.791	0.789	0.741	0.918	1.007	0.935	0.733	0.731	0.650	0.662	0.696	0.722	1.180	3.998
620.0	48.11	46.87	38.22	30.39	24.93	21.01	24.87	26.38	32.92	37.98	43.86	64.98	78.82	39.07	26.73	20.24	39.02	330.7	410.1	9.356	3.085	2.608	2.551	2.300	2.352	2.063	2.343	1.964	2.023	2.102	2.032	1.864	1.878	1.808	1.719	1.586	1.610	1.487	1.480	1.300	1.296	1.095	1.095	0.912	0.998	0.942	0.780	0.890	0.929	0.713	0.643	0.676	0.694	0.741	0.641	0.682	0.697	0.794	0.985	0.882	0.687	0.675	0.629	0.720	0.738	0.717	0.848	0.845	0.909	0.916	0.677	0.567	0.607	0.568	0.644	0.708	1.282
625.0	45.56	52.68	37.23	31.30	23.67	20.30	22.36	25.92	31.29	35.92	44.81	52.06	76.92	43.22	25.79	18.86	20.63	117.2	540.8	50.47	3.122	2.424	2.300	2.136	2.104	1.923	1.897	1.790	1.820	1.872	1.768	1.888	1.537	1.661	1.598	1.469	1.479	1.354	1.171	1.240	1.079	0.910	0.951	0.956	0.954	0.882	0.737	0.868	0.777	0.684	0.662	0.664	0.604	0.671	0.569	0.616	0.544	0.630	0.920	0.894	0.793	0.622	0.682	0.714	0.654	0.738	0.713	0.721	0.843	0.913	0.704	0.572	0.522	0.608	0.564	0.617	0.701
630.0	47.28	49.67	41.39	30.85	24.09	20.56	23.35	25.11	30.18	34.30	41.77	48.69	63.26	54.79	27.55	19.16	15.92	35.18	314.0	299.6	10.10	2.257	2.046	1.940	1.630	1.821	1.661	1.702	1.572	1.655	1.617	1.603	1.440	1.505	1.310	1.267	1.256	1.255	1.126	1.079	0.936	0.767	0.843	0.880	0.832	0.786	0.701	0.741	0.708	0.597	0.553	0.558	0.561	0.533	0.615	0.532	0.558	0.589	0.649	0.780	0.809	0.637	0.654	0.611	0.583	0.678	0.669	0.641	0.716	0.780	0.809	0.688	0.568	0.562	0.553	0.603	0.571
635.0	43.97	46.94	43.23	30.27	21.32	22.30	21.07	24.94	29.55	33.15	41.27	44.59	47.12	58.78	33.78	19.36	14.88	16.13	84.77	407.8	62.52	2.500	1.787	1.602	1.459	1.461	1.615	1.401	1.549	1.488	1.452	1.384	1.329	1.251	1.221	1.123	1.080	0.998	0.927	0.908	0.840	0.799	0.722	0.779	0.795	0.816	0.643	0.566	0.703	0.504	0.471	0.550	0.531	0.492	0.553	0.487	0.524	0.498	0.545	0.759	0.685	0.629	0.610	0.622	0.593	0.668	0.715	0.599	0.595	0.626	0.801	0.767	0.606	0.604	0.581	0.503	0.518
640.0	46.43	46.11	41.27	26.78	22.38	21.76	20.99	25.58	27.28	33.57	39.04	42.42	42.99	55.31	39.19	18.82	14.59	11.35	23.18	258.6	258.4	5.080	2.019	1.568	1.332	1.443	1.519	1.369	1.478	1.321	1.252	1.299	1.276	1.367	1.169	1.147	1.032	1.000	0.944	0.866	0.708	0.786	0.745	0.715	0.709	0.770	0.569	0.647	0.577	0.499	0.466	0.525	0.503	0.523	0.530	0.518	0.624	0.492	0.605	0.579	0.638	0.674	0.598	0.661	0.588	0.637	0.642	0.579	0.614	0.550	0.744	0.827	0.701	0.604	0.504	0.526	0.493
645.0	47.09	42.99	44.70	27.20	20.56	21.36	20.80	24.21	27.65	30.81	35.93	41.91	38.98	44.93	44.80	20.07	15.25	10.49	9.115	93.29	376.2	33.62	1.944	1.625	1.267	1.380	1.330	1.275	1.127	1.162	1.258	1.337	1.352	1.175	1.085	1.155	1.089	0.877	0.976	0.799	0.760	0.743	0.696	0.659	0.613	0.744	0.551	0.578	0.518	0.505	0.461	0.471	0.455	0.466	0.536	0.518	0.546	0.516	0.511	0.503	0.601	0.661	0.587	0.666	0.573	0.610	0.573	0.546	0.552	0.531	0.621	0.646	0.700	0.681	0.530	0.490	0.508
650.0	49.66	47.54	46.38	28.36	21.35	19.33	21.14	21.88	25.74	29.75	36.85	38.54	37.21	38.33	45.14	22.49	14.12	10.04	6.087	26.74	316.5	142.5	2.048	1.513	1.380	1.388	1.235	1.196	1.174	1.154	1.213	1.150	1.292	1.255	1.016	1.081	0.978	0.783	0.934	0.720	0.791	0.719	0.784	0.550	0.570	0.693	0.573	0.650	0.567	0.523	0.428	0.510	0.468	0.423	0.493	0.486	0.506	0.534	0.480	0.492	0.575	0.665	0.580	0.624	0.650	0.575	0.555	0.571	0.598	0.631	0.573	0.533	0.614	0.668	0.544	0.509	0.448
