Sample:	'1
File name:	t2025042401¸Õ¸«Õ¯ÄÏ.FD3
Run date:	'14:38:37, 04/27/2025
Operator:	Administrator
Comment:	'

Instrument
Model:	F-2700 FL Spectrophotometer
Serial number:	23B8-004
ROM Version:	4J14000 07

Instrument parameters
Measurement type:	3-D scan
Data mode:	Fluorescence
EX  Start WL:	220.0 nm
EX  End WL:	600.0 nm
EX Sampling interval:	5.0 nm
EM  Start WL:	230.0 nm
EM  End WL:	650.0 nm
EM Sampling interval:	5.0 nm
Scan speed:	12000 nm/min
EX Slit:	5.0 nm
EM Slit:	5.0 nm
PMT Voltage:	700 V
Response:	Auto 
Corrected spectra:	Off
Contour interval:	50.000

Peak integration
Integration method:	Rectangular
Sensitivity:	1
Threshold:	1.000

Peaks
No.	ApexEX/EM(nm)	Height(Data)
1	225.0/590.0	59.21
2	225.0/615.0	55.03
3	225.0/635.0	54.55
4	230.0/340.0	1454
5	235.0/515.0	257.2
6	240.0/525.0	224.5
7	245.0/535.0	188.2
8	250.0/550.0	147.6
9	255.0/280.0	534.3
10	255.0/565.0	129.0
11	260.0/290.0	540.7
12	260.0/575.0	109.2
13	265.0/295.0	739.3
14	265.0/585.0	97.04
15	270.0/300.0	1052
16	270.0/600.0	97.51
17	275.0/310.0	1196
18	275.0/335.0	1275
19	275.0/610.0	87.16
20	280.0/315.0	1243
21	280.0/625.0	80.05
22	285.0/320.0	1225
23	285.0/635.0	63.76
24	320.0/365.0	403.6
25	330.0/375.0	358.3
26	335.0/380.0	346.2
27	350.0/400.0	296.5
28	410.0/480.0	54.48
29	425.0/500.0	32.92
30	440.0/520.0	19.75
31	455.0/540.0	11.15
32	460.0/345.0	5.069
33	465.0/555.0	6.511
34	505.0/275.0	3.539
35	510.0/280.0	4.370
36	520.0/285.0	4.335
37	530.0/290.0	4.289
38	545.0/300.0	6.712
39	550.0/305.0	7.886
40	560.0/310.0	7.693
41	565.0/340.0	8.077
42	570.0/315.0	8.503
43	575.0/320.0	8.737

Data points
	220.0	225.0	230.0	235.0	240.0	245.0	250.0	255.0	260.0	265.0	270.0	275.0	280.0	285.0	290.0	295.0	300.0	305.0	310.0	315.0	320.0	325.0	330.0	335.0	340.0	345.0	350.0	355.0	360.0	365.0	370.0	375.0	380.0	385.0	390.0	395.0	400.0	405.0	410.0	415.0	420.0	425.0	430.0	435.0	440.0	445.0	450.0	455.0	460.0	465.0	470.0	475.0	480.0	485.0	490.0	495.0	500.0	505.0	510.0	515.0	520.0	525.0	530.0	535.0	540.0	545.0	550.0	555.0	560.0	565.0	570.0	575.0	580.0	585.0	590.0	595.0	600.0
230.0	58.74	1265	3454	1229	48.41	9.382	7.369	6.786	5.892	5.192	5.169	4.776	4.052	3.651	3.152	2.687	2.332	2.065	1.802	1.816	1.612	1.451	1.428	1.284	1.168	1.178	1.071	0.992	0.961	0.950	0.936	0.948	0.819	0.796	0.801	0.745	0.747	0.634	0.644	0.552	0.629	0.649	0.645	0.603	0.540	0.555	1.289	6.297	13.40	11.45	5.121	1.233	0.491	0.423	0.439	0.435	0.431	0.388	0.430	0.375	0.428	0.401	0.400	0.424	0.421	0.415	0.389	0.390	0.364	0.395	0.399	0.347	0.434	0.351	0.408	0.384	0.421
235.0	97.59	362.7	2432	4554	584.6	82.97	8.336	8.035	6.699	5.690	6.175	5.051	4.432	3.569	3.139	2.313	2.509	2.099	1.891	1.785	1.670	1.583	1.359	1.282	1.299	1.130	1.185	0.996	1.013	0.936	1.051	0.963	0.910	0.951	0.840	0.682	0.768	0.701	0.703	0.569	0.559	0.669	0.718	0.679	0.726	0.591	0.721	1.912	4.898	9.562	16.58	20.61	9.991	2.396	0.522	0.440	0.448	0.338	0.460	0.455	0.397	0.454	0.352	0.424	0.494	0.422	0.429	0.380	0.333	0.458	0.408	0.393	0.451	0.383	0.420	0.358	0.438
240.0	141.9	153.5	765.4	4143	4513	481.1	41.43	9.942	8.034	7.072	6.394	5.386	4.773	4.237	3.270	2.874	2.747	2.338	2.150	2.020	1.689	1.563	1.434	1.421	1.407	1.238	1.185	1.129	1.007	1.002	1.047	0.853	1.005	0.813	0.817	0.776	0.824	0.757	0.717	0.540	0.584	0.573	0.529	0.673	0.773	0.943	0.752	0.872	1.494	2.974	8.500	23.47	30.04	22.56	8.871	1.601	0.489	0.471	0.474	0.490	0.482	0.428	0.389	0.404	0.387	0.429	0.390	0.496	0.417	0.507	0.370	0.407	0.421	0.341	0.385	0.392	0.447
245.0	116.1	190.7	236.2	1468	5884	3822	366.3	20.09	10.16	9.075	7.509	5.544	5.127	4.033	3.557	3.019	2.594	2.660	2.063	1.875	1.600	1.527	1.588	1.540	1.388	1.293	1.224	1.203	1.008	1.016	0.826	0.928	0.909	0.791	0.730	0.817	0.788	0.700	0.692	0.605	0.638	0.517	0.547	0.543	0.695	1.066	0.918	1.075	0.816	1.049	2.314	7.608	19.20	36.45	31.96	20.71	6.598	0.818	0.512	0.554	0.499	0.480	0.453	0.396	0.393	0.450	0.394	0.583	0.377	0.467	0.513	0.468	0.403	0.401	0.438	0.376	0.414
250.0	62.81	153.3	244.3	414.9	1951	5378	5972	1368	89.47	12.61	8.889	8.163	5.997	5.361	4.044	3.609	3.082	2.730	2.437	2.237	1.888	1.683	1.620	1.480	1.484	1.357	1.179	1.234	1.223	1.070	0.969	0.999	0.942	0.910	0.772	0.743	0.711	0.656	0.707	0.613	0.743	0.590	0.588	0.661	0.613	0.682	0.762	1.068	1.219	1.111	1.148	2.148	4.902	11.23	19.76	32.49	38.84	40.12	17.25	6.670	1.024	0.523	0.527	0.441	0.434	0.430	0.455	0.483	0.404	0.456	0.454	0.439	0.409	0.431	0.418	0.436	0.454
255.0	49.50	65.77	189.0	338.6	522.7	1410	5647	9999.9	1939	98.74	13.74	11.04	7.608	5.954	4.894	3.770	3.568	3.233	2.567	2.298	1.888	1.969	1.837	1.587	1.571	1.335	1.322	1.229	1.358	1.113	1.138	1.082	0.921	0.954	0.789	0.737	0.807	0.674	0.653	0.680	0.654	0.633	0.594	0.611	0.588	0.710	0.681	0.688	0.736	1.195	1.724	1.939	1.843	2.976	4.931	8.005	14.21	36.20	67.76	70.96	26.41	6.950	0.825	0.556	0.612	0.518	0.449	0.520	0.476	0.483	0.510	0.459	0.393	0.471	0.473	0.492	0.529
260.0	43.09	43.89	84.47	304.4	347.4	370.8	1798	9618	9999.9	1494	50.29	14.79	10.27	7.626	5.818	4.858	4.101	3.468	2.804	2.582	2.134	2.015	2.071	1.744	1.537	1.513	1.544	1.286	1.278	1.161	1.117	1.049	0.942	0.947	0.868	0.794	0.875	0.882	0.776	0.621	0.599	0.678	0.649	0.731	0.656	0.565	0.705	0.601	0.523	0.733	1.100	2.060	2.081	1.790	1.758	2.253	3.833	9.847	28.46	65.04	88.10	36.23	20.81	3.575	0.697	0.600	0.545	0.517	0.496	0.542	0.571	0.502	0.434	0.493	0.484	0.456	0.518
265.0	47.27	39.02	42.15	156.6	374.5	254.2	447.4	3409	9999.9	9999.9	224.5	24.94	14.13	10.06	7.214	5.194	4.268	4.092	3.133	2.705	2.275	2.229	2.039	1.826	1.510	1.387	1.429	1.444	1.422	1.347	1.102	1.149	0.989	1.091	0.955	0.861	0.885	0.934	0.688	0.738	0.675	0.767	0.694	0.713	0.677	0.748	0.596	0.565	0.607	0.605	0.678	1.201	1.956	2.558	1.953	1.218	1.321	2.719	7.051	18.73	46.59	83.31	106.0	34.05	14.14	1.566	0.645	0.627	0.550	0.540	0.635	0.513	0.523	0.592	0.501	0.564	0.522
270.0	66.99	55.04	48.05	65.15	201.5	369.1	297.3	828.5	3668	9999.9	9999.9	3684	64.00	14.99	9.909	7.123	5.549	4.862	3.397	3.243	2.646	2.369	2.093	1.986	1.811	1.786	1.592	1.627	1.493	1.411	1.315	1.179	1.199	1.161	0.917	0.981	0.835	0.947	0.698	0.771	0.732	0.811	0.793	0.790	0.780	0.796	0.638	0.750	0.628	0.570	0.610	0.743	0.970	1.560	2.279	2.439	2.320	1.645	2.165	4.779	11.40	24.29	51.35	76.05	101.4	82.43	21.50	10.49	1.448	0.705	0.648	0.614	0.607	0.561	0.544	0.629	0.512
275.0	103.7	109.6	90.19	63.08	78.46	198.3	481.0	394.5	875.8	2598	9999.9	9999.9	1240	64.17	15.40	10.79	7.763	5.703	4.565	3.898	3.098	3.014	2.475	2.163	1.907	1.957	1.805	1.666	1.712	1.621	1.416	1.287	1.182	1.366	1.003	1.250	1.002	0.976	0.894	0.830	0.769	0.867	0.866	0.786	0.859	0.908	0.824	0.899	0.842	0.692	0.610	0.770	0.803	0.864	1.062	1.499	2.844	3.539	2.901	2.055	3.179	6.042	12.15	18.06	30.27	65.58	127.5	145.5	34.23	12.28	0.992	0.766	0.637	0.617	0.737	0.590	0.542
280.0	168.7	183.8	146.7	89.68	58.22	94.92	346.6	534.3	330.5	659.9	3111	9999.9	9999.9	902.1	34.29	14.48	9.605	6.798	5.324	4.621	3.552	3.093	2.698	2.368	2.159	1.909	1.859	1.906	1.736	1.487	1.757	1.607	1.292	1.482	1.302	1.327	1.216	0.958	0.910	0.983	0.823	0.865	0.934	0.896	0.984	1.095	0.909	1.081	0.826	0.830	0.758	0.901	0.799	0.840	0.785	0.971	1.511	2.681	4.370	3.369	2.195	1.980	3.542	4.909	7.623	16.96	46.17	113.5	159.5	137.5	27.25	5.150	0.836	0.745	0.721	0.678	0.608
285.0	230.6	257.1	216.4	124.4	70.35	70.46	163.7	526.9	348.8	271.6	819.2	4045	9999.9	8737	124.0	21.82	12.77	8.797	6.630	5.288	3.989	3.933	3.289	2.707	2.546	2.196	1.989	1.746	1.570	1.680	1.566	1.525	1.342	1.531	1.382	1.355	1.299	1.119	1.073	1.057	0.903	0.905	0.999	1.049	1.021	1.276	1.253	1.149	1.046	0.942	0.890	1.005	0.791	0.789	0.838	0.951	1.066	1.379	2.587	3.890	4.335	2.743	1.921	2.080	2.573	4.944	11.48	29.64	70.01	147.3	173.6	39.88	19.85	2.101	0.888	0.859	0.635
290.0	301.8	385.1	317.5	190.3	106.0	88.37	116.4	273.1	540.7	500.0	408.5	1112	4051	9999.9	9999.9	2445	40.18	14.11	8.960	6.644	5.227	4.422	3.634	3.033	2.806	2.564	2.272	2.061	1.911	1.833	1.643	1.605	1.474	1.670	1.484	1.507	1.366	1.289	1.189	0.961	1.073	0.997	1.144	1.209	1.292	1.480	1.533	1.554	1.447	1.190	1.170	1.180	0.957	0.889	1.044	0.995	0.956	1.153	1.497	2.042	3.132	4.058	4.289	3.488	2.354	2.492	3.878	8.074	17.41	39.11	70.00	99.65	137.8	108.6	76.75	13.78	2.349
295.0	397.6	504.0	429.8	268.5	157.4	130.5	142.7	212.0	343.7	739.3	735.5	573.9	1170	2662	9999.9	9999.9	714.6	40.26	13.15	9.588	6.721	5.589	4.589	3.815	3.236	2.754	2.629	2.540	1.904	2.055	2.040	1.773	1.630	1.758	1.534	1.503	1.427	1.661	1.351	1.230	1.086	1.111	1.266	1.243	1.385	1.661	1.777	2.148	1.803	1.571	1.406	1.416	1.351	1.094	1.112	1.096	1.039	1.172	1.462	1.645	2.010	2.235	3.347	5.315	5.850	3.903	3.092	3.894	6.006	10.65	17.16	24.04	36.95	68.00	155.0	187.5	41.70
300.0	431.2	583.8	530.2	347.3	206.1	172.7	186.7	244.8	326.1	595.1	1052	721.9	628.8	859.4	2999	9999.9	9999.9	555.2	23.62	12.92	8.749	6.685	4.946	4.469	3.681	3.294	2.844	2.723	2.379	2.298	1.992	1.978	1.670	1.595	1.648	1.655	1.744	1.433	1.379	1.290	1.272	1.150	1.261	1.466	1.477	1.732	1.904	2.413	2.184	1.824	1.661	1.673	1.457	1.312	1.329	1.390	1.387	1.579	1.665	1.771	2.090	2.141	2.674	3.876	5.868	6.712	5.644	4.281	3.967	4.786	6.184	7.202	10.14	17.44	48.37	117.4	184.9
305.0	472.8	650.8	612.6	397.9	252.6	221.1	245.6	313.1	400.0	562.1	977.3	1165	680.8	555.3	905.9	3849	9999.9	9999.9	78.34	17.83	10.94	8.148	5.958	5.064	4.380	3.535	3.134	2.810	2.663	2.404	2.179	1.827	1.853	1.932	1.757	1.648	1.876	1.619	1.461	1.369	1.483	1.226	1.320	1.484	1.822	2.002	2.097	2.546	2.583	2.103	1.863	1.914	1.626	1.509	1.482	1.491	1.670	1.948	2.068	2.392	2.326	2.508	3.007	3.543	4.418	5.737	7.886	7.167	5.209	4.363	4.388	4.230	4.828	5.786	12.54	29.85	70.69
310.0	557.3	746.9	703.5	471.2	311.0	282.0	312.3	398.3	498.1	658.1	874.4	1196	1146	686.2	535.1	1050	3947	9999.9	9999.9	1775	29.84	11.59	8.126	6.318	4.756	4.327	3.583	3.223	2.867	2.447	2.256	2.148	2.001	2.100	1.798	1.847	1.755	1.709	1.496	1.458	1.421	1.496	1.472	1.611	1.991	2.237	2.359	2.868	2.831	2.363	2.094	2.259	1.773	1.769	1.781	1.785	1.978	2.190	2.475	2.588	2.947	3.284	3.647	4.082	4.578	5.167	6.158	7.002	7.693	7.524	5.814	4.703	4.340	3.950	5.057	8.291	17.31
315.0	642.9	840.8	782.8	564.8	372.7	341.5	376.0	477.7	598.9	772.2	941.2	1090	1243	1108	591.1	471.9	1022	2539	9999.9	9999.9	520.6	29.04	11.64	8.857	5.957	5.306	4.033	3.635	3.486	2.963	2.465	2.229	2.130	2.034	1.738	1.893	1.972	1.781	1.395	1.442	1.584	1.473	1.585	1.812	1.958	2.392	2.579	3.186	3.174	2.638	2.252	2.486	2.064	1.964	2.203	2.042	2.571	2.371	2.781	3.102	3.258	3.656	4.132	4.504	5.180	5.375	5.863	6.244	6.689	7.825	8.503	7.800	5.724	4.720	3.827	3.689	5.659
320.0	708.1	958.0	900.2	636.8	427.3	380.6	421.2	541.2	663.2	844.6	1027	1144	1161	1225	837.3	414.5	412.8	678.7	2856	9999.9	9999.9	417.0	18.83	10.96	7.631	5.724	4.589	4.201	3.285	3.168	2.751	2.272	2.385	1.947	1.901	2.097	1.905	1.796	1.598	1.642	1.641	1.547	1.614	1.873	2.159	2.516	2.991	3.490	3.367	2.940	2.473	2.656	2.355	2.214	2.187	2.271	2.770	2.609	3.136	3.307	3.664	4.163	4.446	5.164	5.327	5.949	6.429	6.634	6.438	7.209	7.698	8.737	8.427	6.498	4.323	3.278	3.270
325.0	755.7	1101	1058	707.7	473.6	413.9	456.5	567.6	713.0	911.6	1100	1200	1174	1134	1056	530.8	315.3	291.0	730.4	3731	9999.9	9999.9	61.24	15.33	9.400	7.309	5.418	4.692	3.901	3.516	3.172	2.528	2.467	2.220	2.092	1.992	1.843	1.891	1.662	1.490	1.574	1.414	1.874	1.971	2.202	2.673	3.356	3.815	4.051	3.426	2.864	2.962	2.478	2.364	2.475	2.410	2.735	2.948	3.342	3.599	3.875	4.315	4.655	5.297	5.790	6.135	6.765	6.659	6.745	7.651	7.412	7.153	7.980	7.888	6.421	4.082	3.235
330.0	813.5	1251	1284	893.0	553.5	467.3	496.5	600.5	747.6	953.3	1160	1248	1225	1086	970.9	757.2	417.9	241.0	275.6	924.2	3843	9999.9	9999.9	1438	23.37	10.25	7.038	5.664	4.922	4.043	3.501	2.948	2.582	2.416	2.187	2.009	1.884	1.912	1.815	1.659	1.631	1.569	1.824	2.033	2.568	3.050	3.498	4.435	4.527	4.218	3.581	3.435	2.985	2.687	2.538	2.692	2.765	3.018	3.496	3.801	4.152	4.375	5.061	5.714	6.229	6.306	6.875	7.000	7.112	7.882	7.325	6.798	6.863	6.902	6.919	6.133	5.175
335.0	888.4	1306	1406	1028	642.2	524.0	535.9	635.4	776.5	976.0	1182	1275	1266	1109	899.2	715.6	642.7	334.4	213.1	314.9	929.6	2509	9999.9	9999.9	428.6	23.89	9.733	7.814	6.200	4.976	3.800	3.171	2.955	2.626	2.487	2.103	2.012	1.869	1.902	1.786	1.527	1.709	1.856	2.144	2.698	3.183	3.878	4.483	4.959	4.465	4.023	3.832	3.171	3.180	2.934	2.910	3.316	3.082	3.524	3.647	4.422	4.289	5.406	5.611	6.179	6.826	7.232	7.429	7.191	7.906	7.508	6.613	6.971	6.828	6.019	5.453	5.949
340.0	908.5	1325	1454	1076	703.3	570.2	565.4	658.6	782.7	971.7	1170	1258	1259	1112	887.3	663.4	632.3	494.8	243.8	200.0	294.0	623.2	2892	9999.9	9999.9	356.5	15.84	9.831	7.197	5.786	4.280	3.504	3.491	2.758	2.510	2.225	2.184	2.047	1.917	1.797	1.687	1.814	1.874	2.157	2.576	2.990	3.914	4.747	5.056	4.194	4.098	4.499	3.670	3.223	3.153	2.916	3.226	3.251	3.628	3.929	4.511	4.504	5.181	5.739	6.162	6.581	7.180	7.055	7.071	8.077	7.287	6.773	7.103	6.608	5.743	5.080	5.096
345.0	850.1	1291	1427	1106	754.1	595.9	587.5	658.6	774.5	948.2	1129	1217	1223	1089	883.1	645.6	542.3	555.3	346.6	198.8	169.3	214.2	705.8	3693	9999.9	9928	53.41	12.75	9.021	6.565	5.222	4.031	3.384	3.135	2.765	2.392	2.051	2.143	2.037	1.871	1.674	1.823	1.902	2.282	2.636	3.090	3.657	4.458	5.069	4.515	4.171	4.571	3.867	3.557	3.322	3.150	3.619	3.358	3.348	4.108	4.429	4.651	5.027	5.760	5.945	6.278	6.749	6.998	7.538	7.819	7.446	6.557	6.874	6.596	5.743	4.903	4.727
350.0	795.9	1218	1355	1103	782.1	641.0	612.6	658.9	759.6	905.5	1058	1137	1142	1031	849.7	645.8	508.2	464.1	451.1	304.1	177.4	148.4	230.0	887.0	3705	9999.9	9060	1330	21.73	8.851	6.620	4.777	3.935	3.421	2.796	2.394	2.332	2.158	1.881	1.904	1.695	1.835	1.898	2.145	2.507	2.909	3.403	4.320	4.859	4.476	4.171	4.498	4.009	3.692	3.427	3.293	3.622	3.422	3.612	4.023	4.333	4.570	4.852	5.329	5.650	6.067	6.121	6.395	6.817	6.995	6.746	6.485	6.484	6.395	5.599	5.155	4.602
355.0	722.5	1105	1247	1065	804.9	682.9	629.1	668.4	768.9	862.1	994.4	1052	1055	965.5	817.4	648.0	520.7	433.3	398.5	428.6	272.4	164.4	149.2	271.6	876.2	2466	9017	9999.9	406.7	22.49	9.137	6.181	5.054	3.836	3.053	2.640	2.565	2.263	2.001	1.858	1.745	1.750	1.728	2.147	2.424	2.689	3.202	4.339	4.489	4.301	4.094	4.416	3.961	3.539	3.617	3.430	3.588	3.580	3.740	3.875	4.228	4.594	5.006	5.029	5.479	5.362	5.679	6.258	6.159	6.470	6.285	6.261	6.391	5.928	5.480	4.935	4.892
360.0	668.1	1010	1173	1044	817.8	721.6	677.4	689.6	765.2	839.0	954.9	1008	1001	917.3	793.2	646.7	530.1	440.1	382.9	402.5	381.2	220.5	152.0	151.1	261.8	597.6	2540	9999.9	9999.9	351.9	14.81	7.912	5.744	4.447	3.200	2.691	2.831	2.305	1.952	1.838	1.770	1.797	1.706	2.125	2.208	2.425	3.139	3.821	4.334	4.100	3.798	4.268	3.865	3.702	3.641	3.620	3.850	3.760	3.890	4.112	4.058	4.449	4.890	4.981	5.082	5.418	5.558	5.818	5.808	6.310	6.130	5.905	6.045	5.726	5.469	5.212	4.879
365.0	653.5	960.9	1102	1004	830.6	743.4	691.8	696.4	753.3	833.1	917.6	947.3	947.4	878.9	770.4	639.8	542.6	460.5	393.2	363.8	403.6	316.5	186.1	143.5	141.4	192.8	613.8	3460	9999.9	9747	51.48	11.46	7.234	5.487	4.059	3.231	3.136	2.533	2.105	2.030	1.820	1.901	1.740	2.093	2.129	2.441	2.774	3.492	4.024	3.858	3.586	4.356	4.125	3.958	3.532	3.778	3.827	3.956	4.167	4.042	4.307	4.475	4.560	4.977	5.107	5.236	5.181	5.499	5.585	5.953	6.050	5.768	5.775	5.525	5.059	4.910	4.763
370.0	599.8	887.8	1034	953.1	839.2	762.0	702.7	718.3	752.7	819.6	868.1	888.0	886.3	827.5	736.6	629.6	549.6	482.5	418.2	375.4	360.1	368.5	290.0	183.1	139.2	123.5	196.1	822.0	3472	9999.9	8727	1273	20.04	7.551	5.260	3.995	3.440	2.955	2.410	2.282	1.965	1.955	1.896	2.089	2.093	2.463	2.794	3.361	3.747	3.469	3.573	4.129	3.962	3.751	3.794	3.813	3.989	3.933	4.148	4.001	4.302	4.287	4.697	4.654	4.899	5.008	5.051	5.107	5.397	5.596	5.553	5.394	5.717	5.470	4.999	4.775	4.831
375.0	553.9	799.0	963.1	925.1	832.8	766.6	721.6	728.1	737.5	788.8	826.9	839.2	829.0	784.6	703.8	616.1	557.5	496.8	447.2	401.0	357.4	336.7	358.3	276.9	170.6	134.1	123.6	242.5	816.1	2436	8382	9999.9	362.4	21.35	7.592	5.059	3.685	3.236	2.664	2.420	2.173	2.094	1.977	2.161	2.036	2.386	2.609	3.422	3.532	3.309	3.338	4.098	4.042	3.874	3.946	3.942	4.125	4.150	4.062	3.921	4.318	4.453	4.365	4.485	4.364	4.928	5.019	5.146	5.313	5.273	5.227	5.014	5.035	5.096	5.010	4.911	4.731
380.0	528.3	730.2	908.6	893.9	835.8	785.1	723.0	716.2	739.0	763.7	806.0	796.0	792.8	748.6	681.9	603.0	549.2	500.6	459.4	415.0	370.5	334.8	337.1	346.2	224.3	152.8	122.0	126.3	235.5	584.2	2349	9999.9	9999.9	315.8	13.02	6.789	4.798	3.643	2.826	2.589	2.392	2.219	2.089	2.195	2.152	2.427	2.344	3.153	3.378	3.025	3.186	4.077	4.109	3.983	4.078	3.926	4.220	4.033	4.043	4.259	4.256	4.412	4.354	4.386	4.477	4.555	4.923	5.210	4.767	4.869	4.744	4.997	4.616	4.890	4.871	4.957	4.682
385.0	502.9	714.2	849.4	866.3	834.6	785.4	727.8	696.4	727.9	743.6	770.1	762.5	758.0	714.9	660.6	596.0	545.8	502.6	462.8	426.2	384.6	344.7	321.0	343.6	298.8	186.8	141.6	115.1	118.3	179.4	564.6	3183	9999.9	8754	44.10	9.117	6.161	4.693	3.393	2.906	2.367	2.264	2.174	2.068	2.168	2.461	2.448	2.895	3.162	3.109	3.169	3.884	4.035	3.854	3.991	3.907	4.031	4.035	4.066	4.049	4.189	4.334	4.314	4.272	4.332	4.622	4.470	4.659	4.652	4.828	4.897	4.786	4.794	4.958	4.816	4.656	4.769
390.0	465.9	676.0	815.7	836.3	825.7	770.5	720.6	707.7	714.2	725.8	736.4	726.8	717.6	677.7	629.9	573.9	530.2	497.7	464.7	429.3	398.8	361.9	330.9	315.1	318.8	267.4	179.3	135.1	111.0	106.2	174.6	748.9	3135	9087	6825	1097	18.39	6.029	4.317	3.486	2.800	2.430	2.314	2.226	2.294	2.565	2.385	2.881	3.082	3.061	3.194	3.878	3.887	4.013	3.991	3.825	4.109	3.909	4.142	4.168	4.184	4.200	4.093	4.156	4.227	4.427	4.452	4.293	4.533	4.528	4.522	4.615	4.556	4.556	4.559	4.544	4.661
395.0	449.7	651.2	780.6	809.5	796.1	759.0	727.1	695.6	700.9	711.4	708.6	697.9	670.8	644.1	599.4	554.9	515.9	489.3	461.0	431.9	404.7	374.5	345.1	317.2	296.3	303.5	258.2	170.5	132.2	107.4	103.8	212.1	730.2	2151	5845	9999.9	1794	21.03	6.127	4.473	3.551	2.803	2.615	2.404	2.376	2.453	2.631	2.961	3.043	2.961	3.185	3.727	3.715	3.955	3.809	3.929	4.002	3.975	4.421	4.058	3.924	4.305	4.139	4.089	4.145	4.297	3.972	4.054	4.056	4.286	4.447	4.272	4.462	4.199	4.511	4.642	4.476
400.0	438.5	630.0	749.6	786.9	791.0	753.4	718.4	694.2	699.8	679.4	685.7	677.9	653.7	624.2	582.1	537.5	504.8	481.3	454.4	430.0	404.1	379.4	352.3	325.0	296.5	289.5	296.5	219.7	155.2	122.3	100.0	102.8	202.0	508.0	1571	7820	9706	292.7	14.12	5.512	4.034	3.144	2.637	2.730	2.447	2.497	2.684	2.826	3.061	2.668	3.003	3.794	3.669	3.715	3.924	3.966	3.955	4.194	4.171	3.873	4.159	3.875	3.890	3.957	4.278	4.063	3.854	3.947	4.055	4.269	4.264	4.043	4.280	4.122	4.541	4.506	4.331
405.0	434.6	600.9	720.7	772.3	779.2	747.5	718.0	696.6	685.3	674.7	672.4	656.5	631.0	601.2	560.4	515.6	488.3	468.0	444.2	424.8	404.2	386.1	359.0	332.8	304.5	281.4	286.4	271.1	186.5	138.9	108.6	88.99	92.06	146.4	376.0	2241	9162	7374	240.6	8.711	4.795	3.730	3.029	2.800	2.611	2.688	2.618	3.054	2.836	2.890	3.019	3.845	3.525	3.695	4.089	3.738	4.150	4.333	3.933	3.961	4.097	4.058	3.928	3.859	4.017	3.903	4.017	3.936	3.820	3.999	4.037	4.136	4.283	4.184	4.267	4.298	4.407
410.0	401.7	572.4	692.3	755.2	753.3	732.4	713.4	687.6	664.6	652.9	647.8	628.0	604.7	578.4	534.5	491.0	468.3	447.9	429.5	415.0	395.1	380.0	358.2	338.8	314.0	286.2	267.5	272.8	244.1	172.5	126.7	96.69	76.55	72.84	113.4	522.5	2559	6416	7043	1099	17.66	4.801	3.838	3.049	2.880	2.649	2.608	3.056	2.895	2.856	2.872	3.600	3.503	3.663	3.690	3.571	3.882	4.137	3.832	3.924	4.018	4.081	3.990	3.805	3.899	3.801	3.822	3.915	3.816	4.008	3.952	4.080	4.008	4.106	3.937	3.965	4.315
415.0	387.2	527.7	659.1	719.9	716.4	709.0	694.1	669.3	656.8	643.6	627.3	601.8	579.8	547.9	504.6	465.4	440.4	423.9	407.8	395.1	381.8	367.6	351.4	336.8	315.6	291.4	268.0	252.5	254.6	227.1	153.1	109.8	82.44	65.30	60.66	141.7	588.6	1491	4274	8252	1759	21.44	5.097	3.940	3.545	2.905	2.777	3.068	2.938	2.813	2.824	3.490	3.497	3.763	3.625	3.537	3.929	4.158	3.921	4.222	3.775	4.013	3.840	4.031	3.896	3.658	3.705	3.530	3.791	3.966	3.767	3.894	3.862	3.867	4.064	3.741	3.914
420.0	364.2	508.5	633.6	696.1	699.4	687.0	678.5	658.2	643.5	633.1	617.1	588.7	556.2	526.6	484.5	446.7	425.5	406.5	392.8	380.3	367.2	355.7	344.0	329.5	313.8	293.6	271.2	246.7	237.9	244.5	184.8	122.4	91.24	70.49	53.26	61.15	152.7	349.1	1091	5570	7565	284.5	14.43	4.809	3.890	3.195	3.032	3.030	2.984	2.823	2.878	3.591	3.617	3.618	3.627	3.578	3.662	4.127	3.920	3.934	3.683	3.950	3.963	3.844	3.606	3.522	3.711	3.441	3.550	4.003	3.767	3.649	3.416	3.512	3.530	3.612	3.544
425.0	338.7	487.4	602.6	664.4	687.6	679.4	666.0	659.1	639.1	617.9	613.2	574.0	541.4	506.5	465.3	427.0	404.6	389.8	379.1	363.5	356.7	345.9	336.4	325.1	309.8	292.5	269.2	251.7	230.3	229.3	212.9	144.2	99.57	76.49	55.86	46.69	58.82	96.62	258.5	1526	6278	6054	245.8	8.763	4.678	3.728	2.951	3.119	2.983	2.714	2.931	3.459	3.422	3.313	3.491	3.584	3.845	3.816	3.784	3.595	3.636	3.665	3.642	3.677	3.707	3.641	3.512	3.308	3.556	3.600	3.702	3.593	3.679	3.424	3.633	3.652	3.782
430.0	354.8	485.0	577.7	648.4	662.5	665.3	652.2	645.4	629.9	608.3	589.0	557.3	524.2	482.0	443.9	407.9	383.6	370.4	357.0	345.0	334.2	330.0	322.2	314.3	304.5	288.1	269.6	250.0	231.2	213.7	207.6	178.5	121.4	85.96	63.59	50.07	42.71	43.13	73.93	353.6	1683	4623	5872	1072	18.15	4.972	3.798	3.597	3.167	2.790	2.998	3.393	3.474	3.470	3.399	3.524	3.816	3.608	3.631	3.564	3.802	3.716	3.871	3.686	3.654	3.716	3.592	3.204	3.563	3.510	3.421	3.393	3.481	3.436	3.501	3.330	3.437
435.0	491.9	461.4	559.8	613.6	645.3	640.3	650.0	636.7	615.3	598.3	576.8	536.3	504.2	465.6	418.5	386.0	362.4	349.4	335.7	325.3	320.2	311.3	307.7	301.9	296.5	279.2	265.5	252.1	234.8	214.0	190.6	181.2	153.7	102.3	73.20	57.78	43.56	35.92	35.71	94.03	386.7	1064	3291	7508	1802	23.38	5.472	4.330	3.487	3.057	3.122	3.533	3.560	3.488	3.253	3.633	3.698	3.798	3.683	3.499	4.022	3.557	3.860	3.667	3.657	3.626	3.273	3.135	3.283	3.089	3.573	3.488	3.141	3.367	3.311	3.315	3.338
440.0	727.7	481.7	549.9	611.1	625.0	623.3	622.1	625.1	607.1	592.5	563.0	530.7	491.9	451.3	402.0	370.0	349.8	332.5	320.1	310.1	305.1	297.9	297.8	292.5	285.5	275.4	262.0	247.7	232.7	212.6	188.7	166.6	163.8	124.0	81.19	62.23	47.68	36.37	29.64	37.50	99.29	248.5	827.7	4881	7600	1362	16.13	5.230	4.094	3.149	3.267	3.482	3.426	3.326	3.202	3.623	3.741	3.870	3.728	3.752	3.760	3.683	3.786	3.667	3.516	3.418	3.335	3.333	3.344	3.203	3.301	3.397	3.458	3.292	3.305	3.173	3.413
445.0	906.7	676.1	515.8	581.0	594.9	596.1	610.7	607.0	590.3	580.3	550.0	515.3	475.4	437.5	392.2	356.7	329.6	319.6	304.2	291.7	289.4	282.5	283.9	279.1	274.7	268.2	253.1	241.0	228.9	211.4	187.4	160.6	152.8	139.4	94.55	66.74	51.26	39.33	31.24	26.99	36.28	66.74	195.4	1332	6103	6472	230.1	10.79	4.753	3.586	3.450	3.795	3.363	3.493	3.569	3.551	3.360	3.646	4.034	3.604	3.636	3.695	3.544	3.635	3.551	3.340	3.038	3.378	3.460	3.319	2.926	3.135	3.303	2.955	2.887	2.968	3.001
450.0	769.9	1263	627.0	534.5	557.0	569.4	580.5	580.3	564.5	549.4	527.3	493.6	448.4	404.2	364.5	331.6	308.6	295.2	281.9	270.8	268.7	262.2	262.4	259.4	257.5	251.1	239.5	232.2	220.3	204.6	183.8	156.8	137.3	129.8	112.1	78.30	56.35	43.41	34.77	27.73	24.82	28.48	54.39	306.7	1621	4672	5760	1068	16.74	4.634	3.917	4.064	3.755	3.587	3.466	3.509	3.545	3.694	3.773	3.563	3.627	3.422	3.385	3.666	3.454	3.096	3.205	3.236	3.157	3.055	2.902	3.117	2.860	2.966	3.036	2.950	2.884
455.0	428.9	1656	1147	515.2	511.5	534.9	541.2	543.3	537.6	520.5	491.7	456.8	415.4	373.7	337.9	297.7	282.8	264.5	257.9	249.1	240.9	239.0	239.7	235.1	236.0	231.2	222.5	213.5	208.7	196.5	176.2	152.4	131.8	114.4	109.2	94.39	64.38	46.59	36.94	29.67	24.55	21.60	24.19	78.47	369.8	1069	2798	6607	1554	19.87	4.763	4.473	3.999	3.747	3.454	3.388	3.445	3.566	3.478	3.295	3.407	3.378	3.539	3.538	3.272	2.885	3.155	3.021	3.107	2.739	2.619	2.950	2.705	2.762	2.576	2.812	2.889
460.0	292.2	1297	2279	640.1	476.1	501.9	513.2	516.3	509.4	498.8	467.9	432.2	391.1	350.4	313.9	282.0	260.9	245.3	236.0	229.5	221.4	221.9	219.1	219.9	219.0	213.6	208.5	201.6	196.3	186.7	168.1	147.6	127.2	108.0	97.23	95.99	75.32	50.48	39.15	30.41	25.48	21.25	18.72	28.52	91.35	246.2	681.5	3848	6242	1183	15.23	5.678	4.271	3.933	3.585	3.521	3.642	3.595	3.621	3.459	3.444	3.277	3.297	3.302	3.188	2.958	3.088	2.705	2.759	2.634	2.735	2.712	2.853	2.616	2.587	2.386	2.696
465.0	245.0	738.0	2817	1248	459.5	473.0	479.0	485.8	473.9	468.1	440.8	409.6	365.8	329.6	293.6	262.9	242.7	231.0	218.9	211.7	208.5	204.8	204.2	204.7	205.2	196.7	195.5	189.1	186.6	176.4	162.0	142.6	123.4	105.1	90.18	87.91	82.10	56.40	39.83	32.37	25.52	21.14	18.00	17.73	29.81	63.04	159.9	1007	4737	5260	197.6	12.73	4.928	4.328	3.522	3.321	3.668	3.450	3.568	3.189	3.284	3.277	3.268	3.194	2.859	2.922	2.827	2.719	2.668	2.842	2.587	2.639	2.483	2.279	2.691	2.436	2.402
470.0	232.4	389.1	1973	2871	600.0	427.4	434.1	444.7	432.1	427.4	412.8	375.9	332.1	298.9	262.5	236.4	223.7	207.8	196.2	190.7	186.2	182.6	183.6	180.8	182.8	177.2	173.7	171.5	167.1	160.6	148.5	132.2	114.6	98.51	83.17	75.79	73.55	63.81	45.87	33.65	27.18	21.89	18.55	15.66	16.87	22.73	43.43	232.2	1230	3422	4421	1048	18.15	4.931	4.015	3.528	3.584	3.466	3.306	3.122	3.088	3.145	3.095	3.157	2.799	2.727	2.837	2.466	2.584	2.500	2.477	2.413	2.325	2.354	2.415	2.367	2.215
475.0	227.2	271.4	798.1	3364	1884	398.8	390.1	404.0	399.9	388.4	375.7	339.4	303.0	267.9	233.2	210.6	198.1	183.0	172.8	167.3	163.3	160.7	163.6	159.8	161.6	156.4	154.9	152.7	151.0	145.4	134.0	121.2	105.5	92.17	78.47	68.63	59.92	60.46	54.07	37.59	27.73	22.73	18.09	15.43	14.27	14.44	17.43	58.68	280.0	775.0	1907	5050	1599	24.49	4.693	3.614	3.482	3.587	3.027	2.830	2.915	2.896	2.959	2.854	2.589	2.488	2.473	2.520	2.365	2.278	2.241	2.386	2.143	2.124	2.062	1.959	2.054
480.0	222.5	267.5	407.8	2377	3362	520.7	364.0	365.9	370.7	362.1	347.7	319.5	282.1	246.9	216.0	197.9	181.1	166.3	160.6	153.4	150.6	146.7	149.4	147.3	147.2	144.1	144.1	140.7	139.6	134.9	127.5	111.9	100.7	87.58	74.83	65.17	55.62	52.09	54.48	42.71	29.50	23.05	18.81	15.37	13.95	12.12	11.89	20.05	68.03	178.0	455.9	2672	5086	1333	17.92	4.472	3.601	3.391	3.029	2.827	2.788	2.775	2.852	2.634	2.754	2.570	2.436	2.206	2.336	2.064	2.082	2.137	1.815	1.974	1.979	1.783	1.872
485.0	215.4	267.8	295.8	1194	3995	1320	341.1	347.3	341.9	338.9	326.4	298.6	263.8	232.6	201.5	181.7	166.6	156.1	151.7	144.0	139.6	136.8	136.7	136.4	135.5	134.2	132.2	131.6	129.8	125.2	118.1	107.8	94.09	82.77	71.51	62.27	53.62	48.16	48.88	46.27	32.36	23.42	19.60	16.18	14.19	12.45	11.01	11.29	21.05	45.10	106.8	679.1	3523	4797	240.4	11.23	4.124	3.491	3.175	2.739	2.751	2.654	2.934	2.545	2.530	2.605	2.337	1.961	2.314	2.146	2.109	1.998	1.834	1.896	1.876	1.776	1.987
490.0	184.3	282.3	273.0	503.3	2696	3224	574.2	318.9	314.1	312.0	298.7	275.7	240.5	214.8	185.1	166.9	150.8	143.5	137.4	129.8	126.0	123.3	123.8	122.3	123.1	121.3	119.3	118.9	118.4	114.6	108.6	98.87	87.39	77.32	67.05	59.05	50.68	44.24	41.45	42.28	37.52	26.88	20.09	16.79	14.39	12.46	10.93	10.00	10.70	15.31	28.81	156.6	897.8	2806	3971	1080	19.64	4.549	3.376	3.228	2.900	2.636	2.794	2.438	2.452	2.428	2.085	2.028	2.120	2.025	1.914	1.912	1.825	1.801	1.861	1.748	1.898
495.0	152.8	247.0	273.1	303.0	1004	3899	1825	309.3	291.5	286.5	273.3	246.5	217.3	194.9	167.3	149.8	135.2	130.1	121.5	116.7	111.6	108.3	110.1	107.4	109.4	106.8	106.1	105.6	106.0	102.8	96.87	88.72	80.72	70.92	62.34	54.76	48.14	41.29	37.56	34.61	35.83	32.75	21.73	16.93	14.33	12.95	10.66	9.814	8.805	8.666	11.19	39.31	204.3	635.2	1776	4626	1823	27.11	4.074	3.518	2.988	2.824	2.476	2.396	2.160	2.232	2.137	1.940	1.878	1.955	1.807	2.039	1.718	1.736	1.650	1.545	1.618
500.0	127.5	208.7	279.8	250.9	426.2	2758	3355	383.3	264.1	257.8	248.7	231.0	198.1	178.7	156.8	137.5	124.5	116.7	111.9	106.1	102.0	97.92	100.2	97.92	98.17	96.47	95.71	96.14	97.18	94.23	89.09	81.67	74.39	64.90	57.19	51.46	45.26	39.66	34.72	30.41	29.97	32.92	25.21	17.46	14.41	12.53	11.20	9.439	8.482	7.452	7.262	13.24	49.75	145.8	423.3	2330	4927	1483	20.16	3.971	3.301	2.934	2.452	2.310	2.052	2.260	1.824	1.985	1.848	1.737	1.788	1.772	1.653	1.693	1.490	1.598	1.669
505.0	112.9	168.1	279.6	236.3	267.1	1339	4376	1118	253.2	231.4	225.6	211.4	186.6	162.2	143.7	125.3	112.7	106.1	101.4	94.42	92.26	90.13	89.75	90.05	89.30	88.88	86.38	87.82	88.09	86.32	82.45	75.44	67.28	61.07	53.65	47.28	42.08	36.94	32.50	28.54	26.45	28.89	26.74	19.53	14.51	11.87	10.50	9.376	8.395	7.270	6.213	7.436	15.15	36.53	98.64	582.5	3093	4673	268.5	11.51	3.392	2.942	2.437	2.271	2.238	2.144	1.832	1.827	1.808	1.651	1.806	1.698	1.509	1.442	1.470	1.546	1.616
510.0	106.2	136.3	230.9	254.5	207.4	487.5	3018	3313	423.3	211.9	204.3	189.3	167.9	144.5	125.3	110.3	100.3	92.90	88.41	83.03	80.77	78.71	78.08	78.67	77.08	77.02	76.40	75.97	77.38	75.09	71.69	66.38	60.02	54.33	47.77	43.20	38.28	33.80	29.46	25.90	23.47	22.95	24.53	22.09	15.96	11.91	10.57	9.006	8.128	6.847	6.250	5.932	7.351	11.70	25.44	133.8	771.4	2542	3417	1151	19.81	3.525	2.714	2.347	2.205	1.993	1.896	1.778	1.682	1.593	1.542	1.400	1.379	1.437	1.423	1.429	1.387
515.0	98.26	119.9	173.3	257.2	199.0	246.1	1056	4534	1624	198.6	179.8	164.3	146.8	128.0	109.2	99.50	87.14	81.96	76.62	72.30	69.33	68.41	67.30	66.17	67.09	66.62	67.63	65.07	65.27	66.06	62.49	58.09	53.34	47.37	43.02	37.57	34.76	30.05	26.80	23.46	20.97	19.69	19.11	21.45	19.08	12.45	10.31	8.944	7.583	6.533	6.038	5.883	5.291	6.249	9.024	33.00	175.4	572.6	1356	3737	1709	26.86	3.300	2.485	2.138	2.210	1.773	1.735	1.583	1.371	1.615	1.307	1.473	1.275	1.312	1.189	1.344
520.0	96.86	110.6	142.7	230.8	210.0	182.8	380.3	3327	3563	264.7	164.7	150.2	132.7	115.6	98.25	86.93	80.34	72.68	68.84	63.14	62.32	60.73	60.05	59.23	60.60	58.99	57.96	58.03	59.26	58.61	55.44	51.97	46.69	42.66	38.09	34.34	31.34	27.66	24.66	21.70	19.67	17.79	16.00	17.84	19.75	14.60	10.61	8.885	7.148	6.247	5.673	5.685	5.225	4.644	5.359	10.49	42.19	131.1	317.8	1788	3765	1261	18.89	2.874	2.324	2.100	1.810	1.714	1.410	1.462	1.442	1.389	1.248	1.266	1.151	1.218	1.335
525.0	86.98	95.87	121.8	185.6	224.5	157.5	205.2	1539	4927	950.5	150.0	138.2	119.5	105.2	90.45	78.10	72.36	65.31	61.49	58.27	56.00	55.55	54.22	54.00	53.07	52.46	52.34	52.26	53.08	52.08	50.15	46.79	42.54	38.99	34.56	31.12	28.74	25.62	22.98	20.19	18.06	16.70	14.96	14.84	17.23	16.03	11.27	8.195	6.906	5.966	5.375	5.398	5.316	4.492	4.176	5.339	12.26	32.38	74.28	438.3	2188	3447	269.2	9.893	2.674	2.143	1.742	1.697	1.358	1.401	1.318	1.230	1.298	1.093	1.096	1.201	1.044
530.0	73.51	87.69	108.3	132.0	202.9	162.8	144.8	488.2	3470	3192	321.8	119.3	104.8	93.43	78.89	69.86	62.32	58.31	52.87	51.97	49.62	47.99	46.72	45.80	46.49	45.99	45.23	45.16	46.09	44.92	43.30	40.35	36.88	34.25	30.37	27.19	25.32	22.65	20.18	18.08	16.11	14.94	13.36	12.37	13.00	14.38	13.00	8.568	6.782	5.725	5.045	4.747	4.640	4.496	3.906	3.857	5.359	9.775	19.03	100.5	535.9	1772	2262	1069	19.15	2.599	1.881	1.578	1.392	1.438	1.237	1.267	1.120	1.045	1.079	1.073	1.072
535.0	63.49	78.66	92.74	100.7	154.3	188.2	124.7	201.6	1140	4935	1471	109.7	91.75	80.92	68.60	60.30	54.55	50.89	45.98	44.38	42.78	41.00	40.41	39.29	38.59	38.29	37.62	38.35	39.04	38.62	36.88	35.18	30.72	29.24	26.13	23.53	22.16	19.55	17.59	15.99	14.69	12.77	12.03	10.73	10.22	10.93	12.58	10.34	6.761	5.312	4.822	4.226	3.902	3.972	4.225	3.464	3.614	4.638	6.584	24.81	121.7	398.6	874.0	2643	1499	25.64	2.301	1.850	1.527	1.326	1.258	1.411	1.062	1.034	1.016	0.946	1.007
540.0	63.79	76.51	76.14	84.75	115.5	186.6	122.7	125.6	351.0	3460	4012	172.2	80.79	71.52	60.64	53.65	49.34	43.79	41.11	39.73	37.48	36.09	35.20	35.45	34.31	34.06	33.30	32.93	33.95	33.67	31.68	30.86	27.85	25.87	23.33	21.51	19.39	17.97	15.91	14.34	12.80	11.32	10.55	9.482	8.891	8.720	10.45	11.15	7.604	5.146	4.581	3.966	3.725	3.589	3.729	3.699	3.102	3.260	3.585	7.635	29.16	90.99	203.6	1196	2884	299.8	17.42	2.166	1.771	1.420	1.174	1.257	1.070	0.994	0.917	0.930	0.942
545.0	56.55	74.69	73.30	80.14	89.11	160.4	135.5	102.4	149.3	1457	5907	692.9	74.36	62.83	54.96	47.97	42.54	38.97	36.55	35.00	33.28	31.37	30.77	31.84	30.88	29.89	29.80	29.08	30.21	29.85	28.34	27.09	24.49	22.77	21.42	18.90	17.15	15.28	14.32	13.09	11.95	10.44	9.892	8.974	8.530	7.730	8.227	9.564	8.566	5.879	4.451	3.830	3.404	3.400	3.122	3.394	3.234	2.783	2.732	3.661	8.404	22.15	47.86	289.1	1595	2341	271.6	7.694	1.998	1.525	1.238	1.245	1.170	1.073	0.940	0.897	0.916
550.0	59.44	63.43	64.40	68.42	72.56	106.2	147.6	93.97	96.37	423.7	3962	2813	126.3	53.05	46.93	40.50	35.90	34.25	30.94	29.83	28.29	26.32	25.95	25.81	25.57	24.72	25.29	24.46	25.17	24.79	23.38	22.50	20.63	18.84	17.96	15.94	14.83	13.09	12.20	11.20	10.03	9.079	8.392	7.767	7.185	6.465	6.410	6.874	7.610	6.499	4.512	3.525	3.148	3.035	2.775	2.832	3.159	2.776	2.476	2.379	3.476	6.654	12.50	66.35	386.5	1202	1772	762.4	18.79	2.099	1.408	1.247	0.992	0.982	0.908	0.878	0.904
555.0	65.68	63.41	61.71	56.79	57.77	70.89	131.8	104.9	70.24	145.1	1158	4583	969.1	49.35	38.91	33.41	30.48	27.94	25.46	24.17	23.03	21.66	21.22	20.56	20.88	20.22	20.58	19.79	20.09	20.00	18.72	18.47	16.67	15.65	14.47	13.12	11.98	10.56	10.29	9.389	8.574	7.758	7.018	6.579	6.188	5.642	5.143	4.996	5.507	6.511	5.119	3.595	2.881	2.695	2.477	2.486	2.696	2.823	2.663	2.004	2.262	2.964	4.062	16.19	87.58	270.2	623.6	1794	1028	25.30	1.734	1.404	1.073	0.984	0.821	0.832	0.961
560.0	54.16	56.74	59.57	54.62	49.43	52.81	93.83	124.5	62.41	79.34	321.1	3166	2916	91.47	35.20	29.32	26.75	24.04	21.78	20.10	19.49	18.21	17.60	17.10	16.95	17.07	17.01	16.69	17.37	17.42	16.10	15.73	13.86	13.14	12.20	11.24	10.39	9.333	9.197	8.291	7.369	6.931	6.267	5.687	5.328	4.911	4.476	4.073	4.276	5.078	5.301	3.979	2.727	2.472	2.334	2.225	1.964	2.318	2.730	2.153	1.991	2.074	2.126	4.847	20.91	61.69	143.7	762.4	1800	307.5	17.69	1.617	1.165	1.065	0.828	0.904	0.842
565.0	52.90	57.80	56.17	51.24	44.14	46.57	64.32	129.0	72.28	58.75	115.8	1222	4353	441.0	30.58	25.91	22.32	20.56	18.88	17.62	16.89	15.76	15.04	15.07	14.87	14.16	14.48	14.75	14.30	14.80	13.76	13.40	11.80	10.99	10.55	9.464	8.608	8.320	7.601	6.987	6.493	6.048	5.566	4.795	4.564	4.282	4.154	3.698	3.550	3.928	4.830	4.242	2.654	2.156	2.023	1.946	1.904	2.047	2.259	2.190	1.710	1.732	1.673	2.245	5.879	15.19	33.63	180.9	901.8	1533	272.2	6.921	1.118	1.121	0.863	0.829	0.781
570.0	61.97	59.66	56.22	44.86	39.23	38.18	45.91	97.63	94.84	52.12	64.46	334.1	2847	2111	71.25	22.25	18.51	16.53	15.51	14.93	13.80	13.17	12.58	12.44	11.95	11.66	11.51	11.71	11.65	11.78	11.43	10.77	9.749	9.078	8.027	7.722	6.954	6.398	6.115	5.618	5.366	4.814	4.480	4.156	3.781	3.672	3.413	2.993	2.879	2.782	3.353	3.863	2.946	2.238	1.760	1.804	1.692	1.790	1.716	1.859	1.977	1.681	1.470	1.612	2.468	4.522	8.833	41.67	213.8	702.2	1148	501.1	18.62	1.395	0.939	0.846	0.841
575.0	63.97	61.42	56.51	48.39	33.90	33.74	36.97	56.48	109.2	59.35	50.27	109.4	808.3	3427	702.3	20.17	16.01	14.36	12.24	11.86	11.03	10.40	10.47	10.16	9.856	9.318	9.581	9.474	9.600	9.243	9.185	8.489	7.934	7.447	6.796	6.312	5.805	5.330	5.055	4.609	4.128	4.096	3.370	3.483	3.099	3.048	2.771	2.678	2.497	2.208	2.196	2.525	2.975	2.397	1.756	1.652	1.667	1.583	1.545	1.431	1.759	1.900	1.447	1.564	1.589	1.972	3.110	10.34	48.79	157.7	358.4	1013	715.7	25.57	1.204	1.018	0.817
580.0	64.57	62.88	52.74	41.82	31.07	30.75	29.77	40.99	98.21	77.66	46.35	59.27	219.0	2277	2236	49.21	14.76	12.47	11.38	10.24	9.569	9.119	8.726	8.518	8.666	8.045	8.243	8.160	8.054	7.819	7.743	7.242	6.958	6.133	5.738	5.450	5.109	4.472	4.238	3.922	3.451	3.544	3.167	3.221	3.032	2.641	2.536	2.292	2.260	1.927	1.813	2.001	2.512	2.610	1.930	1.574	1.392	1.426	1.414	1.376	1.377	1.777	1.740	1.598	1.449	1.344	1.754	3.277	12.02	36.20	82.06	391.5	1082	305.2	16.94	1.113	0.908
585.0	49.64	56.35	52.36	37.86	31.90	28.26	28.73	33.96	72.51	97.04	48.61	47.29	78.64	841.3	3251	299.5	13.40	11.01	10.26	9.682	8.296	8.421	7.719	7.766	7.453	7.085	7.051	7.157	6.941	6.692	6.585	6.252	5.829	5.607	5.011	4.681	4.212	3.943	3.920	3.367	3.117	3.159	2.841	2.733	2.600	2.272	2.381	2.136	1.992	1.630	1.572	1.512	1.923	2.339	2.081	1.626	1.290	1.282	1.263	1.193	1.069	1.286	1.665	1.638	1.275	1.109	1.411	1.822	3.759	9.080	19.43	91.08	483.1	959.1	254.0	7.501	0.910
590.0	53.02	59.21	53.38	37.18	29.98	26.06	26.89	31.24	46.95	95.84	63.49	43.44	47.20	225.9	2018	1534	44.31	10.24	8.990	8.351	7.124	6.852	6.699	6.406	6.029	5.909	5.919	5.414	5.819	5.689	5.689	5.076	4.872	4.760	4.308	4.100	3.728	3.390	3.043	2.858	2.818	2.554	2.428	2.311	2.272	2.097	1.991	1.881	1.684	1.398	1.401	1.378	1.479	1.848	2.131	1.746	1.261	1.187	1.250	1.020	1.042	1.162	1.264	1.583	1.421	1.035	1.088	1.253	1.570	2.875	5.205	21.24	112.5	393.8	666.3	344.7	19.31
595.0	50.35	56.52	53.87	36.03	27.56	25.10	26.04	29.25	36.52	71.99	87.46	45.40	41.32	74.31	555.3	2460	482.1	9.907	7.469	6.848	6.175	5.763	5.693	5.213	4.949	4.927	4.468	4.515	4.683	4.787	4.460	4.265	3.896	3.642	3.637	3.313	2.958	2.866	2.616	2.397	2.259	2.193	2.086	2.074	1.846	1.833	1.710	1.507	1.512	1.239	1.204	1.203	1.088	1.294	1.707	1.718	1.511	1.245	1.132	1.001	0.926	0.958	1.019	1.063	1.432	1.256	1.123	1.028	0.997	1.481	1.913	5.459	25.79	88.57	191.2	570.2	333.6
600.0	53.68	57.83	51.63	32.82	26.82	25.37	25.42	28.26	35.15	52.00	97.51	53.83	40.97	40.48	147.0	1639	1493	27.01	7.047	6.512	5.404	5.162	4.710	4.502	4.571	4.241	3.884	4.204	4.050	4.335	3.787	3.784	3.433	3.258	3.167	2.684	2.616	2.408	2.361	2.060	1.898	1.750	1.795	1.659	1.735	1.460	1.419	1.258	1.391	1.180	1.146	1.114	0.958	1.011	1.279	1.685	1.651	1.213	0.985	0.961	0.935	0.931	0.977	0.870	1.202	1.393	1.169	0.937	0.966	1.179	1.264	1.980	6.297	20.39	43.70	200.5	584.0
605.0	56.78	52.19	48.02	33.78	26.01	22.21	25.08	28.88	34.09	43.19	87.69	68.37	42.74	33.70	51.02	611.6	2223	86.17	6.714	5.748	5.021	4.517	3.816	4.108	3.664	3.272	3.566	3.634	3.539	3.592	3.364	3.064	3.156	2.765	2.694	2.670	2.220	2.071	1.967	1.905	1.755	1.756	1.669	1.482	1.511	1.375	1.402	1.248	1.136	1.110	0.935	0.943	0.959	0.901	1.035	1.303	1.466	1.284	0.952	1.003	0.893	0.857	0.866	0.910	0.878	1.233	1.313	1.090	0.894	1.023	1.043	1.106	2.054	5.172	10.39	46.40	241.7
610.0	53.63	54.40	51.21	35.51	25.68	21.91	24.23	30.07	34.61	42.04	68.12	87.16	49.05	34.82	30.02	159.4	1425	1114	27.98	5.094	4.797	4.001	3.650	3.511	3.388	3.231	3.151	2.960	3.056	2.856	2.710	2.681	2.654	2.423	2.350	2.088	2.067	1.858	1.653	1.584	1.562	1.403	1.331	1.334	1.362	1.346	1.297	1.128	1.056	0.948	0.901	0.860	0.851	0.830	0.858	0.924	1.255	1.273	1.122	1.050	0.884	0.826	0.824	0.902	0.817	0.952	1.174	1.091	0.952	0.879	0.961	0.880	1.103	1.733	2.880	10.92	55.73
615.0	49.34	55.03	51.91	32.58	26.71	23.10	24.82	28.61	34.86	41.86	54.96	84.55	62.71	36.72	27.32	47.85	394.2	1857	318.1	5.625	4.372	3.515	3.142	3.165	2.707	2.830	2.514	2.480	2.638	2.646	2.478	2.430	2.150	2.075	1.935	2.011	1.695	1.554	1.531	1.420	1.350	1.095	1.169	1.217	1.241	1.125	1.085	0.954	0.994	0.869	0.847	0.882	0.787	0.695	0.780	0.744	0.925	1.145	1.044	1.023	0.761	0.804	0.786	0.793	0.857	0.810	0.921	1.135	1.111	0.974	0.896	0.840	0.795	0.980	1.215	2.925	12.83
620.0	49.55	49.89	47.68	31.24	22.70	24.64	24.73	28.54	33.81	40.91	50.74	70.48	73.57	37.92	25.81	22.78	101.7	1298	1002	13.46	4.319	3.508	2.785	2.808	2.586	2.343	2.415	2.498	2.411	2.354	2.251	2.144	1.849	2.109	1.822	1.638	1.588	1.407	1.616	1.262	1.175	1.037	0.952	1.163	1.096	1.029	1.060	0.966	0.921	0.818	0.713	0.782	0.709	0.773	0.741	0.778	0.744	0.936	1.131	1.170	0.819	0.767	0.758	0.822	0.863	0.811	0.802	0.925	1.112	0.944	0.826	0.792	0.690	0.818	0.774	1.166	3.417
625.0	48.79	50.99	44.45	30.84	24.81	24.25	25.00	28.74	33.40	40.23	47.71	61.16	80.05	41.03	26.57	18.02	31.85	504.9	1568	61.35	4.326	3.328	2.746	2.530	2.305	1.977	2.277	2.184	2.070	2.069	1.905	1.995	1.875	1.699	1.537	1.421	1.373	1.337	1.312	1.156	1.098	1.035	0.944	0.976	1.064	0.939	0.935	0.924	0.780	0.768	0.705	0.690	0.670	0.692	0.693	0.700	0.712	0.742	0.866	1.102	0.794	0.733	0.754	0.673	0.745	0.817	0.830	0.916	0.998	1.125	0.951	0.796	0.669	0.811	0.731	0.743	1.177
630.0	48.46	50.70	48.02	33.18	24.12	25.07	24.71	27.73	34.65	40.23	48.99	54.38	73.64	53.03	28.27	16.53	15.34	128.7	1115	726.6	14.62	3.093	2.614	2.352	2.125	1.984	1.838	1.930	1.818	1.794	1.701	1.710	1.541	1.534	1.426	1.294	1.310	1.174	1.178	1.140	1.073	0.961	0.968	0.948	0.888	0.760	0.818	0.859	0.737	0.744	0.654	0.622	0.644	0.667	0.615	0.688	0.687	0.659	0.816	0.961	0.900	0.811	0.693	0.665	0.743	0.766	0.755	0.824	0.875	0.946	1.013	0.847	0.660	0.700	0.658	0.643	0.706
635.0	48.44	54.55	47.41	32.66	25.63	23.17	24.68	26.28	35.14	41.32	48.16	54.31	59.25	63.76	32.01	17.23	12.31	35.33	326.1	1298	68.80	3.581	2.499	2.184	1.950	1.755	1.847	1.881	1.620	1.615	1.590	1.485	1.430	1.498	1.373	1.205	1.125	1.170	0.926	1.015	0.934	0.878	0.846	0.825	0.820	0.755	0.739	0.752	0.621	0.601	0.603	0.621	0.591	0.621	0.512	0.596	0.637	0.617	0.686	0.736	0.787	0.848	0.721	0.778	0.775	0.697	0.747	0.706	0.705	0.799	0.955	0.911	0.821	0.732	0.632	0.579	0.549
640.0	47.62	50.26	49.93	33.91	25.59	23.52	24.66	26.64	36.56	41.19	47.12	51.57	52.45	62.44	36.78	18.20	12.11	14.57	82.19	999.4	508.8	6.657	2.378	2.315	1.715	1.676	1.746	1.645	1.437	1.593	1.615	1.408	1.450	1.420	1.323	1.208	1.133	1.152	0.932	0.988	0.817	0.867	0.898	0.873	0.781	0.726	0.696	0.695	0.599	0.578	0.567	0.596	0.567	0.575	0.566	0.587	0.547	0.666	0.605	0.662	0.781	0.802	0.786	0.728	0.774	0.657	0.785	0.756	0.716	0.817	0.754	0.962	0.886	0.713	0.663	0.568	0.535
645.0	50.25	51.71	46.34	35.04	27.60	22.47	23.44	27.39	32.75	39.61	47.60	49.07	50.97	55.63	42.58	19.73	12.48	9.975	23.75	435.8	1133	40.29	2.593	2.520	1.597	1.651	1.797	1.302	1.375	1.315	1.587	1.348	1.330	1.314	1.097	1.136	1.147	1.105	0.862	0.950	0.887	0.764	0.877	0.752	0.712	0.740	0.615	0.648	0.676	0.555	0.605	0.570	0.525	0.642	0.492	0.598	0.550	0.695	0.689	0.654	0.670	0.745	0.795	0.690	0.714	0.716	0.750	0.785	0.671	0.769	0.781	0.840	0.856	0.722	0.588	0.529	0.620
650.0	47.45	53.15	53.23	38.17	26.09	21.00	23.07	26.51	32.51	40.36	46.20	48.17	49.64	47.94	49.17	21.73	11.86	8.975	10.37	123.4	1170	284.8	2.778	2.166	1.646	1.551	1.707	1.312	1.353	1.292	1.448	1.221	1.283	1.275	1.127	1.112	1.120	1.084	0.863	0.863	0.736	0.759	0.856	0.788	0.694	0.792	0.625	0.668	0.770	0.560	0.516	0.611	0.525	0.623	0.446	0.470	0.564	0.612	0.626	0.624	0.616	0.709	0.666	0.756	0.716	0.789	0.672	0.694	0.576	0.731	0.733	0.725	0.814	0.778	0.678	0.538	0.593
