Sample:	'1
File name:	Default_20230414_103211.FD3
Run date:	'10:25:50, 04/14/2023
Operator:	dsjg
Comment:	'

Instrument
Model:	F-2700 FL Spectrophotometer
Serial number:	2198-001
ROM Version:	4J14000 07

Instrument parameters
Measurement type:	3-D scan
Data mode:	Fluorescence
EX  Start WL:	220.0 nm
EX  End WL:	600.0 nm
EX Sampling interval:	5.0 nm
EM  Start WL:	230.0 nm
EM  End WL:	650.0 nm
EM Sampling interval:	5.0 nm
Scan speed:	12000 nm/min
EX Slit:	5.0 nm
EM Slit:	5.0 nm
PMT Voltage:	700 V
Response:	Auto 
Corrected spectra:	Off
Contour interval:	50.000

Peak integration
Integration method:	Rectangular
Sensitivity:	1
Threshold:	1.000

Peaks
No.	ApexEX/EM(nm)	Height(Data)
1	265.0/585.0	83.66
2	270.0/595.0	92.31
3	275.0/305.0	 1307
4	275.0/350.0	 1545
5	275.0/605.0	82.69
6	555.0/350.0	7.533
7	560.0/355.0	7.515

Data points
	220.0	225.0	230.0	235.0	240.0	245.0	250.0	255.0	260.0	265.0	270.0	275.0	280.0	285.0	290.0	295.0	300.0	305.0	310.0	315.0	320.0	325.0	330.0	335.0	340.0	345.0	350.0	355.0	360.0	365.0	370.0	375.0	380.0	385.0	390.0	395.0	400.0	405.0	410.0	415.0	420.0	425.0	430.0	435.0	440.0	445.0	450.0	455.0	460.0	465.0	470.0	475.0	480.0	485.0	490.0	495.0	500.0	505.0	510.0	515.0	520.0	525.0	530.0	535.0	540.0	545.0	550.0	555.0	560.0	565.0	570.0	575.0	580.0	585.0	590.0	595.0	600.0
230.0	78.44	 1019	 1447	261.8	7.939	3.790	3.966	3.543	3.302	3.089	3.151	2.929	2.650	2.287	1.919	1.856	1.686	1.460	1.623	1.426	1.338	1.308	1.219	1.269	1.256	1.188	1.240	1.143	1.083	1.121	1.031	0.968	0.942	0.969	0.874	0.910	0.938	0.766	0.735	0.717	0.657	0.670	0.664	0.597	0.543	0.509	0.865	3.515	7.625	7.222	3.375	0.821	0.384	0.366	0.309	0.322	0.306	0.306	0.285	0.227	0.215	0.220	0.202	0.217	0.171	0.178	0.170	0.154	0.148	0.134	0.127	0.140	0.097	0.102	0.094	0.087	0.075
235.0	31.86	324.6	 1367	 1842	311.2	12.98	4.706	4.409	4.272	3.832	3.433	3.079	3.022	2.999	2.012	1.999	1.675	1.529	1.533	1.499	1.390	1.289	1.229	1.223	1.166	1.247	1.224	1.135	1.113	1.068	1.126	1.103	0.961	0.947	0.855	0.785	0.880	0.817	0.748	0.757	0.759	0.613	0.575	0.600	0.592	0.504	0.612	1.220	2.733	4.949	7.805	10.86	6.325	1.479	0.413	0.338	0.309	0.305	0.270	0.264	0.295	0.193	0.194	0.191	0.207	0.215	0.209	0.176	0.143	0.157	0.153	0.116	0.150	0.105	0.117	0.083	0.113
240.0	38.88	86.61	539.9	 2268	 2296	256.1	9.018	5.330	4.506	4.544	4.620	3.366	3.471	2.631	2.133	1.865	2.098	1.625	1.645	1.658	1.609	1.390	1.344	1.255	1.246	1.377	1.374	1.076	1.156	1.319	1.194	0.967	0.924	0.944	0.812	0.781	0.878	0.796	0.813	0.835	0.716	0.634	0.599	0.581	0.566	0.670	0.632	0.687	0.897	1.606	3.911	10.83	16.13	13.56	5.432	0.880	0.298	0.283	0.275	0.271	0.260	0.218	0.193	0.186	0.235	0.213	0.220	0.207	0.157	0.174	0.125	0.109	0.160	0.082	0.091	0.086	0.109
245.0	38.17	47.35	139.4	 1116	 3589	 2398	190.0	7.987	6.460	5.574	4.198	3.895	3.996	3.031	2.403	2.114	2.030	1.919	1.776	1.837	1.715	1.542	1.428	1.247	1.317	1.434	1.417	1.225	1.333	1.207	1.112	0.891	0.873	0.924	0.865	0.763	0.751	0.876	0.784	0.801	0.684	0.629	0.658	0.637	0.581	0.706	0.665	0.617	0.633	0.672	1.260	3.753	9.856	19.94	22.02	13.55	3.821	0.441	0.313	0.359	0.316	0.254	0.241	0.220	0.238	0.204	0.211	0.203	0.139	0.158	0.127	0.140	0.113	0.131	0.085	0.086	0.130
250.0	21.63	44.48	72.35	285.4	 1571	 4248	 4222	939.8	44.55	8.154	6.594	5.235	4.678	3.545	3.116	2.585	2.491	2.178	1.949	1.823	1.669	1.633	1.458	1.396	1.408	1.338	1.400	1.213	1.243	1.253	1.140	0.962	0.992	0.953	0.880	0.805	0.766	0.736	0.766	0.755	0.739	0.654	0.668	0.647	0.570	0.591	0.583	0.657	0.658	0.611	0.674	1.163	2.653	6.509	12.95	21.26	26.64	26.64	11.83	4.452	0.571	0.293	0.292	0.256	0.224	0.230	0.207	0.179	0.157	0.149	0.153	0.152	0.122	0.128	0.104	0.106	0.121
255.0	12.83	22.83	63.94	113.2	370.3	 1372	 5372	 7759	 1409	49.83	10.82	7.082	5.920	4.383	3.506	2.993	2.534	2.392	2.288	1.970	1.780	1.815	1.570	1.560	1.490	1.462	1.535	1.408	1.412	1.453	1.171	1.192	1.042	0.956	0.989	0.818	0.785	0.708	0.610	0.695	0.771	0.697	0.699	0.689	0.650	0.626	0.584	0.581	0.598	0.645	0.694	0.835	0.974	1.866	3.223	5.325	10.83	26.95	46.76	49.38	18.98	4.665	0.463	0.269	0.268	0.255	0.202	0.206	0.230	0.172	0.155	0.173	0.106	0.121	0.126	0.113	0.105
260.0	12.92	14.77	34.59	88.54	129.6	329.7	 2096	 8412	 8291	 1087	26.79	10.57	8.186	5.939	4.655	3.505	3.256	2.792	2.460	2.315	1.995	1.857	1.813	1.545	1.650	1.439	1.641	1.338	1.548	1.389	1.191	1.267	1.119	0.945	0.927	0.807	0.842	0.724	0.723	0.681	0.759	0.848	0.732	0.668	0.739	0.661	0.618	0.524	0.548	0.534	0.616	0.770	0.839	0.979	1.110	1.524	2.775	7.769	22.29	48.87	64.45	26.13	14.43	2.149	0.315	0.314	0.283	0.311	0.250	0.185	0.208	0.152	0.148	0.150	0.180	0.129	0.128
265.0	15.40	13.67	18.62	60.58	105.5	110.5	513.0	 3639	9999.9	 8046	176.0	17.47	9.918	7.253	5.854	4.216	3.961	3.200	2.444	2.226	2.172	1.965	1.814	1.607	1.860	1.543	1.615	1.358	1.466	1.569	1.286	1.292	1.158	0.959	0.981	0.903	0.818	0.711	0.714	0.752	0.753	0.775	0.714	0.636	0.808	0.622	0.611	0.581	0.574	0.486	0.479	0.631	0.763	0.984	0.866	0.767	0.993	2.083	5.565	15.64	38.79	65.05	73.50	23.90	8.980	0.675	0.283	0.334	0.270	0.219	0.169	0.168	0.173	0.146	0.171	0.169	0.134
270.0	28.71	22.59	19.63	27.92	69.51	107.8	169.2	885.7	 3928	 9814	9999.9	 3237	53.77	11.56	7.779	5.651	4.650	4.057	3.233	2.730	2.480	2.156	2.177	1.824	1.836	1.739	1.763	1.508	1.578	1.604	1.453	1.450	1.242	1.121	0.953	0.913	0.851	0.760	0.740	0.757	0.764	0.785	0.778	0.771	0.815	0.714	0.673	0.625	0.541	0.558	0.520	0.544	0.552	0.632	0.787	0.987	0.942	1.000	1.598	3.877	9.566	20.90	39.80	57.19	70.17	53.10	14.85	6.839	0.681	0.328	0.249	0.242	0.190	0.163	0.168	0.157	0.159
275.0	67.58	53.19	35.84	23.56	30.62	81.35	156.8	279.9	930.5	 2789	 8973	9999.9	 4983	63.60	12.32	8.331	6.015	5.249	4.145	3.404	2.993	2.517	2.414	2.051	2.011	1.939	1.892	1.760	1.663	1.595	1.555	1.507	1.294	1.227	1.102	1.040	1.027	0.894	0.816	0.807	0.854	0.763	0.936	0.887	0.927	0.887	0.776	0.755	0.689	0.612	0.574	0.547	0.507	0.527	0.618	0.728	0.987	1.189	1.316	1.493	2.716	5.077	9.467	14.09	25.28	51.97	86.59	91.55	23.04	6.466	0.425	0.310	0.274	0.243	0.215	0.212	0.184
280.0	118.7	93.95	55.29	29.70	26.14	55.18	143.0	227.7	337.3	764.8	 3110	9999.9	9999.9	888.4	41.95	11.50	7.755	6.222	5.092	3.905	3.236	2.733	2.563	2.401	2.119	2.037	1.999	1.908	1.665	1.692	1.577	1.485	1.252	1.251	1.279	1.317	1.122	1.005	0.930	1.096	0.966	0.863	1.104	1.014	1.041	1.139	0.922	0.940	0.870	0.678	0.606	0.594	0.476	0.567	0.564	0.597	0.747	1.100	1.414	1.481	1.523	1.992	2.933	4.137	6.794	14.79	38.18	80.97	106.1	81.50	17.12	1.929	0.400	0.264	0.268	0.262	0.231
285.0	204.8	156.7	84.12	42.83	36.22	56.55	117.8	259.4	296.6	428.7	996.4	 4172	9999.9	9999.9	672.0	21.49	10.05	7.881	6.542	4.689	4.106	3.238	2.939	2.420	2.401	2.259	2.228	1.856	1.935	1.826	1.682	1.560	1.337	1.363	1.324	1.330	1.311	1.329	1.290	1.364	1.268	1.106	1.269	1.363	1.298	1.338	1.274	1.091	0.906	0.853	0.637	0.735	0.623	0.656	0.597	0.624	0.743	0.874	1.126	1.639	1.963	2.052	2.007	2.399	3.147	4.825	10.36	25.69	58.42	104.1	112.8	26.26	9.619	0.553	0.363	0.366	0.336
290.0	337.0	249.6	153.8	83.77	64.60	87.20	144.7	280.7	472.5	633.5	782.6	 1471	 4004	9999.9	9999.9	 2620	39.75	12.30	8.920	6.334	5.203	4.091	3.776	3.079	2.895	2.724	2.505	2.209	2.223	2.049	1.806	1.635	1.552	1.527	1.432	1.601	1.644	1.619	1.607	1.575	1.525	1.480	1.715	1.686	1.622	1.686	1.598	1.488	1.259	1.168	0.845	0.808	0.805	0.685	0.771	0.794	0.886	0.973	1.271	1.598	2.219	2.736	3.323	3.222	3.542	3.965	5.041	8.356	15.91	32.29	56.80	75.66	97.20	73.72	15.52	6.614	0.525
295.0	471.2	369.5	240.6	135.4	98.51	124.1	199.8	336.2	562.1	862.3	 1044	 1080	 1421	 2816	 7361	9999.9	 4189	47.08	13.20	9.799	6.884	5.407	4.682	3.947	3.610	3.313	2.911	2.471	2.324	2.216	2.076	1.764	1.714	1.630	1.580	1.763	1.964	1.957	2.049	1.951	1.836	1.849	2.083	2.131	2.088	2.107	1.987	1.939	1.717	1.257	1.131	0.976	0.881	0.838	0.898	0.896	1.092	1.302	1.591	1.822	2.509	2.964	3.696	4.609	5.279	5.070	5.187	5.550	6.503	9.630	14.46	19.13	33.35	66.45	123.2	130.0	23.89
300.0	551.2	449.6	302.9	166.8	128.6	154.2	234.3	380.9	609.7	932.4	 1210	 1167	948.6	961.6	 2369	 9388	9999.9	 3115	34.04	12.87	9.029	6.754	5.449	4.624	4.125	3.537	3.075	2.615	2.595	2.417	2.289	1.948	1.885	1.641	1.712	1.951	2.116	2.294	2.265	2.241	2.050	1.955	2.315	2.232	2.327	2.416	2.096	2.216	1.824	1.532	1.249	1.200	1.026	1.051	0.978	1.081	1.193	1.540	1.660	2.011	2.554	3.287	3.946	4.860	5.781	6.297	5.968	5.573	4.941	5.084	5.422	5.802	8.633	18.84	51.31	113.6	155.9
305.0	601.1	500.0	333.1	197.7	156.2	179.6	262.0	421.7	647.8	962.7	 1240	 1307	946.7	611.8	719.4	 3214	9999.9	9999.9	464.0	22.71	12.38	8.974	6.620	5.451	4.791	4.001	3.351	3.136	2.906	2.616	2.532	2.082	1.855	1.876	1.989	1.984	2.226	2.318	2.294	2.289	2.216	2.168	2.294	2.414	2.397	2.538	2.129	2.317	2.009	1.634	1.360	1.369	1.169	1.173	1.145	1.189	1.345	1.561	1.893	2.136	2.792	3.317	4.089	4.855	5.730	6.102	7.055	6.231	5.403	4.353	3.725	3.064	3.230	5.250	12.93	34.06	81.39
310.0	606.0	519.5	357.6	225.6	183.8	203.0	288.8	447.3	675.9	957.5	 1204	 1305	 1080	652.1	404.5	848.3	 3206	9999.9	9999.9	 6373	33.37	13.22	9.493	7.403	5.973	4.842	4.240	3.852	3.299	3.185	2.710	2.326	2.236	1.961	1.924	2.177	2.340	2.459	2.386	2.327	2.262	2.247	2.446	2.350	2.367	2.618	2.312	2.270	2.186	1.633	1.392	1.414	1.336	1.333	1.303	1.330	1.529	1.659	2.113	2.393	3.001	3.382	4.077	5.034	5.524	6.174	6.415	6.513	5.979	4.957	3.958	2.882	2.341	2.468	3.803	8.416	20.05
315.0	604.1	536.0	389.9	258.9	204.4	233.9	321.0	479.4	690.3	967.4	 1192	 1249	 1109	822.9	444.2	357.9	813.0	 2464	 6291	9999.9	 3256	40.15	13.67	10.43	7.723	6.098	5.151	4.430	4.174	3.526	3.263	2.603	2.356	2.196	1.976	2.341	2.301	2.502	2.460	2.396	2.209	2.334	2.419	2.385	2.388	2.740	2.493	2.346	2.206	1.685	1.556	1.557	1.561	1.377	1.373	1.509	1.711	1.920	2.182	2.481	3.135	3.534	4.233	4.993	5.419	5.979	6.159	6.228	5.877	5.296	5.050	3.832	2.740	2.239	2.033	2.768	5.433
320.0	626.9	568.7	405.0	281.1	225.8	261.7	352.6	504.3	727.5	980.8	 1204	 1263	 1118	885.0	576.5	303.2	309.0	631.8	 1807	 8775	9999.9	 2557	32.12	13.23	9.783	7.146	5.988	5.093	4.512	3.856	3.433	3.013	2.726	2.364	2.169	2.365	2.362	2.563	2.453	2.318	2.302	2.374	2.353	2.513	2.460	2.709	2.663	2.590	2.313	1.835	1.590	1.571	1.513	1.466	1.474	1.593	1.801	2.227	2.411	2.641	3.125	3.666	4.388	5.056	5.661	6.047	6.117	6.034	5.920	5.303	5.039	4.375	3.646	2.756	2.086	1.777	2.251
325.0	659.6	614.3	447.9	309.6	250.1	294.9	387.5	549.0	766.5	 1013	 1227	 1297	 1159	914.9	678.9	380.3	232.1	245.5	477.6	 2629	9999.9	9999.9	378.4	23.13	12.70	9.376	7.186	5.871	5.278	4.497	3.742	3.285	2.771	2.451	2.297	2.274	2.396	2.649	2.432	2.303	2.424	2.425	2.381	2.649	2.438	2.708	2.557	2.785	2.478	2.047	1.758	1.675	1.678	1.528	1.674	1.752	1.952	2.259	2.546	3.019	3.400	3.917	4.801	5.268	5.955	5.904	6.248	6.340	5.959	5.562	5.052	4.453	4.216	3.590	2.746	1.907	1.849
330.0	702.7	669.1	506.5	358.3	297.0	330.6	438.0	607.4	826.3	 1089	 1291	 1369	 1255	 1003	729.0	507.0	318.5	203.0	203.8	658.0	 2902	9999.9	9999.9	 6942	30.49	13.47	9.691	7.574	6.300	5.227	4.535	3.755	3.195	2.782	2.484	2.456	2.536	2.606	2.570	2.469	2.443	2.576	2.554	2.702	2.647	3.005	2.965	3.017	2.715	2.198	1.962	1.887	1.821	1.775	1.833	1.887	2.200	2.489	2.805	3.280	3.792	4.196	5.014	5.603	6.022	6.456	6.608	6.677	6.397	5.913	5.527	4.818	4.515	3.767	3.349	2.885	2.339
335.0	772.7	733.1	572.6	413.3	353.2	388.1	495.0	675.3	909.4	 1162	 1375	 1458	 1364	 1116	816.7	549.2	438.9	280.1	181.1	237.7	706.8	 2367	 6274	9999.9	 2740	36.62	14.20	10.38	8.166	6.359	5.409	4.171	3.668	3.025	2.933	2.592	2.725	3.008	2.658	2.661	2.706	2.747	2.645	2.731	2.992	3.157	3.044	3.162	2.987	2.376	2.035	2.212	2.037	1.953	1.985	2.174	2.481	2.791	3.222	3.623	4.067	4.849	5.484	5.895	6.474	6.856	7.080	6.784	6.913	6.492	5.996	5.502	4.938	4.123	3.503	3.037	2.929
340.0	805.9	755.5	605.6	454.7	383.5	426.6	534.7	709.1	956.3	 1216	 1423	 1518	 1435	 1194	885.4	580.5	454.1	370.1	218.6	164.1	232.9	582.9	 1661	 9483	9999.9	 2340	30.94	13.68	10.15	7.293	6.293	5.019	4.130	3.469	3.220	2.640	2.789	2.881	2.783	2.792	2.553	2.766	2.645	2.946	3.126	3.307	3.203	3.414	3.085	2.612	2.256	2.234	2.132	2.149	2.040	2.355	2.563	3.036	3.396	3.997	4.202	4.803	5.632	6.275	6.677	6.809	7.208	7.051	7.345	7.091	6.353	5.921	5.341	4.398	3.705	3.150	2.806
345.0	814.2	792.3	639.2	467.2	418.8	459.8	565.9	748.3	983.1	 1262	 1450	 1539	 1471	 1243	938.3	624.0	457.8	402.4	294.4	176.5	145.2	199.3	427.7	 2697	9999.9	9999.9	332.1	22.93	12.33	9.204	7.152	5.772	4.650	3.805	3.347	2.931	2.989	3.059	2.603	2.865	2.676	2.903	2.784	3.064	3.283	3.388	3.058	3.582	3.151	2.588	2.255	2.388	2.285	2.209	2.260	2.455	2.806	2.892	3.536	4.015	4.432	5.023	5.803	6.226	6.613	7.078	7.309	7.449	7.405	7.143	6.423	6.237	5.629	4.471	3.786	3.343	2.924
350.0	820.1	798.5	644.1	502.4	459.1	485.1	598.6	770.3	 1014	 1268	 1457	 1545	 1480	 1273	978.8	668.5	487.4	397.7	354.9	263.6	168.5	144.0	174.6	666.1	 2902	9999.9	9999.9	 6745	29.11	13.13	9.863	7.182	5.257	4.345	3.902	3.359	3.175	3.099	2.854	2.891	2.790	2.889	2.889	3.102	3.192	3.516	3.153	3.438	3.189	2.668	2.371	2.579	2.364	2.391	2.511	2.627	2.899	3.045	3.752	4.121	4.600	5.207	5.797	6.394	6.828	7.319	7.258	7.533	7.281	7.328	6.637	6.585	5.867	4.710	4.097	3.454	3.262
355.0	822.6	780.5	632.9	518.0	493.1	526.4	628.5	801.1	 1021	 1250	 1438	 1540	 1463	 1284	 1001	710.2	533.7	427.6	361.2	338.0	260.8	176.0	152.2	236.6	712.6	 2350	 6651	9999.9	 2564	36.00	13.63	9.559	7.059	5.343	4.324	3.985	3.319	3.182	3.093	3.100	2.792	2.918	2.920	3.180	3.269	3.452	3.338	3.514	3.252	2.594	2.376	2.624	2.659	2.614	2.651	2.804	3.085	3.379	3.805	4.179	4.763	5.139	5.906	6.464	6.773	7.166	7.182	7.001	7.515	7.069	6.717	6.575	5.954	5.040	4.420	3.863	3.521
360.0	802.1	770.5	633.6	537.8	504.2	548.4	647.0	816.4	 1017	 1240	 1419	 1492	 1445	 1279	 1010	731.3	568.4	463.4	385.9	349.9	332.8	234.1	175.2	164.1	242.6	585.3	 1713	9999.9	9999.9	 2237	28.98	12.06	9.209	6.554	4.786	4.271	3.715	3.478	3.257	3.217	3.097	2.973	2.857	2.985	3.392	3.398	3.489	3.505	3.430	2.704	2.513	2.629	2.591	2.622	2.713	2.779	3.117	3.260	3.919	4.170	4.715	5.256	5.836	6.090	6.885	6.742	7.004	6.987	7.237	6.822	6.601	6.794	6.032	5.025	4.511	4.038	3.746
365.0	773.8	748.3	626.7	547.7	523.3	563.6	656.3	814.4	 1008	 1215	 1396	 1464	 1414	 1264	 1020	755.0	598.5	496.8	424.5	368.7	356.9	314.0	220.0	173.5	157.7	205.9	438.8	 2802	9999.9	9999.9	311.2	21.37	11.13	8.103	6.014	4.820	3.945	3.592	3.420	3.423	3.168	2.964	2.972	3.069	3.292	3.423	3.506	3.548	3.269	2.784	2.620	2.810	2.642	2.771	2.674	2.772	3.217	3.402	3.917	4.204	4.696	5.136	5.883	6.267	6.673	6.619	7.118	7.007	7.326	6.876	6.915	6.793	6.072	5.008	4.527	4.325	4.026
370.0	747.6	731.0	614.1	550.9	544.7	579.7	662.5	805.6	988.4	 1183	 1336	 1406	 1361	 1238	 1022	783.5	643.9	554.6	484.4	420.2	379.6	366.0	314.2	227.7	174.6	148.6	171.0	677.9	 2977	9999.9	9999.9	 6228	25.72	11.04	8.134	5.819	4.844	4.271	3.890	3.601	3.264	3.269	3.125	3.112	3.291	3.446	3.336	3.487	3.322	2.764	2.620	2.952	2.733	2.827	2.769	2.988	3.364	3.474	3.679	4.134	4.719	5.097	5.527	6.019	6.503	6.434	6.734	6.732	6.846	6.590	6.621	6.401	5.934	5.227	4.684	4.467	4.226
375.0	731.2	714.6	610.5	573.1	566.5	593.7	667.1	794.5	954.8	 1139	 1267	 1334	 1309	 1202	 1032	825.4	704.2	618.0	548.2	483.9	428.0	390.5	375.6	320.2	222.0	166.2	133.9	217.7	710.5	 2342	 7526	9999.9	 2227	29.76	11.15	8.012	6.267	4.756	4.358	3.760	3.600	3.422	3.208	3.188	3.576	3.616	3.412	3.339	3.151	2.818	2.441	2.781	2.983	3.046	2.933	3.131	3.420	3.454	3.692	3.934	4.576	4.809	5.389	5.648	6.313	6.284	6.388	6.389	6.655	6.416	6.527	6.449	6.116	5.620	4.824	4.711	4.648
380.0	701.6	682.6	608.7	592.8	575.9	593.0	667.5	781.9	920.4	 1086	 1216	 1284	 1274	 1183	 1038	862.0	748.7	668.0	592.6	528.9	469.2	421.1	389.8	373.2	275.8	192.6	144.0	128.5	215.7	565.5	 1921	9999.9	9999.9	 1895	23.71	9.734	7.632	5.849	4.923	4.378	3.805	3.507	3.552	3.438	3.383	3.633	3.523	3.465	3.287	2.769	2.624	2.862	3.014	3.099	3.104	3.203	3.530	3.420	3.901	4.105	4.463	5.111	5.091	5.485	5.846	6.112	6.123	6.353	6.312	6.222	6.476	5.963	5.919	5.722	5.337	4.948	4.876
385.0	673.5	682.1	612.6	590.7	592.4	607.4	667.8	767.8	902.7	 1053	 1165	 1232	 1239	 1172	 1041	883.4	776.0	703.8	628.6	560.1	505.6	454.3	408.7	380.3	331.8	227.2	163.5	124.0	115.9	175.9	469.0	 2873	9999.9	9999.9	256.9	16.47	9.087	7.086	5.738	4.826	4.121	3.738	3.714	3.432	3.425	3.534	3.322	3.577	3.265	2.873	2.669	2.959	3.097	3.074	3.053	3.274	3.430	3.714	3.778	4.025	4.267	4.592	4.917	5.491	5.616	5.810	5.846	6.230	6.305	6.069	6.285	6.139	5.876	5.557	5.406	4.933	5.092
390.0	658.7	667.8	610.2	602.9	599.9	621.1	667.7	754.7	862.8	994.3	 1106	 1180	 1194	 1152	 1049	916.1	825.4	748.0	669.4	601.6	540.2	487.4	438.7	389.4	353.3	291.5	205.6	148.8	114.9	107.2	155.4	682.3	 3012	9999.9	9999.9	 4889	21.03	9.401	7.354	5.880	4.688	4.130	3.760	3.519	3.430	3.780	3.438	3.506	3.327	2.951	2.755	3.186	3.143	3.174	3.111	3.208	3.487	3.457	3.753	3.937	4.175	4.544	4.803	5.136	5.441	5.472	5.677	5.920	6.091	6.153	6.145	5.949	6.065	5.540	5.605	5.303	5.484
395.0	638.5	645.2	617.9	606.3	602.1	630.3	658.9	735.9	829.8	936.7	 1035	 1107	 1139	 1125	 1044	935.6	859.8	780.8	699.5	630.4	570.5	518.5	469.4	414.3	360.5	320.8	267.8	187.5	139.8	112.0	102.6	201.6	707.5	 2327	 7021	9999.9	 1866	25.31	9.711	7.291	6.016	4.766	4.145	3.842	3.639	3.819	3.500	3.673	3.155	3.018	2.817	3.302	3.374	3.298	3.217	3.380	3.481	3.604	3.579	3.999	4.032	4.206	4.635	4.856	5.029	5.209	5.330	5.616	5.684	5.913	5.692	6.022	6.106	5.753	5.890	5.611	5.460
400.0	616.7	632.9	617.9	612.4	618.9	632.2	657.3	719.7	799.3	891.3	985.8	 1059	 1099	 1097	 1037	945.7	871.7	799.6	713.0	640.6	583.5	532.7	485.8	430.4	369.4	322.1	295.3	228.1	162.5	127.9	101.1	104.8	201.9	552.0	 1788	 9678	9999.9	 1609	20.61	8.832	6.722	5.791	4.647	3.903	3.859	3.873	3.512	3.773	3.316	3.089	2.837	3.366	3.340	3.427	3.257	3.250	3.660	3.601	3.634	3.958	3.835	4.483	4.638	4.517	4.777	5.268	5.198	5.248	5.742	5.767	5.612	6.043	6.107	5.944	5.770	5.844	5.801
405.0	592.8	626.4	615.1	611.5	616.0	631.7	660.8	708.0	775.8	857.6	945.3	 1018	 1058	 1068	 1019	939.7	873.4	803.9	720.7	647.7	588.2	538.7	495.6	438.5	380.6	330.2	295.5	264.7	193.0	146.8	114.9	94.63	97.81	161.8	431.0	 2733	9999.9	9999.9	227.5	14.96	7.859	6.236	5.293	4.460	4.044	3.840	3.590	3.734	3.492	3.027	2.973	3.414	3.303	3.373	3.200	3.234	3.403	3.513	3.726	3.773	4.055	4.255	4.531	4.603	4.597	4.748	5.109	5.205	5.232	5.551	5.827	6.002	5.940	5.770	5.671	5.979	5.773
410.0	569.3	597.6	597.5	594.4	613.0	630.4	650.6	693.7	753.7	825.9	893.7	960.0	 1002	 1018	982.8	917.2	859.5	793.2	712.8	641.7	587.2	534.2	495.7	445.1	392.2	341.8	297.7	273.6	241.5	181.1	138.8	109.8	88.52	86.62	133.5	640.1	 2847	 9660	9999.9	 3949	18.75	8.169	6.373	5.307	4.467	4.095	3.722	3.635	3.491	2.996	2.955	3.472	3.325	3.390	3.311	3.318	3.391	3.537	3.799	3.714	3.900	4.159	4.316	4.350	4.453	4.550	4.705	4.886	5.092	5.225	5.428	5.927	5.656	5.546	5.534	5.688	5.590
415.0	516.0	551.5	577.4	587.6	607.5	618.5	646.9	685.2	722.4	790.1	846.8	900.7	932.4	955.4	928.5	872.4	827.0	765.8	689.8	620.7	572.8	527.2	488.1	444.7	396.6	351.7	308.2	274.2	257.5	228.5	170.8	130.7	101.8	82.64	76.89	178.1	661.6	 2239	 6467	9999.9	 1692	22.79	8.286	6.362	5.212	4.442	4.020	3.608	3.569	3.164	3.058	3.534	3.425	3.321	3.269	3.250	3.508	3.501	3.638	3.622	3.999	3.962	4.198	4.427	4.270	4.336	4.579	4.525	4.822	4.923	5.118	5.405	5.533	5.338	5.503	5.309	5.661
420.0	505.7	548.8	551.6	580.2	592.6	600.3	644.1	676.6	699.5	755.3	815.6	851.6	882.5	907.5	880.8	834.0	789.6	737.2	664.7	603.5	554.2	512.4	478.2	436.6	395.6	356.1	314.5	280.5	256.7	247.4	203.7	148.4	115.6	89.20	72.38	81.82	179.2	524.7	 1639	 8139	9999.9	 1458	18.21	7.512	5.955	5.009	4.043	3.928	3.608	3.015	2.985	3.373	3.396	3.284	3.345	3.354	3.587	3.692	3.751	3.754	3.835	3.744	4.106	4.173	4.111	3.918	4.273	4.190	4.383	4.525	4.858	5.039	5.433	5.161	5.057	5.233	5.373
425.0	489.5	522.5	535.0	570.9	584.9	594.0	629.2	658.0	688.8	734.1	779.7	809.7	841.1	858.7	840.2	799.5	756.1	704.9	640.5	581.3	535.4	498.4	470.3	430.9	394.4	356.2	318.5	287.0	257.7	244.6	230.3	170.8	128.4	100.7	78.44	66.70	77.95	146.5	390.9	 2285	9999.9	9999.9	217.3	12.19	7.099	5.683	4.586	4.126	3.543	3.123	3.057	3.276	3.480	3.348	3.262	3.221	3.594	3.748	3.750	3.750	3.640	3.773	3.878	3.934	4.104	3.900	4.249	4.252	4.450	4.289	4.443	4.682	5.301	4.830	4.806	5.105	4.941
430.0	470.7	488.8	515.9	548.7	570.6	588.8	622.7	648.7	673.1	707.3	748.3	768.6	788.0	798.6	783.9	747.0	708.2	663.9	603.7	554.3	509.5	476.7	451.5	420.4	387.6	353.8	324.9	293.9	267.6	246.9	232.5	203.8	153.9	116.1	91.61	73.00	63.90	68.82	115.6	534.2	 2802	 8610	9999.9	 3197	17.12	7.184	5.502	4.843	3.968	3.198	3.213	3.444	3.484	3.396	3.337	3.312	3.565	3.612	3.614	3.699	3.773	3.669	3.807	3.785	3.890	3.849	3.909	3.907	4.250	4.207	4.374	4.448	4.800	4.516	4.658	4.634	4.808
435.0	516.4	456.2	489.8	518.8	561.4	575.8	611.0	630.6	661.6	686.6	704.2	724.4	736.7	734.7	723.8	688.9	659.0	619.1	565.9	521.0	481.7	453.5	429.4	404.9	377.2	349.2	326.5	297.5	277.0	257.0	232.8	212.8	184.7	136.8	106.1	84.64	70.57	59.80	60.42	146.0	645.3	 1989	 5654	9999.9	 1588	20.64	7.118	5.692	4.769	3.614	3.379	3.648	3.441	3.391	3.396	3.355	3.584	3.627	3.669	3.872	3.680	3.740	3.822	3.725	3.858	3.768	3.852	3.554	4.178	3.929	4.150	4.231	4.396	4.216	4.368	4.337	4.450
440.0	678.6	435.5	471.2	506.4	537.4	566.5	605.2	627.2	652.8	663.7	683.6	695.6	694.2	692.5	678.1	649.4	616.5	583.7	537.8	492.7	461.3	434.4	411.0	389.1	367.4	342.7	320.2	301.0	282.8	262.6	235.3	211.7	196.0	156.5	117.6	94.28	77.31	62.10	53.09	63.43	168.2	463.4	 1436	 8064	9999.9	 1269	14.53	6.764	5.109	4.192	3.542	3.752	3.671	3.662	3.381	3.386	3.707	3.745	3.807	3.710	3.870	3.735	3.612	3.677	3.671	3.528	3.560	3.518	3.694	3.862	3.927	3.881	4.177	4.034	4.213	4.247	4.150
445.0	878.4	447.7	440.4	489.0	519.8	554.8	598.6	617.1	627.4	644.0	662.6	662.9	655.8	654.2	637.4	611.7	579.3	547.3	505.3	466.4	437.2	413.8	395.9	375.9	358.1	337.4	315.2	296.8	283.4	265.2	239.7	211.6	191.5	171.3	129.6	102.1	83.24	67.14	54.82	49.05	65.05	125.4	340.8	 2366	9999.9	9999.9	175.0	10.93	6.024	4.698	3.867	3.873	3.585	3.556	3.369	3.365	3.398	3.664	3.794	3.592	3.765	3.735	3.670	3.434	3.541	3.557	3.378	3.491	3.403	3.782	3.744	3.842	3.951	3.646	3.698	3.981	3.978
450.0	922.4	663.2	422.2	457.1	497.9	535.6	567.8	596.7	602.6	608.4	617.3	609.2	605.4	595.6	577.9	551.7	527.5	496.7	460.8	425.9	400.8	383.6	366.7	351.2	336.0	320.3	303.5	290.1	277.6	261.9	239.4	213.0	186.5	169.3	147.4	114.5	91.25	74.65	61.18	51.21	47.43	54.48	98.02	547.9	 2839	 8665	 9523	 2885	14.32	5.737	4.550	4.311	3.830	3.637	3.510	3.417	3.561	3.592	3.558	3.603	3.645	3.699	3.435	3.510	3.426	3.324	3.359	3.460	3.345	3.421	3.435	3.467	3.670	3.561	3.507	3.712	3.637
455.0	636.6	 1002	495.0	422.2	461.4	501.4	535.7	557.4	564.4	567.1	566.1	559.6	541.2	530.3	515.9	492.7	467.1	444.6	411.4	382.3	362.1	346.7	334.8	323.7	311.5	298.9	285.9	276.0	268.9	253.8	235.3	211.8	184.4	162.3	147.3	130.8	102.2	81.46	67.81	56.26	47.76	43.61	47.15	142.4	648.9	 2013	 5498	9999.9	 1329	15.79	5.749	5.114	4.353	3.841	3.609	3.539	3.555	3.677	3.476	3.506	3.540	3.451	3.415	3.233	3.217	3.092	2.952	3.076	3.070	3.027	3.174	3.236	3.179	3.098	3.204	3.278	3.258
460.0	408.2	 1059	702.6	404.2	428.8	474.1	509.8	534.2	539.5	534.9	534.1	521.7	505.0	490.1	470.6	448.7	424.6	403.7	372.8	352.7	334.1	320.7	310.0	303.0	291.5	282.1	271.5	263.2	254.8	245.5	228.2	206.4	182.2	159.4	141.2	133.4	112.2	86.75	72.13	60.51	51.26	42.99	38.20	54.09	162.6	464.2	 1384	 7349	9999.9	980.9	12.43	5.922	4.524	4.405	3.918	3.614	3.623	3.602	3.460	3.386	3.423	3.331	3.235	3.094	3.137	2.862	2.951	2.899	2.829	2.962	3.035	3.035	2.964	2.998	2.987	2.981	3.130
465.0	299.0	854.2	 1038	429.0	405.8	442.8	481.0	511.8	516.7	505.8	498.1	483.7	466.8	457.8	431.5	410.9	389.0	370.1	346.0	326.1	306.9	299.0	289.1	281.0	272.2	266.0	257.9	249.8	243.6	237.3	223.2	203.0	177.1	157.1	138.9	127.9	117.5	92.90	75.25	63.72	53.67	44.74	38.11	35.62	55.95	119.2	323.3	 2098	 9538	 8166	142.8	9.229	5.219	4.641	4.121	3.670	3.661	3.525	3.388	3.257	3.286	3.220	3.140	3.151	3.174	2.713	2.644	2.806	2.712	2.613	2.778	2.781	2.785	2.756	2.688	2.665	2.726
470.0	251.2	468.1	 1170	790.4	384.5	401.5	443.4	470.1	469.8	465.2	455.4	437.2	416.9	405.3	382.2	360.0	342.0	326.5	304.9	288.1	273.4	266.1	258.1	254.1	246.9	240.8	235.0	229.9	225.9	220.4	209.6	191.3	171.1	151.1	133.5	118.8	111.3	99.68	80.42	65.90	56.02	47.02	39.08	33.27	33.59	43.42	85.52	481.4	 2676	 6866	 7527	 2390	13.74	5.699	4.607	4.061	3.753	3.377	3.415	3.208	3.229	3.146	2.964	2.991	2.916	2.724	2.488	2.579	2.485	2.467	2.612	2.532	2.505	2.482	2.466	2.564	2.533
475.0	220.5	288.3	756.4	 1399	493.5	364.2	397.0	423.9	425.0	417.3	413.2	391.8	368.0	354.4	337.1	315.1	299.2	282.3	267.6	253.6	240.6	233.6	227.1	225.5	220.5	214.8	212.4	207.9	206.5	203.8	194.2	176.8	159.2	142.1	126.6	112.6	102.1	96.21	86.69	70.12	56.64	47.94	40.95	33.64	29.05	26.60	32.89	118.7	605.1	 1581	 3979	 8979	 1277	17.00	5.276	4.422	3.892	3.321	3.328	3.129	3.075	2.964	2.775	2.777	2.503	2.586	2.401	2.384	2.266	2.243	2.282	2.143	2.375	2.162	2.080	2.155	2.108
480.0	210.2	228.3	408.0	 1502	952.7	344.1	374.7	396.6	402.3	392.0	381.6	362.8	337.6	322.9	306.1	282.3	267.6	256.1	243.7	230.1	220.1	212.2	208.9	205.2	202.5	197.9	195.0	192.6	192.1	190.3	182.7	167.9	152.7	136.4	121.3	109.8	96.94	89.50	85.88	73.59	57.95	47.85	41.21	33.76	28.64	23.53	21.68	38.09	144.1	360.7	990.9	 5339	 7941	 1046	12.70	5.109	4.274	3.556	3.407	3.135	2.983	2.885	2.746	2.722	2.457	2.365	2.335	2.273	2.156	2.250	2.128	2.112	2.064	1.954	1.986	2.086	1.996
485.0	196.2	210.6	272.1	 1115	 1599	421.6	351.9	366.9	372.7	368.7	353.7	335.6	312.1	296.3	277.4	258.5	244.9	233.6	221.4	211.7	201.7	193.6	193.5	189.7	186.4	183.4	182.4	180.6	179.9	180.1	172.1	159.4	147.1	132.0	117.8	106.5	95.25	85.35	80.65	75.60	61.01	48.83	41.44	34.17	28.78	23.28	19.23	20.92	42.24	88.61	229.8	 1437	 6863	 7132	171.5	8.323	4.849	4.091	3.493	3.379	2.992	2.706	2.755	2.571	2.444	2.316	2.251	2.129	2.111	1.977	1.996	1.972	1.935	1.907	1.806	1.921	1.828
490.0	177.5	197.7	216.8	521.8	 1799	 1195	343.6	337.9	341.8	336.5	321.4	307.3	281.7	265.4	245.9	228.6	217.2	207.7	195.1	186.3	178.8	174.3	172.3	170.2	167.3	166.5	164.0	163.8	163.6	163.9	158.8	147.1	136.4	123.3	110.6	101.5	90.51	80.37	73.76	70.18	63.74	51.38	41.14	34.82	29.57	23.94	19.73	17.39	19.86	28.53	59.06	328.6	 1850	 5342	 6412	748.4	14.37	5.080	3.859	3.473	3.088	2.772	2.684	2.444	2.306	2.158	2.005	2.066	1.884	1.805	1.804	1.869	1.714	1.678	1.603	1.717	1.677
495.0	145.7	176.3	192.1	269.2	 1031	 2285	682.7	302.2	308.8	297.4	287.4	274.2	251.9	235.0	216.2	200.7	189.1	181.0	171.4	164.7	156.9	153.2	152.3	149.6	148.7	147.8	146.4	146.0	147.1	147.6	143.3	134.1	123.7	113.4	104.1	93.95	85.09	76.19	68.96	63.38	59.99	53.63	42.75	34.91	29.91	24.25	20.38	17.70	15.54	15.83	21.08	80.53	418.8	 1230	 3755	 8005	 1386	17.57	5.016	3.838	3.306	2.909	2.472	2.311	2.407	1.995	1.944	1.883	1.777	1.622	1.830	1.690	1.515	1.540	1.496	1.391	1.518
500.0	129.0	156.6	173.4	200.0	466.9	 2326	 1545	297.0	280.6	275.3	262.6	249.6	226.5	213.1	193.1	180.2	168.2	162.8	155.2	148.7	141.6	137.5	137.1	134.8	134.9	135.4	133.0	131.8	133.6	133.9	132.0	123.5	114.1	104.9	97.00	88.07	79.52	72.39	65.75	59.25	54.94	52.92	44.32	34.85	29.72	24.44	20.54	17.36	14.77	13.22	13.26	25.54	100.2	281.2	936.8	 4932	 7703	 1104	13.04	4.202	3.458	2.962	2.472	2.265	2.178	1.926	1.769	1.691	1.711	1.505	1.570	1.477	1.460	1.356	1.396	1.389	1.538
505.0	123.6	145.7	168.5	174.8	253.8	 1556	 2572	504.3	256.3	252.7	244.6	226.0	209.0	191.8	176.7	165.6	152.7	145.7	140.9	132.8	128.4	123.3	123.5	122.1	122.0	122.4	119.8	120.9	121.4	123.9	119.8	114.4	106.8	98.45	89.26	82.00	75.04	68.39	62.34	55.69	50.94	48.67	44.73	35.95	29.10	24.37	20.75	17.66	14.90	12.86	11.81	13.48	29.18	69.64	216.3	 1327	 6293	 6503	184.5	7.218	3.751	2.957	2.682	2.350	2.040	1.910	1.773	1.767	1.551	1.512	1.456	1.509	1.342	1.300	1.380	1.333	1.350
510.0	105.4	121.7	151.3	158.0	183.6	616.6	 2471	 1693	260.4	224.6	219.1	200.3	183.9	165.8	152.3	141.6	131.2	126.6	120.4	115.0	110.9	107.9	106.5	106.5	105.7	106.3	105.3	105.9	107.0	107.6	105.1	100.4	94.14	86.91	80.15	74.00	68.28	62.22	57.07	51.31	46.46	41.94	40.52	36.30	29.66	24.27	20.40	17.53	14.96	12.59	11.32	10.92	13.59	21.98	54.41	302.7	 1673	 4657	 5443	804.7	13.65	3.531	2.810	2.414	2.094	1.797	1.722	1.627	1.520	1.341	1.270	1.319	1.233	1.219	1.127	1.139	1.169
515.0	90.73	102.2	122.2	142.8	144.1	262.7	 1150	 2981	883.1	197.1	189.4	175.4	157.7	146.1	132.5	121.1	114.0	106.2	101.1	97.65	95.40	92.16	91.45	90.97	91.01	90.00	90.22	92.33	92.54	92.34	91.90	88.61	82.28	76.87	70.62	64.82	59.79	55.41	51.28	46.71	41.62	37.31	34.72	33.55	30.42	24.27	19.47	16.77	14.47	12.39	11.23	10.04	9.810	11.51	18.15	73.06	377.8	 1060	 2704	 6184	 1375	16.55	3.491	2.709	2.126	1.764	1.644	1.427	1.380	1.270	1.184	1.169	1.145	1.101	1.060	1.081	1.053
520.0	84.21	91.92	103.0	130.1	134.0	168.4	445.3	 2644	 1876	215.0	171.8	158.5	143.2	130.8	115.7	106.4	101.1	94.55	90.43	87.10	83.06	82.39	81.10	80.90	82.09	79.65	81.18	82.41	81.69	83.25	82.88	78.99	74.16	68.56	64.29	58.99	54.83	51.05	46.52	42.48	38.95	34.84	31.41	29.71	29.66	25.24	19.76	16.60	14.13	12.45	11.17	10.05	8.879	8.722	9.761	21.45	89.23	241.2	658.9	 3661	 5841	206.3	10.73	2.912	2.351	1.971	1.690	1.444	1.271	1.189	1.094	1.184	0.976	0.981	0.924	0.984	0.912
525.0	72.32	83.77	92.58	117.3	128.3	134.0	209.6	 1534	 3052	592.9	153.6	141.3	130.8	116.9	103.7	96.04	89.25	85.52	81.66	77.64	74.16	73.05	72.12	72.43	73.39	71.52	72.51	73.71	73.79	75.36	74.78	70.91	67.45	62.63	57.73	54.45	50.21	46.78	42.36	39.62	35.45	32.15	29.15	26.92	26.77	25.30	19.99	15.96	13.68	11.92	10.83	9.567	8.532	7.878	7.674	10.15	24.65	58.31	152.0	961.0	 4426	 4651	180.9	5.131	2.640	1.991	1.801	1.509	1.333	1.077	0.999	1.073	1.054	0.922	0.836	0.782	0.878
530.0	61.12	72.46	78.22	94.72	117.2	119.5	142.2	538.5	 2487	 2067	180.9	126.1	114.2	102.9	92.13	82.87	77.86	73.07	70.83	67.54	64.43	63.72	62.56	63.28	63.41	62.17	63.68	63.59	63.94	65.79	64.82	61.89	58.70	54.84	51.17	47.32	43.60	41.14	37.97	35.34	31.62	29.30	26.49	23.89	22.80	22.41	20.42	16.11	13.19	11.36	10.45	9.113	8.303	7.547	6.902	7.093	10.06	17.11	37.88	218.2	 1147	 3268	 3987	786.2	12.24	2.478	2.076	1.576	1.386	1.159	1.039	0.990	0.917	0.835	0.856	0.774	0.787
535.0	50.84	62.00	66.76	80.37	98.06	108.0	110.5	207.6	987.5	 2982	 1130	112.6	98.21	87.05	80.29	70.32	66.77	62.39	59.60	56.99	54.55	54.92	53.66	54.17	53.10	52.89	53.56	53.80	55.01	55.99	55.23	52.58	49.77	47.62	43.95	41.35	38.30	35.59	33.43	30.99	28.37	25.68	23.10	21.28	19.30	18.68	18.55	16.44	13.28	10.75	9.623	8.875	7.746	7.111	6.379	6.288	6.598	7.541	11.86	51.69	258.3	740.6	 1857	 4511	 1287	15.37	2.568	1.845	1.443	1.092	1.096	0.886	0.869	0.771	0.797	0.717	0.645
540.0	50.76	56.66	59.66	67.49	83.57	101.2	100.7	125.4	343.9	 2277	 2430	155.9	87.37	79.94	71.33	62.41	58.88	56.49	53.92	51.07	48.90	47.61	47.67	48.36	47.67	47.10	48.36	48.19	49.30	50.48	48.71	46.36	43.97	42.18	39.45	37.12	34.66	31.92	29.97	27.86	25.61	23.50	21.09	19.47	17.78	16.26	16.27	16.15	13.53	10.38	9.232	8.267	7.377	6.938	5.991	5.921	5.521	5.425	5.914	14.55	60.33	167.9	445.2	 2539	 4382	211.9	9.348	1.994	1.624	1.200	1.054	0.929	0.868	0.840	0.695	0.716	0.610
545.0	54.19	52.48	53.65	61.46	69.07	91.49	96.08	101.4	152.4	 1166	 3062	741.7	79.28	71.17	62.76	56.32	53.67	49.38	47.96	46.28	44.57	42.79	42.48	42.56	42.50	42.77	42.27	43.20	44.30	44.64	43.97	42.14	39.60	37.41	35.60	33.24	31.62	28.98	26.87	25.41	22.64	21.12	19.67	18.28	16.67	15.00	13.99	14.23	13.45	10.52	8.994	7.896	6.911	6.496	5.645	5.293	5.077	4.659	4.536	6.053	16.04	39.94	102.3	655.8	 3178	 3504	179.0	3.741	1.740	1.351	1.190	0.892	0.935	0.728	0.680	0.608	0.623
550.0	46.67	47.00	50.84	51.47	57.26	75.03	90.72	84.76	100.3	381.5	 2009	 2221	246.8	61.43	55.12	48.95	45.91	42.26	41.03	38.98	37.93	37.25	35.82	35.87	36.16	36.58	36.26	36.46	37.81	38.44	37.78	36.05	34.28	32.50	30.25	28.64	26.99	25.07	23.15	21.77	20.14	18.51	17.40	15.97	14.66	13.33	11.98	11.72	11.64	10.78	8.959	7.138	6.228	6.113	5.253	5.010	4.614	4.314	3.868	3.946	6.076	11.25	25.17	148.8	815.9	 2356	 2367	751.0	11.20	1.674	1.296	1.032	0.859	0.777	0.657	0.604	0.619
555.0	43.09	41.85	41.75	42.30	48.51	57.48	78.10	83.10	79.50	144.1	692.8	 2455	 1051	57.31	47.88	41.48	38.88	35.69	33.93	32.79	31.90	30.88	30.32	29.91	30.08	29.64	30.47	30.64	31.37	32.09	31.09	30.27	28.41	27.01	25.39	24.73	22.48	21.42	19.91	18.58	16.97	15.58	14.69	13.40	12.17	11.71	10.23	9.694	9.544	9.606	8.773	6.795	5.488	5.530	4.739	4.492	4.299	3.762	3.690	3.192	3.619	4.560	7.755	35.19	183.6	532.5	 1166	 3216	 1133	13.72	1.622	1.101	0.917	0.753	0.646	0.618	0.521
560.0	39.55	38.82	39.23	37.57	43.23	49.87	65.04	79.46	70.06	88.60	227.3	 1596	 2309	112.6	42.60	36.66	34.49	30.90	29.19	28.85	27.43	26.63	26.56	26.15	26.07	26.08	25.88	26.37	26.91	27.06	26.87	25.44	24.28	23.19	22.07	21.02	19.26	18.89	17.41	16.05	14.91	13.76	12.81	11.67	10.62	10.28	9.185	8.630	8.036	7.907	8.102	6.883	5.282	4.976	4.497	4.269	3.917	3.567	3.351	2.985	2.949	2.954	3.695	9.626	42.73	120.7	279.0	 1733	 3081	211.1	6.581	1.454	0.998	0.766	0.662	0.543	0.568
565.0	39.91	36.07	34.55	35.17	36.43	39.84	57.46	74.12	69.95	77.43	108.1	723.9	 2555	741.7	37.40	31.45	29.22	27.13	25.89	25.48	23.41	23.26	22.79	22.13	22.72	22.03	22.00	22.09	22.97	23.47	23.37	22.63	21.03	20.19	18.39	17.95	16.58	15.85	15.14	13.98	12.72	11.89	11.08	10.28	9.439	9.009	8.333	7.521	6.848	6.728	7.059	6.437	5.085	4.487	3.937	3.849	3.667	3.350	3.080	2.804	2.754	2.612	2.722	3.959	11.42	28.70	64.46	438.2	 2096	 1781	164.8	2.766	1.014	0.713	0.729	0.605	0.534
570.0	40.33	37.04	30.79	29.40	29.24	34.09	47.11	62.69	73.04	73.17	81.65	236.9	 1436	 1951	260.5	26.54	23.30	21.62	21.17	19.71	19.11	18.77	18.16	17.68	18.06	17.49	17.75	17.52	17.97	18.53	18.43	17.83	16.60	15.94	14.80	14.31	13.74	12.54	12.03	11.28	10.33	9.412	8.962	8.365	7.759	7.321	6.718	6.068	5.637	5.304	5.390	5.402	4.799	4.053	3.395	3.234	3.063	2.964	2.633	2.545	2.391	2.321	2.139	2.480	4.225	8.070	16.15	99.69	528.8	 1377	 1715	567.6	9.590	0.997	0.730	0.584	0.526
575.0	41.21	36.55	27.27	23.97	26.65	29.92	36.28	50.13	73.42	74.70	77.24	110.7	456.3	 1774	 1319	29.22	18.58	17.09	16.40	15.29	14.51	14.68	14.11	13.99	13.78	13.79	13.83	13.45	13.51	13.93	14.37	13.97	13.12	12.27	11.75	11.02	10.21	9.618	9.047	8.838	8.027	7.575	7.047	6.907	6.119	5.858	5.422	4.901	4.471	4.290	3.963	4.034	4.126	3.783	3.081	2.771	2.642	2.532	2.225	2.066	2.041	2.037	1.848	2.015	2.262	3.302	5.238	23.80	119.2	311.6	762.1	 1856	223.7	11.07	0.815	0.597	0.570
580.0	43.66	35.16	26.64	22.48	23.71	26.48	33.37	44.51	71.44	79.43	79.64	83.28	152.1	 1024	 2094	84.68	16.28	14.26	13.54	13.29	12.36	12.11	11.88	11.76	11.97	11.39	11.89	11.00	11.66	11.56	11.53	11.41	10.93	10.10	9.814	8.989	8.735	8.261	7.885	7.098	6.718	6.070	5.875	5.722	5.074	5.066	4.483	4.077	4.023	3.483	3.387	3.140	3.258	3.439	2.824	2.394	2.194	2.165	2.009	1.879	1.792	1.748	1.724	1.644	1.789	2.141	2.587	6.705	27.79	70.72	181.1	981.0	 1591	190.7	3.352	0.788	0.506
585.0	42.15	32.64	27.18	21.62	19.60	25.00	32.27	44.54	64.28	83.66	83.55	80.26	78.37	429.7	 1936	637.3	16.00	12.41	11.68	10.76	10.21	10.09	9.968	9.845	9.641	9.886	9.757	9.771	9.850	10.02	9.591	9.565	8.877	8.421	8.386	7.674	7.061	6.919	6.488	6.074	5.679	4.957	5.042	4.741	4.467	4.249	3.964	3.655	3.382	3.055	2.685	2.691	2.706	2.920	2.806	2.376	1.959	2.048	1.796	1.594	1.512	1.529	1.545	1.679	1.678	1.708	1.783	2.754	7.428	16.95	41.61	248.5	 1130	 1285	28.76	1.415	0.502
590.0	44.26	34.64	26.63	19.37	17.97	21.67	28.85	38.93	57.72	81.64	89.37	80.28	63.39	133.2	936.0	 1654	233.2	11.03	9.998	9.133	8.620	8.397	7.965	7.920	7.839	7.774	7.806	8.097	8.107	8.072	7.995	7.662	7.157	6.771	6.461	6.271	5.739	5.546	5.223	4.908	4.553	4.101	4.119	3.813	3.718	3.482	3.289	2.879	2.710	2.516	2.253	2.154	1.995	2.180	2.288	2.286	1.906	1.760	1.563	1.469	1.406	1.313	1.399	1.518	1.506	1.488	1.528	1.619	2.624	4.709	10.06	56.31	286.2	816.1	972.6	327.8	8.222
595.0	47.88	35.08	26.29	18.60	15.93	19.62	23.89	36.64	51.23	73.57	92.31	81.83	60.64	56.23	265.1	 1260	 1199	19.22	8.515	7.572	6.541	6.753	6.914	6.196	6.322	6.426	6.201	6.629	6.250	6.341	6.510	6.243	5.779	5.339	4.975	4.813	4.911	4.332	4.281	3.985	3.609	3.539	3.175	3.134	3.060	2.802	2.557	2.496	2.160	2.042	1.865	1.836	1.616	1.683	1.849	2.147	1.889	1.552	1.329	1.257	1.247	1.248	1.272	1.185	1.200	1.295	1.265	1.239	1.383	1.808	2.978	13.16	64.30	184.1	422.1	 1042	219.7
600.0	45.28	37.32	25.56	16.56	16.25	18.87	21.82	34.33	49.07	69.27	87.89	80.08	57.97	39.14	75.50	630.3	 1747	67.72	7.826	6.703	6.090	6.098	5.925	5.340	5.507	5.205	5.157	5.371	5.391	5.432	5.205	5.218	4.921	4.596	4.099	4.220	4.147	3.558	3.654	3.411	3.211	3.003	2.728	2.644	2.490	2.338	2.254	2.051	1.869	1.726	1.574	1.654	1.364	1.340	1.540	1.686	1.645	1.401	1.242	1.173	1.085	1.100	1.007	1.081	1.012	1.223	1.218	1.154	1.044	1.034	1.270	3.507	14.85	41.55	99.83	544.6	929.4
605.0	43.49	34.91	22.07	16.44	14.84	17.71	21.83	31.84	46.00	65.09	82.21	82.69	58.64	34.90	32.01	232.9	 1479	523.1	8.640	6.442	5.367	5.091	4.893	5.262	4.657	4.542	4.471	4.570	4.895	4.566	4.615	4.739	4.244	3.969	3.579	3.632	3.469	3.122	3.173	2.922	2.755	2.538	2.386	2.355	2.161	1.996	2.091	1.872	1.625	1.584	1.430	1.456	1.291	1.220	1.226	1.346	1.494	1.432	1.135	0.949	1.093	1.010	0.984	1.056	1.016	1.065	1.142	0.877	0.933	0.799	0.862	1.245	3.724	9.763	22.82	137.7	641.8
610.0	37.10	32.88	23.15	15.86	14.33	15.37	20.26	30.16	42.66	59.36	73.07	80.37	58.53	33.86	22.18	64.24	634.8	 1367	209.9	5.973	4.820	4.634	4.311	4.165	3.851	3.933	3.877	3.813	4.070	3.866	3.881	3.769	3.770	3.444	3.246	3.067	2.867	2.683	2.583	2.425	2.274	2.119	2.062	1.948	1.858	1.775	1.760	1.609	1.474	1.376	1.255	1.175	1.066	0.999	1.045	1.055	1.215	1.306	1.169	0.982	0.877	0.902	0.899	0.956	0.883	0.907	0.971	0.882	0.800	0.717	0.700	0.656	1.199	2.524	5.510	31.15	162.0
615.0	33.89	28.52	22.55	16.11	13.79	14.58	18.10	28.89	38.75	54.68	65.87	73.73	60.67	34.42	19.47	22.77	168.5	939.2	 1083	17.17	4.504	4.232	3.762	3.410	3.322	3.296	3.033	3.140	3.385	3.228	3.228	2.923	2.947	2.941	2.668	2.539	2.356	2.216	2.191	2.013	1.767	1.781	1.626	1.532	1.607	1.521	1.431	1.404	1.210	1.035	1.074	0.922	0.867	0.846	0.836	0.836	0.919	1.044	1.128	0.977	0.746	0.738	0.794	0.766	0.775	0.794	0.751	0.799	0.786	0.610	0.505	0.521	0.628	0.902	1.571	7.297	36.45
620.0	34.45	32.38	23.20	15.47	12.11	14.31	18.32	28.23	35.85	49.50	59.50	66.64	60.46	33.54	18.15	13.69	44.19	422.6	 1492	59.65	4.349	3.942	3.439	3.291	3.251	2.847	2.643	3.005	2.966	2.805	2.821	2.786	2.587	2.694	2.356	2.151	1.993	1.923	1.854	1.815	1.605	1.495	1.445	1.362	1.373	1.442	1.353	1.197	1.086	1.004	0.949	0.931	0.747	0.777	0.707	0.763	0.764	0.818	0.985	0.932	0.817	0.736	0.742	0.722	0.757	0.734	0.716	0.821	0.734	0.635	0.525	0.416	0.430	0.470	0.645	1.931	8.420
625.0	31.68	30.21	21.69	15.38	11.08	12.75	17.05	23.83	35.35	46.63	56.95	61.93	59.12	35.50	18.95	11.21	15.89	143.2	 1164	733.5	5.678	3.593	3.206	3.043	3.008	2.756	2.408	2.563	2.432	2.631	2.472	2.478	2.151	2.233	2.003	2.031	1.861	1.750	1.694	1.542	1.310	1.377	1.402	1.194	1.174	1.197	1.194	1.189	1.097	0.915	0.776	0.768	0.727	0.711	0.657	0.716	0.670	0.631	0.799	0.802	0.820	0.680	0.745	0.689	0.749	0.697	0.681	0.692	0.759	0.696	0.508	0.398	0.401	0.371	0.434	0.650	2.094
630.0	29.62	28.26	19.41	13.67	10.78	12.52	17.51	22.81	32.27	44.72	53.84	57.73	52.06	38.42	20.11	11.18	9.572	38.42	455.6	 1243	187.1	3.553	2.917	2.692	2.483	2.361	2.321	2.207	2.186	2.295	1.998	2.141	1.811	1.786	1.766	1.748	1.570	1.505	1.378	1.299	1.201	1.121	1.132	1.107	1.014	1.071	1.005	0.940	0.874	0.819	0.692	0.689	0.656	0.612	0.582	0.631	0.589	0.622	0.649	0.614	0.755	0.687	0.617	0.611	0.636	0.611	0.601	0.628	0.626	0.572	0.486	0.422	0.345	0.291	0.312	0.339	0.703
635.0	27.57	27.56	19.40	14.19	10.71	11.29	17.16	22.48	31.35	41.74	49.58	52.92	47.26	37.97	23.91	12.09	8.008	13.79	115.2	734.4	962.0	13.51	2.750	2.425	2.242	2.053	2.127	1.881	1.870	1.961	1.653	1.666	1.698	1.618	1.387	1.441	1.338	1.255	1.234	1.107	1.034	1.076	0.869	0.883	0.853	0.887	0.924	0.765	0.756	0.715	0.554	0.679	0.642	0.551	0.461	0.528	0.505	0.477	0.552	0.552	0.609	0.616	0.583	0.564	0.596	0.601	0.542	0.543	0.537	0.448	0.543	0.393	0.359	0.220	0.251	0.238	0.346
640.0	29.93	26.19	18.13	13.83	11.48	13.19	15.86	21.80	31.29	41.14	47.83	49.90	45.06	37.83	25.70	13.04	8.082	7.886	29.97	293.7	 1282	52.33	2.967	2.212	2.008	1.894	2.002	1.722	1.767	1.817	1.611	1.578	1.632	1.447	1.215	1.218	1.227	1.116	1.170	1.013	0.972	0.954	0.846	0.782	0.769	0.801	0.835	0.781	0.685	0.618	0.618	0.649	0.593	0.505	0.426	0.430	0.413	0.520	0.477	0.493	0.509	0.542	0.552	0.607	0.605	0.558	0.534	0.484	0.523	0.434	0.466	0.413	0.378	0.274	0.282	0.195	0.277
645.0	25.66	25.21	20.42	13.56	11.04	13.14	15.69	21.71	29.36	37.37	46.80	48.37	43.52	34.40	26.98	14.50	8.274	6.785	10.64	92.69	952.2	402.9	4.689	2.327	2.103	1.810	1.919	1.597	1.794	1.676	1.819	1.460	1.440	1.272	1.228	1.140	1.134	1.102	0.995	1.059	0.841	0.914	0.894	0.731	0.733	0.701	0.778	0.712	0.685	0.554	0.520	0.521	0.467	0.507	0.458	0.458	0.403	0.460	0.416	0.462	0.455	0.534	0.520	0.485	0.527	0.476	0.459	0.466	0.515	0.435	0.440	0.321	0.331	0.280	0.274	0.226	0.200
650.0	27.74	26.08	18.62	13.24	11.64	11.40	14.34	20.39	28.59	37.66	43.60	46.35	43.75	33.39	27.01	16.21	9.270	6.529	6.285	25.74	437.9	 1062	34.98	2.496	1.984	1.710	1.716	1.542	1.456	1.503	1.441	1.447	1.365	1.159	1.174	1.030	1.049	1.022	0.921	0.964	0.851	0.862	0.757	0.773	0.678	0.722	0.652	0.625	0.567	0.581	0.563	0.475	0.408	0.446	0.442	0.485	0.446	0.404	0.372	0.477	0.418	0.445	0.478	0.473	0.545	0.421	0.469	0.420	0.434	0.446	0.398	0.348	0.301	0.361	0.270	0.192	0.227
