Sample:	'1
File name:	»´ºÓ´óÍ©½ÖÇÅÏÂ.FD3
Run date:	'11:18:23, 04/03/2024
Operator:	Administrator
Comment:	'

Instrument
Model:	F-2700 FL Spectrophotometer
Serial number:	23B8-004
ROM Version:	4J14000 07

Instrument parameters
Measurement type:	3-D scan
Data mode:	Fluorescence
EX  Start WL:	220.0 nm
EX  End WL:	600.0 nm
EX Sampling interval:	5.0 nm
EM  Start WL:	230.0 nm
EM  End WL:	650.0 nm
EM Sampling interval:	5.0 nm
Scan speed:	12000 nm/min
EX Slit:	5.0 nm
EM Slit:	5.0 nm
PMT Voltage:	700 V
Response:	Auto 
Corrected spectra:	Off
Contour interval:	50.000

Peak integration
Integration method:	Rectangular
Sensitivity:	1
Threshold:	1.000

Peaks
No.	ApexEX/EM(nm)	Height(Data)
1	230.0/315.0	774.8
2	230.0/400.0	460.1
3	230.0/595.0	49.85
4	230.0/630.0	39.84
5	235.0/395.0	458.7
6	235.0/410.0	452.3
7	235.0/510.0	197.3
8	240.0/415.0	452.2
9	240.0/520.0	167.3
10	245.0/405.0	458.4
11	245.0/530.0	146.5
12	250.0/415.0	450.6
13	250.0/545.0	121.0
14	255.0/280.0	439.2
15	255.0/560.0	107.1
16	260.0/285.0	368.8
17	260.0/570.0	86.54
18	265.0/435.0	424.6
19	265.0/585.0	86.31
20	270.0/300.0	849.5
21	270.0/600.0	83.51
22	275.0/305.0	1048
23	275.0/330.0	744.2
24	275.0/610.0	74.02
25	280.0/310.0	966.5
26	280.0/625.0	63.01
27	285.0/315.0	873.2
28	285.0/635.0	48.09
29	305.0/340.0	323.0
30	310.0/350.0	270.2
31	315.0/355.0	271.4
32	320.0/360.0	273.9
33	325.0/370.0	256.8
34	330.0/375.0	260.3
35	335.0/380.0	262.3
36	340.0/390.0	241.4
37	345.0/395.0	230.3
38	350.0/400.0	231.2
39	360.0/415.0	196.2
40	365.0/420.0	191.6
41	415.0/485.0	46.86
42	430.0/505.0	30.42
43	435.0/510.0	26.60
44	445.0/525.0	19.47
45	450.0/530.0	16.35
46	505.0/275.0	2.264
47	510.0/280.0	2.559
48	520.0/285.0	2.958
49	530.0/290.0	3.208
50	540.0/295.0	4.061
51	545.0/300.0	4.828
52	555.0/305.0	5.351
53	565.0/310.0	4.792
54	570.0/315.0	5.215
55	580.0/320.0	4.819
56	585.0/325.0	4.224

Data points
	220.0	225.0	230.0	235.0	240.0	245.0	250.0	255.0	260.0	265.0	270.0	275.0	280.0	285.0	290.0	295.0	300.0	305.0	310.0	315.0	320.0	325.0	330.0	335.0	340.0	345.0	350.0	355.0	360.0	365.0	370.0	375.0	380.0	385.0	390.0	395.0	400.0	405.0	410.0	415.0	420.0	425.0	430.0	435.0	440.0	445.0	450.0	455.0	460.0	465.0	470.0	475.0	480.0	485.0	490.0	495.0	500.0	505.0	510.0	515.0	520.0	525.0	530.0	535.0	540.0	545.0	550.0	555.0	560.0	565.0	570.0	575.0	580.0	585.0	590.0	595.0	600.0
230.0	27.97	955.7	3383	1370	54.81	4.704	3.405	2.768	2.042	2.375	2.102	2.673	2.109	1.934	1.751	1.367	1.327	1.329	1.162	1.152	1.092	0.949	0.849	0.803	0.819	0.678	0.647	0.614	0.673	0.571	0.555	0.575	0.523	0.486	0.490	0.443	0.366	0.329	0.322	0.315	0.359	0.464	0.418	0.425	0.308	0.280	1.067	6.249	12.51	9.779	3.804	0.756	0.237	0.214	0.204	0.183	0.175	0.193	0.175	0.124	0.132	0.135	0.119	0.121	0.121	0.126	0.082	0.073	0.072	0.088	0.068	0.061	0.062	0.054	0.057	0.068	0.068
235.0	77.99	252.4	1690	3566	621.1	96.79	5.396	4.428	3.011	2.698	2.497	2.528	1.855	2.513	1.604	1.508	1.392	1.362	1.384	1.130	1.012	0.932	0.766	0.821	0.854	0.684	0.893	0.642	0.569	0.582	0.545	0.607	0.472	0.493	0.558	0.391	0.355	0.373	0.331	0.296	0.347	0.378	0.385	0.556	0.514	0.428	0.539	1.709	4.181	7.698	11.96	13.69	7.066	1.547	0.283	0.193	0.186	0.148	0.183	0.208	0.154	0.133	0.111	0.130	0.143	0.127	0.118	0.121	0.048	0.096	0.065	0.090	0.069	0.104	0.088	0.054	0.105
240.0	109.1	131.0	453.3	2404	4026	527.4	49.65	5.979	4.313	3.770	3.277	3.006	2.607	2.387	1.881	1.710	1.758	1.471	1.297	1.313	1.331	0.915	0.807	0.769	0.827	0.710	0.842	0.770	0.539	0.526	0.538	0.552	0.560	0.419	0.452	0.436	0.390	0.435	0.374	0.378	0.310	0.345	0.280	0.437	0.545	0.609	0.568	0.667	1.139	2.183	5.474	15.15	20.02	15.22	5.584	0.962	0.259	0.196	0.189	0.183	0.150	0.114	0.135	0.178	0.165	0.111	0.069	0.109	0.116	0.080	0.036	0.054	0.073	0.103	0.063	0.144	0.055
245.0	67.39	159.5	161.3	713.4	3525	3985	409.7	20.21	6.455	3.837	3.926	3.128	2.929	2.709	2.250	1.734	1.691	1.337	1.354	1.321	1.320	1.091	0.968	0.917	0.920	0.924	0.773	0.859	0.783	0.625	0.517	0.578	0.528	0.393	0.511	0.450	0.529	0.371	0.373	0.367	0.322	0.405	0.327	0.322	0.389	0.569	0.692	0.816	0.594	0.718	1.431	4.482	11.62	21.84	24.56	14.39	4.031	0.456	0.278	0.178	0.185	0.198	0.172	0.177	0.170	0.105	0.099	0.089	0.108	0.068	0.058	0.076	0.088	0.137	0.055	0.094	0.057
250.0	27.51	94.98	180.8	242.4	997.2	3252	4393	1545	102.6	7.165	6.085	4.930	3.838	2.997	2.585	2.177	1.748	1.682	1.512	1.387	1.330	1.137	1.093	0.930	0.899	0.849	0.889	0.868	0.754	0.601	0.685	0.624	0.576	0.585	0.459	0.438	0.492	0.414	0.359	0.389	0.330	0.386	0.370	0.395	0.323	0.362	0.518	0.687	0.806	0.811	0.780	1.240	2.896	6.381	12.72	20.89	26.87	22.04	13.43	3.940	0.504	0.158	0.158	0.179	0.157	0.109	0.147	0.115	0.111	0.090	0.097	0.058	0.101	0.086	0.047	0.095	0.075
255.0	14.83	34.83	96.36	253.7	315.8	774.7	2638	7465	2183	122.0	9.761	7.414	4.757	4.011	3.500	2.442	2.346	2.170	1.768	1.531	1.483	1.099	1.220	1.112	1.128	0.929	0.820	0.818	0.943	0.670	0.708	0.700	0.622	0.603	0.548	0.506	0.480	0.392	0.324	0.421	0.361	0.385	0.306	0.376	0.352	0.297	0.420	0.403	0.419	0.685	1.095	1.174	1.197	1.618	3.011	4.983	8.629	19.93	39.70	32.22	20.54	4.257	0.349	0.174	0.202	0.162	0.140	0.154	0.135	0.050	0.136	0.044	0.121	0.076	0.089	0.132	0.075
260.0	15.52	17.95	35.56	168.7	272.2	228.8	700.5	4729	8745	1761	67.14	10.08	6.391	5.178	4.071	2.996	2.303	2.433	1.882	1.938	1.591	1.304	1.224	1.115	1.146	0.986	0.842	0.928	0.931	0.789	0.803	0.814	0.624	0.640	0.396	0.481	0.500	0.434	0.351	0.474	0.427	0.299	0.314	0.467	0.483	0.336	0.420	0.310	0.300	0.358	0.650	1.385	1.578	1.105	0.936	1.314	2.205	5.187	15.08	31.73	54.64	31.21	17.82	2.462	0.197	0.162	0.189	0.169	0.175	0.114	0.148	0.083	0.110	0.123	0.095	0.118	0.118
265.0	19.85	13.85	19.47	70.87	261.3	228.2	190.5	1349	7159	9978	1264	24.77	10.35	7.323	5.474	3.632	3.179	3.041	1.945	2.095	1.675	1.326	1.317	1.407	1.104	0.989	0.939	0.939	1.023	0.849	0.782	0.832	0.707	0.651	0.440	0.495	0.510	0.458	0.351	0.418	0.390	0.419	0.449	0.408	0.427	0.340	0.400	0.306	0.288	0.310	0.381	0.630	1.243	1.793	1.484	0.762	0.739	1.394	3.658	8.899	26.22	48.98	71.72	29.11	10.58	0.882	0.192	0.192	0.190	0.152	0.156	0.118	0.256	0.125	0.080	0.120	0.110
270.0	21.44	21.52	17.72	29.72	107.6	260.1	240.8	350.6	1985	7352	9999.9	4060	73.87	10.64	7.549	5.019	3.860	3.397	2.675	2.434	2.048	1.645	1.560	1.437	1.269	1.173	1.063	1.020	1.104	0.946	0.865	0.776	0.850	0.760	0.499	0.624	0.578	0.537	0.425	0.417	0.466	0.465	0.433	0.416	0.396	0.411	0.355	0.307	0.338	0.313	0.276	0.360	0.532	0.928	1.375	1.643	1.517	0.946	1.167	2.219	6.174	13.37	31.38	44.77	58.37	52.91	19.47	9.035	1.163	0.226	0.233	0.181	0.190	0.137	0.087	0.138	0.129
275.0	34.63	38.12	25.41	21.87	38.53	96.28	317.1	320.8	483.4	1719	5692	9999.9	1401	85.98	13.35	8.382	6.070	4.775	3.549	3.268	2.432	2.132	1.960	1.639	1.613	1.257	1.266	1.105	1.198	1.125	0.985	0.936	0.901	0.943	0.748	0.618	0.638	0.580	0.486	0.401	0.507	0.446	0.424	0.409	0.421	0.435	0.429	0.389	0.359	0.348	0.275	0.303	0.370	0.473	0.484	0.815	1.591	2.264	1.988	1.111	1.646	3.344	7.285	10.44	15.87	32.80	70.43	93.86	31.08	12.72	0.877	0.300	0.168	0.201	0.096	0.219	0.137
280.0	47.72	58.44	49.66	37.12	29.84	41.36	159.0	439.2	265.2	427.7	1477	8543	9999.9	1123	50.59	11.75	7.487	5.977	4.792	3.751	3.204	2.508	2.101	1.974	1.723	1.413	1.299	1.233	1.420	1.121	1.083	0.983	1.166	0.878	0.854	0.750	0.754	0.593	0.462	0.543	0.569	0.518	0.509	0.480	0.565	0.540	0.551	0.491	0.445	0.384	0.326	0.363	0.338	0.344	0.284	0.531	0.736	1.392	2.559	2.322	1.449	1.112	1.974	2.696	3.949	8.035	21.91	56.81	90.92	99.39	28.10	6.997	0.494	0.320	0.203	0.228	0.203
285.0	110.2	129.3	126.3	84.84	46.57	34.28	66.05	296.8	368.8	211.3	422.1	2400	9999.9	9692	795.7	24.72	10.29	8.381	5.567	4.301	3.660	2.956	2.147	2.131	1.794	1.667	1.330	1.438	1.517	1.368	1.258	1.084	0.992	0.966	0.993	0.993	0.789	0.784	0.609	0.702	0.619	0.665	0.559	0.680	0.693	0.693	0.667	0.796	0.776	0.606	0.530	0.498	0.470	0.419	0.314	0.437	0.469	0.622	1.254	2.200	2.958	1.881	1.144	1.113	1.432	2.335	5.511	14.17	32.38	78.47	111.6	37.43	22.43	3.798	0.349	0.289	0.258
290.0	221.2	284.3	302.8	211.0	104.1	59.52	60.54	141.3	365.8	456.0	347.0	741.5	2929	9999.9	9999.9	3031	47.58	12.97	7.956	6.424	4.967	3.512	2.729	2.595	2.169	1.869	1.718	1.707	1.598	1.534	1.245	1.176	1.129	1.245	1.215	1.171	1.072	1.027	0.867	0.879	0.744	0.786	0.780	0.966	0.906	1.004	1.176	1.305	1.370	1.056	0.970	0.903	0.677	0.608	0.455	0.466	0.582	0.586	0.748	1.049	1.814	2.427	3.208	2.568	1.755	1.645	2.330	4.215	8.364	19.65	37.16	50.20	84.20	69.20	68.01	16.24	5.572
295.0	346.6	456.8	505.6	351.6	163.2	88.43	82.74	123.7	219.0	502.8	752.3	531.4	930.6	2453	6454	9999.9	4350	57.79	12.71	9.629	6.733	4.361	3.525	3.569	2.726	2.337	2.018	1.987	1.852	1.670	1.351	1.294	1.563	1.282	1.382	1.491	1.271	1.256	1.068	0.996	0.935	0.943	1.061	1.133	1.251	1.466	1.664	1.880	2.018	1.624	1.467	1.425	0.939	0.655	0.598	0.637	0.590	0.647	0.732	0.932	1.139	1.304	2.285	3.264	4.061	3.447	2.359	2.605	3.417	5.933	9.456	12.20	20.25	27.43	79.32	128.3	112.9
300.0	421.1	584.5	619.9	435.7	213.4	122.5	109.4	140.5	219.9	383.5	849.5	765.3	564.1	776.7	1701	9661	9999.9	675.9	35.67	13.87	9.089	5.565	4.486	3.733	3.093	2.880	2.356	2.133	2.176	1.848	1.668	1.514	1.463	1.329	1.625	1.473	1.455	1.287	1.297	1.058	1.158	1.041	1.191	1.346	1.452	1.757	2.140	2.235	2.413	2.027	1.693	1.633	1.110	0.873	0.729	0.686	0.755	0.852	0.877	1.126	1.093	1.347	1.874	2.392	3.531	4.828	4.670	3.390	2.583	2.923	3.876	4.006	5.445	7.008	20.49	54.56	114.4
305.0	454.3	650.9	689.3	507.4	247.7	143.9	136.0	171.9	249.3	372.0	670.9	1048	664.4	457.7	529.8	2632	9999.9	9999.9	538.4	23.13	11.90	7.463	5.499	4.741	3.710	2.943	2.711	2.519	2.005	1.853	1.660	1.692	1.584	1.522	1.717	1.455	1.585	1.315	1.355	1.327	1.191	1.171	1.314	1.402	1.610	1.961	2.299	2.580	2.692	2.361	1.809	1.823	1.265	1.215	0.883	0.844	0.808	0.971	0.947	1.179	1.204	1.571	1.862	2.208	2.607	3.795	4.852	5.351	3.870	2.952	2.792	2.524	2.456	2.468	5.359	13.14	31.71
310.0	485.4	701.7	761.3	538.0	280.5	174.8	163.0	204.8	290.2	400.5	591.2	874.5	966.5	569.9	320.6	694.3	2853	9999.9	9999.9	2249	38.37	11.73	7.846	6.166	4.731	3.625	3.317	2.944	2.510	2.282	1.957	1.909	1.670	1.738	1.848	1.756	1.603	1.548	1.392	1.337	1.328	1.265	1.379	1.470	1.808	2.059	2.345	2.763	2.755	2.464	1.989	1.967	1.522	1.210	1.105	1.004	1.004	1.092	1.162	1.251	1.494	1.807	2.179	2.155	2.658	3.380	3.534	4.461	4.739	4.792	4.186	2.935	2.094	1.783	2.185	3.749	7.749
315.0	508.6	720.7	774.8	549.1	309.9	207.2	188.3	241.6	330.1	435.5	601.1	747.3	855.0	873.2	405.4	292.1	707.4	2320	6842	9999.9	3573	42.53	11.92	8.699	5.904	4.793	3.936	3.366	3.177	2.491	2.569	2.186	2.236	1.864	1.865	1.841	1.753	1.571	1.614	1.513	1.508	1.414	1.467	1.791	1.977	1.990	2.552	2.870	2.928	2.264	1.996	2.085	1.493	1.356	1.194	1.120	1.065	1.251	1.341	1.401	1.795	1.933	2.440	2.364	2.761	3.251	3.142	3.582	3.889	4.356	5.215	4.732	3.455	2.301	1.768	1.698	2.502
320.0	507.1	742.6	764.6	540.7	324.9	226.4	211.3	251.6	345.5	456.1	613.4	734.3	754.1	828.3	625.9	243.5	235.9	564.8	1719	9999.9	9999.9	507.6	29.44	11.93	8.070	6.013	4.577	4.115	4.091	2.901	2.716	2.327	2.328	2.155	1.931	1.972	1.819	1.577	1.652	1.489	1.486	1.633	1.575	1.887	1.942	2.188	2.738	2.854	2.986	2.456	2.040	2.183	1.534	1.395	1.231	1.249	1.204	1.364	1.450	1.622	1.792	2.127	2.280	2.375	2.850	3.318	3.257	3.654	3.588	3.744	3.940	4.475	4.819	3.912	2.378	1.492	1.458
325.0	514.1	731.9	764.4	555.8	341.1	238.7	228.2	268.3	363.6	463.1	629.1	735.3	737.9	684.6	695.9	364.5	143.4	179.1	423.9	2757	9999.9	9999.9	425.7	20.09	10.87	8.102	5.564	4.995	4.007	3.452	2.755	2.532	2.362	2.183	1.943	2.063	1.872	1.573	1.725	1.457	1.522	1.577	1.537	1.675	1.971	2.368	2.705	2.916	2.793	2.383	2.080	2.073	1.507	1.598	1.343	1.377	1.484	1.595	1.565	1.560	1.818	2.073	2.348	2.624	2.828	3.222	3.379	3.376	3.749	3.514	3.328	3.509	3.917	4.224	3.673	2.355	1.444
330.0	498.3	723.6	764.4	562.8	343.3	257.8	248.6	285.3	374.9	463.7	631.8	744.2	731.8	633.7	540.7	481.0	256.0	110.6	139.1	653.9	2942	9999.9	9999.9	1814	32.15	11.33	8.112	6.619	5.212	4.155	3.292	2.938	2.867	2.346	2.245	2.152	2.025	1.780	1.713	1.552	1.570	1.666	1.578	1.722	1.944	2.376	2.533	2.792	2.884	2.372	2.044	2.094	1.666	1.717	1.480	1.448	1.457	1.613	1.611	1.590	1.872	2.089	2.457	2.761	2.968	3.433	3.295	3.351	3.738	3.506	3.532	3.234	2.979	3.269	3.063	2.882	2.792
335.0	488.1	693.7	749.8	552.0	360.3	272.3	263.5	286.6	374.5	468.0	620.2	738.0	723.6	614.0	466.8	360.9	387.7	197.5	90.77	190.0	691.6	2305	6738	9999.9	3013	38.25	11.51	9.380	6.861	5.040	4.317	3.656	3.344	2.642	2.439	2.354	2.203	1.926	1.767	1.871	1.612	1.648	1.760	1.830	1.934	2.211	2.449	2.750	2.921	2.476	2.119	2.135	1.742	1.765	1.525	1.539	1.697	1.667	1.779	1.473	1.909	2.094	2.455	2.685	2.789	3.339	3.258	3.450	3.477	3.463	3.508	3.265	2.734	2.738	2.276	2.203	2.284
340.0	464.4	682.0	713.5	538.2	372.2	293.8	273.5	295.2	376.6	455.8	614.7	708.7	699.5	597.7	447.4	301.9	313.2	323.0	97.63	94.76	196.0	548.8	1724	9999.9	9999.9	2258	27.56	11.66	8.690	6.440	4.944	4.091	3.498	2.763	2.567	2.341	2.216	2.004	1.805	1.805	1.555	1.645	1.748	1.977	2.085	2.094	2.516	2.842	2.869	2.345	1.908	2.068	1.718	1.871	1.498	1.539	1.532	1.782	1.877	1.717	1.809	2.036	2.509	2.504	2.630	3.236	3.054	3.395	3.365	3.333	3.549	3.141	2.697	2.654	2.314	1.854	1.875
345.0	443.2	618.6	676.1	530.0	373.7	300.5	282.8	298.6	365.0	441.2	584.4	674.2	663.7	577.4	434.2	290.7	228.3	316.1	222.5	89.13	93.21	163.9	420.8	2808	9999.9	9999.9	388.1	18.72	10.89	7.686	5.575	4.598	3.942	2.917	2.708	2.222	2.291	2.090	1.859	1.648	1.530	1.462	1.533	1.812	1.959	2.121	2.369	2.670	2.600	2.299	2.017	2.035	1.758	1.680	1.578	1.592	1.607	1.714	1.676	1.696	1.784	2.119	2.430	2.358	2.550	3.157	3.068	3.192	3.201	3.183	3.443	2.976	2.700	2.645	2.385	1.912	1.641
350.0	420.1	573.6	614.7	497.5	376.4	310.7	292.3	303.2	357.4	416.7	544.3	619.1	613.1	542.3	418.8	286.1	209.1	215.0	270.2	197.2	98.09	91.95	139.1	666.2	3018	9999.9	9999.9	1645	30.40	10.51	7.332	5.550	4.522	3.502	2.945	2.503	2.284	2.125	1.865	1.707	1.373	1.508	1.546	1.723	1.798	2.119	2.126	2.571	2.470	2.103	2.006	2.016	1.911	1.632	1.653	1.545	1.685	1.675	1.749	1.649	1.769	1.989	2.149	2.216	2.492	2.830	2.844	3.022	3.027	2.921	3.054	2.705	2.677	2.544	2.229	1.798	1.694
355.0	403.7	524.9	573.2	482.7	379.9	325.1	304.7	309.8	354.9	406.8	514.3	573.3	565.6	506.2	401.8	290.0	216.9	188.2	198.2	271.4	190.1	99.92	89.37	198.0	711.1	2324	7235	9999.9	2850	35.87	10.99	7.626	5.726	3.937	3.205	2.695	2.544	2.285	1.930	1.818	1.420	1.399	1.569	1.718	1.666	2.011	2.114	2.325	2.227	2.092	1.865	1.890	1.781	1.801	1.661	1.595	1.661	1.761	1.705	1.564	1.905	1.965	2.138	2.249	2.390	2.714	2.585	2.770	2.698	2.609	2.523	2.668	2.540	2.513	2.129	1.963	1.643
360.0	367.6	478.4	530.6	462.6	389.8	329.0	311.8	319.7	351.0	399.3	484.0	544.0	531.1	485.8	394.2	294.3	228.3	194.0	180.4	225.4	273.9	148.0	93.63	105.2	206.0	555.9	1884	9999.9	9999.9	2231	26.35	9.959	6.929	4.669	3.654	3.043	2.538	2.168	2.171	1.848	1.486	1.504	1.680	1.618	1.714	1.883	2.021	2.229	2.288	2.030	1.840	2.004	1.779	1.836	1.629	1.592	1.719	1.684	1.704	1.740	1.937	2.219	2.129	2.254	2.242	2.431	2.578	2.730	2.658	2.573	2.573	2.456	2.394	2.387	1.914	2.006	1.801
365.0	350.2	470.5	530.2	444.8	394.6	343.5	323.5	331.8	354.5	395.6	472.1	516.3	503.7	462.8	386.0	297.6	242.0	211.2	190.3	192.0	260.6	237.3	120.8	94.78	103.9	169.0	458.3	2953	9999.9	9999.9	368.7	17.61	9.743	6.277	4.467	3.597	3.005	2.540	2.247	1.959	1.694	1.530	1.691	1.531	1.713	1.777	1.994	2.312	2.290	1.894	1.740	1.964	1.967	1.745	1.697	1.663	1.751	1.727	1.836	1.825	1.882	1.998	2.071	2.139	2.096	2.454	2.548	2.531	2.714	2.637	2.571	2.396	2.393	2.200	2.006	2.130	1.826
370.0	338.1	437.7	490.1	446.6	402.0	360.8	346.9	350.7	363.6	394.0	451.8	488.5	478.0	445.5	377.2	305.3	259.6	235.1	212.6	199.2	213.5	256.8	217.0	125.8	97.78	95.37	146.5	697.5	3160	9999.9	9999.9	1512	27.66	8.975	6.311	4.621	3.615	2.880	2.450	2.262	1.839	1.721	1.704	1.715	1.827	1.840	1.909	2.236	2.113	1.857	1.790	1.864	1.974	1.830	1.924	1.864	1.820	1.805	1.788	1.768	1.889	1.968	2.105	2.112	2.153	2.326	2.290	2.496	2.449	2.484	2.466	2.451	2.340	2.163	1.990	1.957	1.827
375.0	320.7	420.3	477.7	452.9	418.9	372.6	369.9	369.1	379.5	400.6	441.5	469.1	465.0	426.6	369.3	311.4	277.5	258.0	238.0	222.9	210.7	210.6	260.3	213.5	121.7	95.90	89.58	201.6	738.5	2347	7587	9999.9	2578	31.47	9.060	6.417	4.505	3.369	2.928	2.427	2.067	1.834	1.894	1.757	1.844	1.834	1.787	2.160	2.009	1.953	1.744	1.993	1.842	1.758	1.840	1.935	1.839	1.825	1.882	1.854	1.803	2.113	2.036	2.259	2.103	2.508	2.281	2.304	2.254	2.404	2.287	2.339	2.208	2.268	1.913	2.038	1.898
380.0	303.9	408.8	470.7	451.8	424.2	395.4	380.1	376.2	390.3	401.9	432.4	450.9	446.6	416.0	369.3	319.1	288.2	272.9	254.7	237.9	221.2	207.6	227.9	262.3	171.7	107.7	87.63	99.09	205.8	556.8	1985	9999.9	9999.9	1906	23.02	7.831	5.394	4.289	3.352	2.468	2.254	2.161	1.904	1.833	2.019	1.886	1.920	2.093	2.037	1.912	1.677	2.148	1.988	1.941	1.944	1.963	1.969	1.855	1.829	1.928	1.865	1.893	1.994	2.138	2.328	2.177	2.224	2.220	2.350	2.341	2.075	2.233	2.215	2.137	1.914	1.906	2.054
385.0	315.4	397.8	466.1	449.3	438.4	414.7	401.6	384.3	391.1	401.2	435.6	448.6	437.8	405.2	363.8	320.9	298.7	284.0	267.7	250.8	233.8	215.8	209.8	247.3	237.9	138.4	98.54	85.10	93.90	163.1	475.1	2912	9999.9	9999.9	307.2	13.90	6.957	5.342	4.102	2.953	2.360	2.353	2.107	1.991	2.052	1.905	1.884	2.051	2.077	1.888	1.758	2.124	2.122	1.999	1.965	1.914	2.015	2.034	1.971	2.098	1.964	2.037	2.091	2.042	2.229	1.996	2.164	2.208	2.065	2.305	2.195	2.148	2.197	2.131	2.006	1.861	2.049
390.0	308.2	393.2	457.0	455.8	447.0	427.7	416.9	402.6	405.1	409.4	435.8	438.6	424.9	402.1	361.3	326.4	310.8	295.3	285.5	269.2	250.5	235.0	217.8	216.1	241.4	209.2	130.6	96.44	82.26	85.38	143.3	680.8	3081	9880	9999.9	1199	22.05	7.382	5.261	3.842	2.975	2.561	2.425	2.242	1.963	2.010	2.036	2.219	2.129	1.912	1.805	2.052	2.072	2.093	1.967	2.101	2.137	2.071	2.201	2.108	2.130	2.230	2.189	2.056	2.163	2.121	2.122	2.181	2.124	2.013	2.185	2.099	2.116	2.038	2.127	1.872	2.035
395.0	313.2	390.2	453.5	458.7	442.5	435.0	438.0	423.0	422.0	416.4	432.4	432.8	417.2	396.3	357.7	336.8	315.6	308.6	296.3	284.4	266.0	251.2	233.6	216.1	211.6	230.3	198.8	123.5	94.44	79.69	78.40	187.5	713.5	2305	6543	9999.9	2131	27.57	7.009	5.060	3.633	3.174	2.671	2.497	2.197	2.189	2.037	2.499	2.201	1.997	1.785	2.195	2.084	2.059	2.129	2.088	2.180	2.101	2.261	2.083	2.075	2.036	2.137	2.229	2.155	2.070	2.044	2.239	2.159	1.945	2.176	2.057	2.135	2.132	2.075	2.170	1.995
400.0	314.2	402.8	460.1	451.9	447.1	445.4	446.1	434.0	421.1	423.6	430.3	424.8	410.5	391.3	358.4	333.9	319.4	312.1	301.4	289.9	275.2	259.7	242.7	224.3	206.6	208.3	231.2	165.7	108.8	87.56	71.27	82.09	189.6	538.0	1690	8632	9999.9	1669	20.62	6.212	4.719	3.472	3.080	2.461	2.231	2.149	2.189	2.540	2.166	2.088	1.965	2.162	2.228	2.026	2.146	2.193	2.146	2.246	2.355	2.182	2.219	2.273	2.106	2.042	2.255	2.078	2.174	2.118	2.247	2.137	2.068	2.092	2.342	2.172	2.045	1.878	2.008
405.0	307.0	397.9	443.3	450.7	444.2	458.4	441.7	446.9	427.5	419.3	427.1	418.1	407.9	383.7	358.5	331.5	321.4	311.8	306.6	295.7	280.1	266.8	249.2	230.2	212.7	194.9	215.2	207.8	135.2	98.15	77.30	63.84	77.61	147.0	399.4	2439	9723	9999.9	280.3	12.89	5.264	4.477	3.489	2.942	2.701	2.350	2.271	2.496	2.354	2.097	1.843	2.270	2.300	2.236	2.355	2.404	2.265	2.311	2.159	2.282	2.101	2.311	2.087	1.983	2.195	1.972	2.101	2.101	2.170	2.220	2.184	1.906	2.179	2.236	2.218	2.042	2.097
410.0	296.7	395.5	439.8	452.3	449.1	450.5	440.7	447.0	435.1	425.1	423.5	414.1	394.8	376.5	350.8	328.7	318.0	312.1	305.5	295.5	282.6	269.7	255.4	239.3	221.0	201.0	194.2	206.1	188.6	127.7	91.62	70.46	60.41	65.31	113.4	564.5	2649	7534	9520	1242	20.74	5.947	4.351	3.385	2.800	2.653	2.317	2.543	2.291	2.156	1.944	2.169	2.193	2.140	2.107	2.283	2.323	2.355	2.083	2.252	2.191	2.291	2.239	2.023	2.053	2.150	2.058	2.064	2.106	2.050	2.178	1.949	2.170	2.002	2.070	1.994	2.014
415.0	293.6	384.2	427.4	433.2	452.2	440.0	450.6	449.5	432.2	423.7	424.6	411.6	386.4	366.4	336.8	317.8	314.8	304.7	302.2	295.7	281.4	270.6	259.0	244.0	228.9	209.1	193.2	183.9	196.2	178.9	114.0	80.56	64.12	52.90	54.31	147.2	606.6	1732	5106	9999.9	2011	27.63	6.233	4.468	3.698	3.039	2.540	2.687	2.564	2.109	2.182	2.184	2.156	2.204	2.168	2.284	2.291	2.402	2.219	2.279	2.199	2.417	2.169	2.001	2.249	2.017	2.026	1.981	1.956	1.897	1.954	2.221	1.877	1.877	1.993	1.852	2.113
420.0	284.0	372.2	419.3	434.5	441.4	437.5	444.4	440.8	434.3	420.3	419.0	402.6	381.2	357.0	329.2	310.8	304.2	299.8	295.2	287.9	279.3	267.9	257.9	244.6	230.7	212.9	194.0	179.3	179.5	191.6	145.2	90.78	70.13	55.36	45.32	58.10	154.1	401.3	1264	6180	9728	1686	20.88	5.786	4.271	3.468	2.858	2.792	2.560	2.155	2.124	2.351	2.248	2.233	2.153	2.393	2.195	2.312	2.240	2.342	2.079	2.331	2.283	2.146	2.148	2.186	2.077	1.979	2.007	1.970	1.995	2.023	1.831	1.925	1.879	1.759	2.048
425.0	283.0	375.8	417.1	425.5	436.6	432.2	436.8	438.1	432.9	424.8	415.0	400.0	370.7	349.7	318.0	303.6	294.1	291.3	291.6	280.8	274.5	265.5	255.5	242.2	231.2	212.9	196.3	181.8	169.1	176.4	172.8	112.3	76.56	60.12	46.51	40.31	55.45	106.2	296.8	1639	7247	8797	275.1	14.17	5.215	3.736	3.096	2.920	2.577	2.094	2.219	2.221	2.297	2.405	2.305	2.246	2.218	2.360	2.266	2.420	2.027	2.240	2.310	2.061	2.035	2.045	1.964	1.990	1.877	1.813	1.900	1.888	1.941	2.153	1.839	1.794	1.951
430.0	399.1	368.9	403.4	423.9	429.2	421.7	434.5	428.4	427.8	421.4	413.3	390.5	362.9	337.7	308.3	292.1	285.1	284.3	281.5	272.5	265.1	261.8	254.0	242.7	228.7	215.2	200.7	185.1	170.1	161.3	163.0	144.9	98.11	67.69	52.45	41.57	37.39	43.26	81.43	378.9	1877	5728	7800	3088	20.58	5.618	3.930	3.581	2.864	2.438	2.104	2.456	2.265	2.278	2.241	2.296	2.544	2.342	2.171	2.300	2.166	2.306	2.145	2.212	2.032	2.110	2.121	1.954	1.875	1.709	1.898	1.823	1.836	1.961	1.841	1.802	1.849
435.0	865.6	351.5	392.2	408.6	416.5	414.1	429.6	417.8	418.7	424.6	410.8	381.4	356.1	330.8	300.5	278.8	275.3	273.4	268.9	261.8	260.2	252.1	246.5	239.5	228.8	216.4	201.0	186.9	175.6	160.2	146.9	145.5	129.7	85.09	59.89	46.39	37.59	32.78	36.21	98.91	429.8	1304	3730	9927	2010	27.75	5.819	4.704	3.398	2.757	2.311	2.367	2.435	2.425	2.233	2.553	2.613	2.481	2.458	2.438	2.203	2.300	2.210	2.156	1.982	1.970	2.037	1.847	1.707	1.867	1.737	1.722	1.746	1.844	1.729	1.757	1.769
440.0	1227	512.1	386.7	397.3	405.0	406.0	419.9	421.7	416.0	412.3	404.0	375.9	352.3	316.3	294.1	272.9	266.8	264.5	261.6	253.0	251.5	245.9	241.8	234.2	224.2	213.6	197.1	188.5	176.0	161.4	143.9	133.6	135.4	106.3	68.03	50.52	40.35	33.29	29.29	38.55	108.7	302.0	905.0	5518	9719	1728	20.45	5.947	4.138	3.176	2.751	2.636	2.467	2.436	2.544	2.366	2.573	2.518	2.300	2.434	2.318	2.394	2.220	1.968	2.146	1.974	2.140	1.883	1.900	1.901	1.834	1.676	1.650	1.731	1.920	1.708	1.787
445.0	1281	970.8	375.3	385.5	396.8	401.1	403.6	407.0	415.8	396.9	405.5	369.7	344.2	310.9	288.8	269.6	256.7	254.8	247.4	244.4	240.7	236.7	234.0	226.8	219.8	208.3	198.4	188.0	174.5	163.9	144.5	129.6	125.1	119.3	83.42	56.31	43.97	34.82	29.08	26.62	38.23	79.58	214.3	1411	6752	8778	1226	16.79	5.400	3.658	3.114	2.973	2.627	2.546	2.484	2.238	2.534	2.559	2.432	2.546	2.206	2.320	2.183	1.803	2.131	2.114	2.043	1.952	1.933	1.785	1.798	1.623	1.774	1.822	1.788	1.636	1.741
450.0	748.8	1692	640.3	365.2	372.4	377.2	390.0	394.1	403.4	388.1	385.0	359.8	328.0	300.7	270.6	252.4	241.5	238.7	235.0	229.1	224.4	224.8	222.1	215.5	211.0	201.0	193.6	183.9	172.6	162.5	144.5	126.9	110.7	109.2	101.3	69.34	49.95	39.06	32.04	26.62	25.21	31.25	59.85	325.8	1708	5158	7702	3292	19.15	5.214	3.684	3.438	2.844	2.706	2.554	2.333	2.594	2.531	2.434	2.205	2.239	2.295	2.203	2.050	2.067	1.951	1.839	1.930	1.879	1.775	1.784	1.675	1.642	1.722	1.560	1.680	1.818
455.0	348.0	1548	1630	390.1	343.1	352.3	355.1	372.8	382.3	374.4	363.5	341.7	314.0	281.7	252.9	234.3	222.7	218.2	217.4	213.0	208.6	208.1	206.0	202.4	194.5	188.6	181.2	174.7	165.0	158.2	142.3	123.7	107.3	96.34	95.21	87.61	60.01	42.62	34.82	27.83	23.74	22.24	25.89	83.18	389.9	1168	3077	8885	1724	22.80	5.138	3.969	3.388	2.929	2.576	2.509	2.580	2.395	2.648	2.181	2.056	2.332	2.175	2.140	2.013	1.933	1.822	1.843	1.865	1.595	1.675	1.725	1.665	1.635	1.404	1.569	1.834
460.0	238.7	885.3	2316	645.7	322.9	337.0	337.9	360.7	354.8	355.3	343.7	327.8	294.5	267.0	239.4	220.5	208.8	207.8	202.6	199.7	196.8	194.1	191.8	189.3	185.8	180.7	173.0	166.6	160.2	152.6	136.3	121.2	105.7	92.07	83.00	86.23	71.03	48.02	36.76	29.88	24.49	21.03	19.34	30.35	96.89	269.5	723.1	4306	8233	1414	18.76	5.669	3.961	3.599	2.847	2.727	2.696	2.321	2.393	2.168	2.168	2.329	2.060	2.196	1.947	1.897	1.733	1.776	1.982	1.678	1.712	1.511	1.451	1.619	1.259	1.473	1.606
465.0	211.6	428.6	2174	1366	310.8	323.8	325.7	345.2	340.7	336.1	333.2	314.8	283.7	255.2	224.6	208.9	198.1	195.9	189.6	186.3	183.4	182.7	178.6	179.0	174.3	170.2	163.0	158.7	152.0	145.2	133.3	117.3	103.7	88.24	78.78	76.46	76.16	56.36	38.90	31.33	26.13	21.59	18.71	19.21	32.34	69.39	170.2	1059	5288	7425	1184	17.75	4.937	4.218	3.371	3.012	2.803	2.566	2.419	2.197	2.233	2.195	2.057	1.869	1.885	1.784	1.815	1.622	1.808	1.581	1.585	1.640	1.403	1.486	1.258	1.483	1.575
470.0	216.4	267.6	1091	2301	702.1	291.4	298.1	314.9	317.1	312.3	308.3	288.6	260.5	234.6	209.6	190.0	181.8	176.5	169.5	168.0	165.8	164.6	163.3	160.9	157.6	154.9	149.0	144.4	141.0	133.9	124.6	110.6	97.05	83.76	73.86	65.99	66.50	62.71	46.04	32.56	27.04	22.32	19.23	17.43	18.37	25.07	46.26	244.4	1308	4018	5648	2794	94.13	5.804	3.900	3.320	3.050	2.705	2.522	2.159	2.158	2.281	2.057	1.942	1.880	1.772	1.698	1.588	1.652	1.509	1.537	1.429	1.464	1.393	1.252	1.293	1.368
475.0	207.7	231.8	430.6	1789	1917	320.8	269.1	281.8	285.4	285.2	284.0	263.1	243.5	212.0	189.6	169.0	164.7	157.0	151.3	148.2	148.0	144.8	145.2	144.5	141.9	139.6	134.8	132.0	127.8	124.2	114.3	101.7	90.38	81.22	69.47	60.96	55.51	55.62	52.70	38.59	28.24	22.81	20.35	17.05	15.55	15.39	18.62	61.78	297.8	903.7	1901	5710	1788	28.21	5.319	3.535	3.208	2.774	2.387	2.081	2.046	2.007	1.779	1.826	1.688	1.627	1.603	1.642	1.529	1.408	1.461	1.292	1.368	1.200	1.048	1.018	1.351
480.0	196.4	221.0	258.0	930.9	2664	548.9	257.2	271.0	272.4	264.8	263.1	247.2	228.2	196.8	179.2	160.5	151.3	142.7	142.5	136.3	134.1	135.2	134.7	133.1	130.3	129.0	125.4	123.9	119.9	115.9	109.4	97.95	86.99	76.48	67.37	57.66	52.20	48.74	51.11	44.75	30.81	23.92	20.55	17.39	15.40	13.66	12.75	21.46	73.02	207.4	438.1	2333	5993	1710	24.26	4.938	3.633	3.153	2.606	2.366	2.077	2.110	1.875	1.738	1.546	1.540	1.484	1.477	1.475	1.525	1.335	1.306	1.314	1.146	1.187	1.089	1.056
485.0	170.8	224.9	223.6	416.5	2359	1512	257.8	254.7	257.1	257.8	254.1	240.2	214.1	190.3	168.3	150.7	142.1	135.6	132.5	126.6	127.0	125.0	125.8	124.6	123.7	121.2	116.3	115.8	113.4	108.6	104.2	92.32	83.47	73.55	64.80	56.21	50.40	45.50	45.06	46.86	35.34	25.01	20.78	18.01	15.69	13.77	12.16	12.78	23.23	52.06	103.3	554.4	3267	6495	1441	19.69	4.669	3.402	2.860	2.375	2.047	2.052	1.920	1.822	1.607	1.442	1.488	1.507	1.389	1.471	1.275	1.202	1.252	1.225	1.198	1.282	1.020
490.0	143.8	228.5	219.7	244.7	1113	2518	678.7	241.6	236.7	244.1	236.5	224.5	198.8	181.2	157.8	143.0	132.3	126.9	123.1	119.3	116.5	114.6	116.0	113.9	113.7	110.1	107.0	106.7	105.3	102.7	97.37	88.00	79.65	69.47	62.23	54.59	48.80	42.45	39.57	40.75	40.20	30.44	21.79	18.55	16.26	13.92	12.76	11.31	12.51	17.40	28.33	129.2	779.9	2933	5272	3489	119.9	6.642	3.648	2.655	2.234	2.324	1.999	1.834	1.607	1.453	1.513	1.488	1.256	1.402	1.229	1.152	1.223	1.146	1.120	1.136	1.069
495.0	120.2	187.9	234.5	201.0	397.6	1881	1977	266.3	217.6	225.7	220.4	205.8	184.2	163.8	143.0	129.8	119.4	115.1	110.3	107.8	105.3	104.8	104.4	102.9	100.2	99.87	97.20	97.37	96.46	93.34	88.27	81.12	73.34	66.49	59.12	52.23	46.56	41.48	36.59	33.88	36.07	35.22	25.81	19.47	16.85	14.49	12.79	11.30	10.45	10.03	11.87	33.85	178.6	659.1	1696	5688	4657	33.43	5.760	3.308	2.629	2.412	1.907	1.835	1.583	1.351	1.429	1.366	1.148	1.232	1.124	1.092	1.147	1.009	0.997	1.080	1.073
500.0	115.7	153.3	219.0	191.0	224.2	931.8	2761	420.1	200.0	212.4	202.2	192.2	170.3	148.9	134.2	118.6	110.5	105.8	101.9	96.77	95.84	94.78	95.63	93.93	91.16	92.14	89.47	89.37	89.47	87.14	81.84	76.51	67.35	62.68	55.28	49.46	44.60	39.77	35.40	31.53	30.29	33.21	29.27	21.29	16.69	14.60	13.35	11.66	10.10	8.903	8.311	12.81	44.53	151.5	389.1	2153	6876	1958	29.31	4.205	2.958	2.460	1.958	1.676	1.552	1.425	1.400	1.376	1.172	1.170	1.118	1.092	1.023	1.028	0.982	0.927	0.941
505.0	99.36	137.1	200.5	187.1	169.2	380.5	2452	1449	201.9	194.4	187.3	178.4	159.7	139.6	124.5	112.1	101.3	97.71	92.75	90.39	87.76	87.97	86.92	85.47	84.40	84.79	82.90	83.07	83.19	81.72	77.07	71.41	63.86	57.27	51.82	46.37	41.88	37.89	33.28	29.56	27.42	28.85	30.42	24.28	16.92	14.62	13.12	11.37	9.977	8.798	7.743	8.193	14.52	38.49	91.58	502.8	3179	6478	1648	22.15	3.780	2.761	2.149	1.699	1.478	1.377	1.306	1.249	1.186	0.965	1.007	1.020	0.931	1.038	0.935	0.983	0.850
510.0	87.01	112.1	156.5	197.3	156.5	205.4	1136	2713	551.6	176.5	170.1	163.3	143.3	128.5	113.9	100.4	92.13	86.50	84.74	80.73	78.90	77.48	76.96	76.05	75.67	74.51	73.02	73.02	73.71	72.03	68.51	63.92	58.14	52.95	47.25	42.29	38.39	34.51	31.36	27.56	25.05	23.69	26.34	26.60	20.20	15.32	13.12	10.92	9.905	8.474	7.796	7.140	7.775	13.09	24.64	116.5	745.8	2703	4870	2876	122.7	5.719	2.649	1.829	1.623	1.406	1.401	1.310	1.144	1.050	1.044	0.968	0.893	0.888	0.844	0.885	0.824
515.0	87.88	103.0	127.7	179.2	166.0	147.8	372.6	2224	1911	194.1	154.7	142.7	125.8	113.3	99.12	90.62	81.14	78.10	75.24	69.08	69.66	68.07	66.15	66.60	66.56	65.76	63.81	64.44	64.15	63.23	60.13	56.46	51.44	46.65	41.62	37.72	34.26	31.46	28.20	24.87	23.58	21.29	20.35	23.23	22.56	17.08	12.65	10.70	9.292	8.290	7.480	7.054	6.531	7.066	9.712	29.67	169.8	606.3	1491	4363	2069	34.22	4.363	2.113	1.920	1.477	1.390	1.260	1.093	0.945	0.966	0.881	0.770	0.805	0.821	0.728	0.786
520.0	77.62	96.86	103.6	140.7	167.3	128.9	179.1	1088	3020	309.1	140.1	128.7	117.7	103.5	90.52	80.74	75.05	71.04	66.71	63.01	63.48	61.37	59.72	59.30	58.91	58.68	58.68	58.86	57.14	57.72	55.88	51.67	46.58	42.72	37.87	35.26	31.87	28.87	26.00	23.65	21.57	19.81	18.34	19.54	21.15	18.56	13.03	10.75	9.256	8.139	7.001	6.880	6.192	5.810	5.912	10.22	41.36	138.8	340.0	1611	4431	1968	29.61	3.122	2.011	1.556	1.404	1.237	1.138	0.902	0.922	0.805	0.774	0.942	0.725	0.814	0.700
525.0	69.07	81.21	92.97	113.3	163.9	125.6	127.9	400.5	2930	1340	135.8	118.7	109.9	96.54	82.01	74.54	68.60	64.39	61.53	57.86	56.65	54.83	55.50	53.65	53.44	53.65	52.33	53.48	53.28	53.16	50.19	46.43	43.10	39.37	35.50	31.99	29.41	26.97	24.53	21.99	20.52	18.37	17.08	16.76	18.71	19.47	14.84	10.48	8.804	8.117	6.801	6.298	5.888	5.409	5.029	5.747	12.74	34.24	79.42	375.1	2020	5129	1589	20.78	2.568	1.744	1.381	1.158	1.185	0.969	0.932	0.807	0.707	0.826	0.713	0.655	0.678
530.0	54.60	70.10	84.60	91.54	139.2	146.5	107.8	170.9	1386	2739	474.6	107.3	95.37	84.26	74.36	65.48	60.90	55.33	53.83	51.36	49.21	48.20	48.14	47.27	46.71	46.85	45.96	47.05	46.07	46.24	43.86	41.64	38.08	34.97	31.65	28.76	26.23	24.13	22.21	20.16	18.36	16.68	15.46	14.34	14.77	16.26	16.35	12.11	8.963	7.585	6.681	5.860	5.603	5.335	4.752	4.510	5.928	10.61	20.69	86.56	472.2	2062	3565	1697	116.2	3.651	1.638	1.370	1.118	0.924	0.936	0.781	0.628	0.741	0.658	0.624	0.561
535.0	56.87	57.78	74.93	75.73	98.53	145.3	102.4	111.2	401.9	2504	1808	114.4	85.09	73.97	66.50	57.41	52.21	46.96	46.25	44.34	43.00	41.03	42.63	40.89	40.29	39.98	39.66	40.52	40.22	39.37	37.58	36.10	33.13	29.95	27.73	25.31	23.79	21.51	19.84	17.78	16.07	14.60	14.06	12.97	12.22	12.67	14.22	13.88	9.429	7.251	6.268	5.595	5.159	5.047	4.666	4.222	3.992	5.064	7.327	21.57	107.4	462.1	1037	2836	2011	33.39	3.112	1.611	1.209	1.044	0.847	0.808	0.631	0.630	0.622	0.598	0.552
540.0	45.31	58.31	61.84	70.34	71.01	123.6	115.9	92.39	154.7	1226	3345	214.9	74.90	68.03	59.55	51.31	46.61	43.02	41.21	38.93	38.57	37.46	37.13	35.97	35.45	35.62	34.66	35.67	35.05	35.55	33.88	31.99	29.76	26.85	24.32	22.59	20.80	19.39	17.65	16.42	14.50	13.29	13.19	11.90	11.45	10.56	11.59	13.18	10.34	7.177	5.782	5.125	4.715	4.780	4.459	4.026	3.690	3.598	4.055	7.076	26.03	105.2	235.9	1025	3159	1677	28.73	2.257	1.349	1.130	0.920	0.792	0.714	0.575	0.570	0.561	0.613
545.0	41.40	50.94	56.86	55.75	60.16	95.17	121.0	83.17	95.02	419.2	3424	1061	71.15	61.62	53.22	46.27	42.14	38.07	36.29	34.70	33.91	33.40	32.58	31.88	32.39	31.85	31.47	31.04	30.62	32.15	30.80	28.85	26.46	24.00	22.04	20.25	18.28	17.53	16.30	14.82	13.04	12.54	11.62	10.41	10.34	9.133	9.463	10.75	10.69	7.805	5.876	4.804	4.410	4.187	3.737	3.588	3.805	3.148	3.056	3.663	7.861	25.49	54.79	237.7	1364	3038	1238	20.78	1.926	1.304	0.833	0.916	0.757	0.700	0.632	0.509	0.557
550.0	35.65	44.07	49.42	49.39	51.97	67.11	115.9	84.34	71.38	148.6	1588	2789	262.2	52.89	45.24	39.01	36.02	32.10	30.94	29.46	28.40	27.47	27.51	26.54	26.80	26.62	26.86	26.04	26.30	26.59	25.49	24.22	22.22	20.57	18.74	16.93	15.90	14.73	13.88	12.67	11.47	10.80	9.919	9.023	8.825	7.940	7.558	7.976	9.153	8.234	6.116	4.563	3.992	3.762	3.380	3.218	3.296	3.141	2.637	2.477	3.517	7.455	14.04	54.85	316.7	1175	2179	1169	116.5	3.099	1.020	0.892	0.639	0.686	0.581	0.521	0.402
555.0	29.33	40.06	44.51	40.87	45.80	48.70	82.41	104.4	60.10	76.79	422.4	2724	1258	50.66	38.44	33.53	29.41	26.84	25.82	24.87	23.53	23.16	21.83	21.94	21.40	21.70	22.27	21.25	22.27	21.45	20.74	19.61	18.49	16.50	15.48	14.42	13.72	12.36	11.12	10.50	9.157	8.854	8.394	8.020	7.575	7.167	6.413	6.208	6.704	7.372	6.512	4.499	3.605	3.179	2.885	2.889	2.852	2.647	2.592	2.181	2.196	3.168	4.687	13.68	71.98	263.4	606.4	1824	1729	34.68	2.337	1.163	0.782	0.804	0.544	0.478	0.418
560.0	33.53	34.20	37.17	37.29	39.83	37.66	53.42	107.1	58.84	54.85	135.1	1394	2741	125.2	33.77	28.40	24.59	23.38	21.51	21.01	19.19	20.12	19.48	18.70	18.71	18.08	18.71	18.37	17.82	18.31	17.28	16.74	15.79	14.81	13.18	12.27	11.37	10.43	9.910	9.107	8.268	7.705	7.292	6.723	6.509	6.054	5.593	5.132	5.134	5.676	6.080	4.665	3.523	3.077	2.586	2.551	2.448	2.273	2.364	2.118	1.787	2.147	2.278	4.269	17.33	60.15	137.5	636.5	2057	1249	28.75	1.620	0.925	0.742	0.619	0.560	0.431
565.0	28.76	29.96	31.40	32.15	32.29	33.66	41.10	88.72	68.68	43.38	66.36	455.2	3171	702.6	30.62	24.81	21.79	20.81	19.52	18.52	16.82	17.07	16.32	15.97	15.77	15.20	16.12	16.14	15.71	15.68	14.70	14.05	13.29	12.58	10.83	10.27	9.753	9.094	8.724	8.152	7.194	6.557	6.181	6.060	5.703	5.264	4.983	4.417	4.002	4.470	5.191	4.593	3.422	2.764	2.588	2.235	2.125	2.026	2.049	2.139	1.706	1.674	1.740	2.068	4.921	14.63	31.98	146.4	809.2	1954	845.8	19.72	1.131	0.924	0.570	0.448	0.411
570.0	29.42	33.23	34.57	30.58	29.13	29.78	32.41	59.57	86.54	44.10	47.42	137.7	1649	2387	87.25	21.71	18.77	16.96	16.26	15.05	14.42	13.96	13.37	13.48	13.01	12.83	12.60	13.02	12.67	12.99	12.17	11.31	11.01	9.699	9.369	8.759	8.202	7.557	6.842	6.717	5.995	5.702	5.325	5.061	4.795	4.572	4.182	3.922	3.459	3.388	3.634	3.986	3.625	2.820	2.237	2.041	1.835	1.781	1.699	1.711	1.859	1.693	1.517	1.481	2.100	4.281	8.163	33.99	187.0	718.8	1314	788.9	101.8	2.524	0.701	0.527	0.430
575.0	28.36	35.66	37.71	35.14	27.02	24.34	23.74	35.33	79.60	62.28	42.01	63.59	437.0	2712	848.4	21.63	15.78	13.95	13.42	12.55	12.03	11.22	11.12	11.06	10.40	10.58	9.964	10.71	10.38	10.08	9.891	9.462	9.137	8.227	7.584	7.097	6.589	6.104	5.719	5.409	5.052	4.549	4.518	4.010	3.855	3.454	3.496	3.119	3.170	2.688	2.690	3.018	3.611	3.085	2.138	1.829	1.675	1.616	1.540	1.574	1.433	1.642	1.579	1.281	1.375	1.838	2.752	8.584	42.60	161.1	354.0	1041	1066	34.83	1.646	0.695	0.496
580.0	33.49	43.20	41.76	35.98	24.98	22.50	22.48	27.39	63.86	76.69	42.07	45.95	127.4	1518	2228	62.94	14.46	12.41	11.88	10.49	10.32	9.733	9.266	9.333	9.441	8.902	8.737	8.810	9.116	8.839	8.487	8.128	7.722	6.951	6.235	6.095	5.390	4.968	5.067	4.543	4.161	3.896	3.674	3.551	3.298	3.060	3.097	2.921	2.697	2.421	2.393	2.299	2.910	2.812	2.475	1.623	1.301	1.447	1.448	1.390	1.268	1.593	1.826	1.243	1.142	1.290	1.576	2.902	10.47	36.84	80.24	344.3	1193	881.0	27.51	1.115	0.544
585.0	29.13	45.03	44.69	37.34	25.89	23.23	21.66	23.75	43.56	86.31	47.22	43.12	56.41	504.8	2844	383.7	13.62	11.05	10.15	9.533	8.727	8.147	7.980	7.993	8.286	7.692	7.630	7.459	7.772	7.668	7.226	6.959	6.581	5.901	5.543	5.085	4.633	4.500	4.471	3.914	3.775	3.464	3.328	2.993	3.057	2.856	2.609	2.481	2.346	2.038	1.962	1.783	2.164	2.734	2.575	1.769	1.335	1.221	1.253	1.253	0.991	1.320	1.611	1.251	1.019	0.953	1.050	1.468	3.087	9.021	18.88	79.20	452.7	1264	290.2	18.69	0.747
590.0	28.86	46.73	49.16	38.87	23.28	19.30	17.87	22.04	31.04	71.87	63.64	41.29	40.84	139.6	1560	1493	48.52	9.843	8.954	7.942	7.263	6.769	6.657	6.458	6.342	6.361	6.189	6.289	6.420	6.333	5.865	5.890	5.288	4.974	4.712	4.273	3.989	3.764	3.697	3.215	3.274	2.830	2.850	2.684	2.508	2.441	2.334	2.030	1.989	1.733	1.719	1.462	1.499	1.957	2.249	1.832	1.322	1.192	1.017	1.077	0.943	1.076	1.159	1.099	1.126	0.901	0.860	0.953	1.355	2.697	4.935	18.39	103.8	437.4	783.8	549.8	23.44
595.0	29.25	44.67	49.85	35.21	23.21	17.36	16.12	18.97	26.77	45.35	81.47	42.79	36.76	53.11	404.0	2116	517.9	9.589	7.797	6.961	6.414	5.484	5.597	5.343	5.223	5.193	4.936	5.081	4.988	5.018	4.888	4.619	4.423	4.176	3.731	3.503	3.408	2.971	2.942	2.927	2.559	2.479	2.287	2.266	2.079	1.978	1.906	1.735	1.662	1.395	1.381	1.172	1.252	1.320	1.782	1.827	1.497	1.022	0.976	0.795	0.799	0.907	0.934	0.874	1.080	1.023	0.758	0.689	0.820	1.234	1.657	4.611	23.55	98.13	205.9	614.9	682.4
600.0	35.89	45.31	49.30	34.03	22.78	17.58	15.92	16.95	23.67	34.70	83.51	50.61	35.44	32.49	104.6	1309	1406	28.54	7.045	6.048	5.648	5.205	4.744	4.859	4.684	4.261	4.319	4.423	4.255	4.110	4.022	3.816	3.828	3.447	3.201	3.083	2.793	2.574	2.460	2.250	2.135	2.048	2.010	1.983	1.757	1.775	1.763	1.506	1.544	1.282	1.278	1.133	1.025	1.022	1.345	1.498	1.507	1.128	0.828	0.686	0.855	0.787	0.831	0.791	0.914	1.103	0.863	0.669	0.681	0.784	0.816	1.501	5.681	22.31	46.71	192.3	713.5
605.0	33.46	43.32	46.58	37.36	19.72	16.22	16.01	18.07	22.77	28.61	71.31	64.15	38.20	27.56	36.59	459.6	1967	89.80	6.555	5.692	4.798	4.977	4.666	3.972	3.917	3.952	4.038	3.837	3.893	3.455	3.518	3.278	3.500	3.141	2.866	2.605	2.359	2.238	2.152	1.927	1.878	1.841	1.738	1.666	1.586	1.522	1.503	1.277	1.347	1.120	1.075	0.983	0.992	0.914	1.036	1.293	1.456	1.229	0.801	0.690	0.736	0.705	0.800	0.734	0.736	0.928	0.834	0.715	0.573	0.691	0.635	0.702	1.704	5.375	10.91	43.95	255.7
610.0	29.93	43.13	45.49	35.72	19.37	14.73	14.52	15.66	20.20	26.87	51.81	74.02	41.94	25.98	20.32	116.7	1226	1009	27.11	5.343	4.120	4.103	3.787	3.415	3.328	3.366	3.229	2.989	3.149	3.118	3.020	2.793	2.749	2.547	2.400	2.237	2.177	1.888	1.909	1.689	1.570	1.535	1.392	1.447	1.319	1.330	1.256	1.245	1.147	1.019	0.933	0.816	0.831	0.750	0.839	0.946	1.118	1.111	0.996	0.731	0.633	0.695	0.648	0.603	0.618	0.683	0.744	0.754	0.564	0.582	0.506	0.524	0.725	1.545	2.760	10.19	58.27
615.0	29.59	40.51	41.94	31.70	19.20	12.78	13.66	14.81	20.33	26.74	41.69	65.33	50.83	26.11	15.88	33.86	332.9	1609	317.1	5.142	3.809	3.476	3.282	3.088	2.845	2.780	2.671	2.649	2.592	2.620	2.469	2.277	2.462	2.230	1.863	1.876	1.886	1.587	1.596	1.447	1.198	1.253	1.254	1.213	1.095	1.021	1.010	0.939	0.895	0.910	0.788	0.652	0.732	0.725	0.684	0.689	0.806	0.961	0.954	0.833	0.652	0.640	0.535	0.548	0.492	0.564	0.614	0.657	0.643	0.563	0.426	0.385	0.422	0.628	0.930	2.512	13.35
620.0	26.41	39.27	40.47	34.14	16.99	11.58	12.95	13.49	18.27	24.98	39.87	51.28	60.18	28.28	15.30	15.69	83.11	1108	992.3	11.85	3.848	3.262	2.673	2.787	2.536	2.373	2.253	2.157	2.257	2.081	2.317	2.202	2.076	1.894	1.739	1.557	1.678	1.416	1.487	1.424	1.220	0.990	1.061	0.955	0.874	0.946	0.916	0.909	0.821	0.763	0.681	0.622	0.605	0.605	0.609	0.606	0.593	0.770	0.864	0.883	0.539	0.551	0.544	0.509	0.545	0.461	0.566	0.474	0.590	0.669	0.413	0.325	0.482	0.476	0.425	0.742	3.209
625.0	23.48	35.21	38.20	29.47	17.98	12.85	11.69	13.27	17.31	25.02	38.46	42.36	63.01	32.59	15.67	11.09	24.36	419.2	1566	62.89	3.816	3.018	2.560	2.561	2.231	2.128	2.077	1.995	1.921	1.927	1.720	1.862	1.689	1.509	1.504	1.420	1.430	1.264	1.336	1.181	0.969	0.880	0.899	0.933	0.910	0.809	1.000	0.876	0.767	0.678	0.632	0.563	0.601	0.526	0.534	0.527	0.502	0.666	0.778	0.749	0.601	0.627	0.476	0.411	0.489	0.432	0.515	0.397	0.499	0.610	0.433	0.302	0.390	0.389	0.390	0.398	0.992
630.0	24.04	37.26	39.84	27.20	17.04	11.77	12.72	13.42	18.49	22.08	35.60	36.84	50.93	42.05	16.94	10.28	10.81	104.3	1092	758.7	13.75	2.745	2.272	2.237	1.936	1.904	1.708	1.713	1.675	1.627	1.458	1.520	1.470	1.286	1.377	1.176	1.205	1.110	1.037	0.986	0.953	0.774	0.733	0.767	0.699	0.752	0.765	0.717	0.699	0.661	0.548	0.506	0.510	0.484	0.443	0.433	0.464	0.520	0.500	0.574	0.556	0.553	0.467	0.407	0.441	0.403	0.400	0.370	0.516	0.544	0.556	0.389	0.366	0.315	0.308	0.322	0.452
635.0	21.42	33.01	34.86	25.07	16.77	12.16	11.39	13.07	18.33	23.36	34.58	33.35	38.81	48.09	20.55	9.760	7.156	27.01	308.2	1334	69.56	3.220	2.189	1.973	1.762	1.616	1.580	1.597	1.400	1.453	1.413	1.346	1.243	1.065	1.073	1.110	0.949	0.907	0.829	0.739	0.719	0.766	0.769	0.618	0.595	0.629	0.574	0.698	0.569	0.599	0.527	0.518	0.410	0.384	0.398	0.387	0.406	0.468	0.330	0.477	0.503	0.541	0.436	0.433	0.362	0.336	0.360	0.418	0.425	0.484	0.387	0.467	0.325	0.273	0.265	0.251	0.237
640.0	20.86	30.22	32.78	23.43	14.21	11.46	10.10	11.11	16.92	20.67	31.83	32.42	32.11	44.13	25.65	9.903	6.281	9.316	74.99	996.5	511.8	6.759	2.169	1.728	1.658	1.488	1.505	1.281	1.379	1.403	1.331	1.187	1.205	0.903	1.070	0.866	0.925	0.901	0.859	0.887	0.694	0.779	0.730	0.563	0.529	0.548	0.614	0.555	0.493	0.413	0.482	0.432	0.407	0.370	0.427	0.335	0.363	0.450	0.391	0.375	0.441	0.611	0.416	0.428	0.454	0.322	0.318	0.318	0.443	0.371	0.367	0.442	0.405	0.287	0.188	0.214	0.156
645.0	21.76	32.12	32.45	24.05	14.97	10.31	10.64	11.50	17.02	20.00	30.69	31.12	30.35	35.33	31.86	10.33	6.061	4.886	20.04	414.8	1087	44.50	2.514	1.700	1.552	1.385	1.370	1.304	1.242	1.189	1.197	1.127	1.152	0.969	0.955	0.863	0.974	0.914	0.726	0.780	0.728	0.588	0.633	0.507	0.442	0.512	0.540	0.504	0.435	0.459	0.407	0.369	0.352	0.382	0.477	0.281	0.378	0.403	0.389	0.355	0.341	0.502	0.403	0.433	0.369	0.357	0.338	0.327	0.322	0.379	0.267	0.296	0.414	0.333	0.304	0.232	0.170
650.0	22.40	31.38	33.45	23.75	15.35	10.57	10.00	12.93	16.71	19.79	28.30	30.25	28.06	29.81	31.88	12.15	5.527	3.853	6.905	112.1	1083	312.8	2.685	1.778	1.569	1.365	1.259	1.211	1.157	1.145	1.079	1.082	1.018	1.105	0.996	0.939	0.859	0.914	0.756	0.624	0.523	0.752	0.720	0.517	0.459	0.409	0.412	0.556	0.462	0.485	0.433	0.391	0.314	0.328	0.339	0.296	0.359	0.280	0.397	0.359	0.313	0.408	0.473	0.328	0.394	0.312	0.325	0.359	0.324	0.311	0.284	0.294	0.335	0.354	0.287	0.191	0.151
