Sample:	'1
File name:	013806  20±¶.FD3
Run date:	'16:43:16, 02/20/2024
Operator:	Administrator
Comment:	'

Instrument
Model:	F-2700 FL Spectrophotometer
Serial number:	23B8-004
ROM Version:	4J14000 07

Instrument parameters
Measurement type:	3-D scan
Data mode:	Fluorescence
EX  Start WL:	220.0 nm
EX  End WL:	600.0 nm
EX Sampling interval:	5.0 nm
EM  Start WL:	230.0 nm
EM  End WL:	650.0 nm
EM Sampling interval:	5.0 nm
Scan speed:	12000 nm/min
EX Slit:	5.0 nm
EM Slit:	5.0 nm
PMT Voltage:	700 V
Response:	Auto 
Corrected spectra:	Off
Contour interval:	50.000

Peak integration
Integration method:	Rectangular
Sensitivity:	1
Threshold:	1.000

Peaks
No.	ApexEX/EM(nm)	Height(Data)
1	225.0/350.0	2628
2	225.0/400.0	2463
3	225.0/410.0	2447
4	240.0/265.0	238.7
5	245.0/270.0	267.4
6	250.0/275.0	404.3
7	255.0/280.0	581.9
8	255.0/415.0	1915
9	260.0/570.0	155.8
10	265.0/585.0	181.4
11	270.0/595.0	217.7
12	275.0/305.0	3445
13	275.0/340.0	3537
14	275.0/605.0	218.0
15	280.0/345.0	3523
16	280.0/620.0	176.9
17	505.0/275.0	2.678
18	510.0/280.0	3.031
19	545.0/300.0	13.91
20	555.0/305.0	15.98
21	560.0/310.0	16.22
22	560.0/340.0	16.29
23	565.0/345.0	15.92
24	570.0/355.0	15.66

Data points
	220.0	225.0	230.0	235.0	240.0	245.0	250.0	255.0	260.0	265.0	270.0	275.0	280.0	285.0	290.0	295.0	300.0	305.0	310.0	315.0	320.0	325.0	330.0	335.0	340.0	345.0	350.0	355.0	360.0	365.0	370.0	375.0	380.0	385.0	390.0	395.0	400.0	405.0	410.0	415.0	420.0	425.0	430.0	435.0	440.0	445.0	450.0	455.0	460.0	465.0	470.0	475.0	480.0	485.0	490.0	495.0	500.0	505.0	510.0	515.0	520.0	525.0	530.0	535.0	540.0	545.0	550.0	555.0	560.0	565.0	570.0	575.0	580.0	585.0	590.0	595.0	600.0
230.0	30.49	919.2	1886	515.1	18.59	3.544	2.739	2.382	2.308	2.359	2.296	2.336	2.365	1.842	1.599	1.180	1.034	0.844	0.870	0.711	0.701	0.763	0.586	0.577	0.502	0.443	0.400	0.424	0.345	0.346	0.309	0.274	0.261	0.250	0.198	0.217	0.204	0.153	0.156	0.157	0.215	0.321	0.308	0.186	0.127	0.139	0.814	4.036	7.189	4.909	1.669	0.276	0.078	0.051	0.061	0.054	0.039	0.051	0.050	0.041	0.036	0.032	0.036	0.022	0.036	0.028	0.032	0.024	0.023	0.032	0.032	0.021	0.003	0.034	0.039	0.015	0.010
235.0	78.54	247.4	1175	1823	439.7	34.40	3.978	3.846	2.896	3.110	2.858	2.750	2.296	2.006	1.853	1.303	0.912	1.016	0.831	0.758	0.896	0.691	0.603	0.618	0.544	0.478	0.460	0.363	0.326	0.397	0.393	0.251	0.256	0.278	0.241	0.224	0.165	0.176	0.128	0.211	0.147	0.199	0.277	0.422	0.292	0.195	0.236	1.044	2.552	4.408	6.105	6.828	3.159	0.690	0.097	0.072	0.015	0.056	0.044	0.033	0.013	0.042	0.053	0.038	0.029	0.075	0.029	0.037	0.021	0.043	0.024	0.020	0.024	0.018	0.038	0.009	0.007
240.0	112.8	112.9	344.0	1501	1924	362.7	16.14	3.867	3.487	4.119	3.186	2.632	2.534	2.156	1.603	1.462	1.004	1.115	0.943	0.667	0.925	0.745	0.713	0.534	0.561	0.512	0.499	0.479	0.418	0.402	0.390	0.237	0.332	0.248	0.201	0.183	0.177	0.175	0.150	0.141	0.117	0.112	0.107	0.364	0.365	0.462	0.328	0.336	0.617	1.257	3.023	7.834	10.80	7.268	2.476	0.344	0.049	0.097	0.063	0.051	0.071	0.039	0.081	0.079	0.027	0.064	0.043	0.041	0.038	0.017	0.026	0.025	0.007	0.020	0.034	0.000	0.025
245.0	70.58	135.0	117.3	497.2	1966	1976	261.4	8.259	3.928	4.331	4.022	3.248	2.658	2.183	1.851	1.881	1.056	1.025	0.960	0.902	0.788	0.793	0.679	0.672	0.580	0.377	0.406	0.445	0.425	0.450	0.311	0.307	0.286	0.184	0.192	0.160	0.208	0.151	0.139	0.099	0.176	0.141	0.109	0.200	0.190	0.410	0.551	0.395	0.292	0.351	0.793	2.494	6.463	11.65	12.17	6.643	1.567	0.122	0.081	0.107	0.084	0.047	0.037	0.043	0.051	0.049	0.037	0.043	0.037	0.013	0.051	0.065	0.045	0.031	0.033	0.033	0.022
250.0	22.35	90.12	155.0	169.8	599.4	1752	2340	928.7	53.11	5.379	4.466	3.623	3.197	2.448	1.789	1.821	1.356	1.052	1.089	0.814	0.716	0.764	0.701	0.662	0.631	0.527	0.536	0.394	0.460	0.385	0.335	0.293	0.294	0.210	0.214	0.207	0.211	0.187	0.156	0.129	0.184	0.122	0.138	0.183	0.137	0.248	0.307	0.473	0.583	0.494	0.438	0.665	1.587	3.524	6.795	10.52	13.12	11.86	6.647	1.683	0.183	0.054	0.052	0.060	0.072	0.046	0.058	0.058	0.062	0.031	0.035	0.038	0.053	0.031	0.028	0.038	0.038
255.0	13.22	27.99	97.57	204.1	195.0	428.4	1551	3616	1320	47.22	5.244	4.729	3.867	3.202	1.873	1.773	1.476	1.346	1.233	0.865	0.914	0.685	0.634	0.672	0.603	0.679	0.438	0.437	0.501	0.417	0.346	0.327	0.216	0.233	0.268	0.213	0.133	0.175	0.212	0.148	0.140	0.158	0.136	0.139	0.113	0.130	0.143	0.178	0.264	0.600	0.843	0.885	0.684	0.870	1.642	2.543	4.509	11.01	20.63	21.22	10.36	1.726	0.088	0.082	0.055	0.084	0.078	0.071	0.052	0.056	0.048	0.035	0.038	0.026	0.067	0.056	0.032
260.0	13.79	13.52	36.82	165.4	218.8	136.1	438.7	2537	4289	235.8	24.12	6.018	5.349	3.802	2.677	1.788	1.824	1.505	1.277	0.970	0.878	0.790	0.746	0.734	0.625	0.675	0.626	0.481	0.466	0.439	0.379	0.355	0.236	0.223	0.283	0.204	0.194	0.174	0.204	0.168	0.208	0.174	0.142	0.161	0.176	0.101	0.150	0.100	0.140	0.261	0.511	1.244	1.157	0.689	0.580	0.656	1.152	2.897	8.382	18.85	27.39	20.97	7.426	0.756	0.091	0.185	0.103	0.115	0.072	0.055	0.040	0.028	0.034	0.031	0.016	0.042	0.039
265.0	36.42	20.01	18.88	70.42	238.7	171.0	127.6	779.7	3900	4259	189.3	11.16	6.444	4.199	3.378	2.603	1.975	1.605	1.331	0.997	0.942	1.035	0.795	0.741	0.682	0.837	0.614	0.480	0.480	0.453	0.441	0.453	0.321	0.292	0.334	0.237	0.262	0.252	0.189	0.256	0.236	0.281	0.224	0.231	0.185	0.109	0.154	0.105	0.126	0.158	0.164	0.583	1.205	1.406	1.070	0.441	0.399	0.790	2.100	5.294	14.22	27.69	30.02	17.81	3.882	0.308	0.110	0.095	0.085	0.056	0.031	0.076	0.070	0.106	0.029	0.036	0.035
270.0	196.2	85.56	35.28	37.13	120.4	267.4	236.1	265.7	1190	3604	5014	738.9	43.20	6.300	4.450	3.296	2.155	1.735	1.569	1.234	1.179	1.107	0.977	0.829	0.692	0.715	0.644	0.555	0.530	0.436	0.459	0.432	0.457	0.584	0.600	0.658	0.600	0.672	0.705	0.682	0.807	0.944	0.781	0.791	0.650	0.434	0.340	0.263	0.193	0.192	0.153	0.236	0.440	0.763	1.272	1.615	1.432	0.841	0.877	1.583	3.641	7.871	14.73	23.90	26.76	26.16	12.59	3.755	0.347	0.102	0.066	0.067	0.074	0.112	0.059	0.051	0.063
275.0	450.7	217.4	98.47	54.04	73.61	159.2	404.3	341.0	432.3	976.3	2935	7110	1036	40.49	7.157	4.510	2.835	2.248	1.848	1.513	1.610	1.164	1.149	0.785	0.990	0.850	0.740	0.663	0.589	0.550	0.503	0.562	0.798	0.991	1.115	1.167	1.107	1.470	1.464	1.422	1.514	1.748	1.782	1.452	1.422	1.048	0.781	0.567	0.404	0.319	0.263	0.280	0.296	0.460	0.602	1.017	1.856	2.678	2.035	1.403	1.615	2.505	3.991	6.101	8.151	17.89	36.17	31.03	19.16	3.710	0.296	0.178	0.103	0.142	0.105	0.110	0.140
280.0	655.1	356.2	178.5	91.59	79.85	120.9	311.5	581.9	350.0	425.2	902.4	4638	7159	741.2	21.83	6.246	3.672	2.970	2.122	1.693	1.668	1.581	1.163	1.003	0.945	0.886	0.878	0.743	0.552	0.508	0.672	0.641	0.840	1.292	1.354	1.453	1.688	1.864	1.866	2.245	2.283	2.197	2.263	2.066	1.770	1.472	1.022	0.924	0.716	0.553	0.384	0.345	0.311	0.423	0.533	0.698	1.108	2.017	3.031	2.974	2.072	1.741	1.913	2.292	2.665	4.938	12.41	26.95	45.66	29.90	14.86	1.725	0.258	0.116	0.171	0.194	0.171
285.0	954.9	578.1	357.1	192.2	114.9	133.7	240.0	556.7	688.2	497.7	584.5	1590	6223	6281	110.2	12.98	4.887	3.505	2.643	1.877	1.873	1.521	1.285	1.345	0.958	0.859	0.905	0.765	0.627	0.612	0.536	0.642	0.953	1.395	1.845	1.771	2.020	2.295	2.444	2.729	2.718	2.778	3.115	2.889	2.582	2.260	1.638	1.616	1.318	0.902	0.606	0.572	0.455	0.499	0.565	0.662	0.965	1.462	2.153	3.441	3.894	3.171	2.393	2.181	2.351	2.702	4.522	8.234	19.65	36.75	50.17	26.11	8.901	0.766	0.156	0.221	0.189
290.0	1500	1168	809.6	453.1	238.0	212.6	299.9	515.4	915.6	1180	1165	1380	2466	5142	5762	1587	28.85	5.823	3.801	2.839	2.127	1.908	1.506	1.416	1.222	0.956	0.985	0.759	0.768	0.673	0.663	0.681	1.103	1.698	2.305	2.639	3.099	3.330	3.477	3.677	3.754	3.881	4.184	3.920	3.835	3.864	3.301	3.459	2.888	2.052	1.551	1.330	1.005	0.839	0.898	0.936	1.242	1.610	1.988	2.884	3.817	5.040	5.674	5.770	5.211	4.954	5.671	6.504	8.942	13.14	21.13	28.93	29.77	34.27	17.68	8.225	1.226
295.0	2068	1925	1393	745.5	399.1	305.6	402.1	616.3	1019	1688	2250	2168	2131	2040	3277	7403	643.4	27.63	5.442	3.830	2.871	2.451	1.809	1.626	1.455	1.157	1.081	0.937	0.997	0.881	0.791	0.723	1.016	1.960	3.004	3.412	4.002	4.621	4.819	4.704	4.653	4.849	5.086	5.097	5.233	5.853	5.272	5.411	4.584	3.559	2.618	2.291	1.647	1.328	1.411	1.377	1.651	1.998	2.543	3.266	4.211	5.112	6.906	8.835	10.60	9.998	9.306	9.460	10.45	10.51	10.46	10.58	9.999	16.87	35.81	51.40	28.61
300.0	2463	2292	1763	1001	506.7	379.7	459.6	714.6	1149	1821	2825	2912	2443	1584	1220	4549	5420	493.9	13.26	5.107	3.408	2.871	2.253	1.866	1.727	1.357	1.364	0.973	1.053	0.909	0.795	0.850	1.285	2.313	3.289	4.062	4.744	5.269	5.461	5.441	5.691	5.525	5.701	5.763	6.185	6.707	6.413	6.745	5.868	4.490	3.382	2.878	2.196	1.795	1.668	1.826	1.945	2.421	2.865	3.715	4.723	5.851	7.492	9.252	11.95	13.91	13.87	12.28	12.32	11.77	9.220	7.383	5.643	5.993	10.94	26.18	46.65
305.0	2583	2493	1928	1133	582.1	419.4	496.7	777.2	1233	1922	2875	3445	2812	1663	814.6	1334	5305	4628	70.22	8.106	4.693	3.785	2.791	2.128	1.905	1.426	1.318	1.158	1.090	0.781	0.840	0.907	1.230	2.240	3.511	4.022	4.999	5.738	5.705	5.903	6.013	5.843	6.200	6.156	6.588	7.051	6.771	7.475	6.602	5.135	3.736	3.276	2.509	1.927	1.718	1.914	2.105	2.608	3.411	3.681	4.768	6.117	7.778	9.669	11.76	13.77	15.78	15.98	14.88	12.68	9.875	7.647	5.326	4.076	3.910	7.100	15.36
310.0	2513	2464	1952	1165	616.5	453.4	547.0	815.1	1272	1954	2779	3348	3180	1914	860.4	540.9	1490	4080	4711	1330	21.99	5.082	3.655	2.650	2.101	1.760	1.523	1.360	1.218	1.021	0.862	0.950	1.247	2.060	3.177	3.977	4.889	5.581	5.671	5.794	5.526	5.629	6.045	6.214	6.555	6.974	6.981	7.376	6.405	5.170	3.954	3.521	2.655	2.115	1.990	1.967	2.294	2.811	3.447	4.111	5.355	6.393	8.184	9.682	11.55	13.15	14.34	15.23	16.22	15.02	11.84	8.637	6.143	4.217	3.021	2.970	4.501
315.0	2373	2329	1856	1144	654.1	520.4	618.2	901.6	1328	1980	2713	3133	3047	2299	1121	507.4	518.9	1025	2641	6135	475.8	23.25	5.041	3.948	2.544	2.227	1.726	1.557	1.273	1.047	1.081	1.077	1.127	1.822	2.961	3.470	4.436	5.098	5.170	4.977	5.014	5.179	5.636	5.811	6.127	7.064	6.409	6.986	5.954	4.932	3.829	3.520	2.794	2.365	2.170	2.300	2.387	3.273	3.761	4.549	5.359	6.748	8.462	9.450	11.50	12.83	13.69	13.99	14.74	14.55	12.78	10.79	8.199	5.412	3.766	2.923	2.656
320.0	2199	2305	1834	1174	719.1	615.3	726.8	1017	1442	2052	2730	3118	2963	2380	1514	686.6	422.3	407.0	746.5	3792	5463	401.1	12.60	4.693	3.418	2.605	2.169	1.918	1.666	1.236	1.089	1.098	1.230	1.927	2.714	3.246	3.565	4.717	4.916	4.629	4.745	4.833	5.160	5.605	5.706	6.560	6.430	6.695	6.015	4.960	3.754	3.501	2.899	2.578	2.429	2.708	3.042	3.806	4.121	4.993	5.631	7.039	8.446	9.822	11.50	12.47	13.22	14.02	14.46	13.61	12.61	11.56	10.50	7.901	5.219	3.709	2.919
325.0	2192	2286	1836	1258	837.2	738.0	858.3	1153	1599	2189	2804	3170	3040	2417	1811	902.8	542.7	368.6	335.7	1088	4534	3631	58.02	7.668	4.127	3.291	2.357	2.188	1.840	1.567	1.247	1.216	1.297	1.664	2.325	2.931	3.522	4.323	4.297	4.415	4.525	4.670	5.036	5.196	5.556	6.470	6.432	6.675	5.726	5.145	3.840	4.005	3.397	3.071	3.089	3.105	3.559	4.210	4.724	5.465	6.393	8.166	9.432	10.59	12.26	12.85	13.40	14.42	14.88	14.49	12.90	11.62	10.77	9.765	7.926	5.704	4.304
330.0	2241	2327	1933	1384	1002	919.9	1044	1360	1817	2383	2956	3317	3217	2640	1995	1382	871.3	512.6	340.8	407.8	1281	3294	3988	1227	20.92	4.794	3.345	2.512	1.969	1.797	1.422	1.269	1.388	1.694	2.092	2.776	3.260	3.754	3.971	4.232	4.338	4.438	5.020	5.337	5.662	6.633	6.500	7.049	6.299	5.291	4.403	4.612	4.028	3.973	3.893	4.044	4.337	5.031	5.852	6.337	7.503	8.791	10.31	11.50	12.37	13.77	14.17	14.78	15.09	15.00	13.78	12.71	11.43	9.990	9.052	8.051	7.138
335.0	2396	2471	2071	1538	1195	1110	1253	1569	2019	2581	3119	3470	3417	2920	2256	1582	1223	794.1	464.1	344.0	430.6	824.3	2280	5480	1655	24.99	5.103	3.379	2.470	2.159	1.679	1.443	1.406	1.831	2.133	2.624	3.109	3.373	3.927	3.933	4.056	4.332	4.765	5.514	6.238	6.825	6.934	7.470	6.625	5.662	4.858	5.186	4.911	4.491	4.405	4.558	5.184	5.785	6.690	7.677	8.491	9.773	11.23	12.16	13.25	14.34	14.84	15.40	15.60	15.32	14.60	14.36	12.65	11.65	10.10	8.891	8.422
340.0	2480	2564	2188	1637	1300	1237	1359	1681	2114	2653	3190	3537	3509	3075	2439	1721	1298	1036	609.2	392.1	292.1	298.4	630.7	3413	5251	366.9	14.79	4.489	3.146	2.668	1.889	1.710	1.463	1.811	2.003	2.680	3.049	3.289	3.551	3.634	4.041	4.472	4.933	5.880	6.340	7.372	6.979	7.408	7.125	5.815	5.092	5.658	5.443	4.850	5.003	5.145	5.846	6.402	6.988	7.888	8.738	10.52	11.34	12.52	13.49	14.52	15.32	15.37	16.29	15.81	15.18	14.74	14.19	12.54	10.97	9.548	8.725
345.0	2499	2563	2239	1723	1391	1310	1426	1731	2135	2659	3181	3505	3523	3129	2539	1831	1334	1108	801.4	481.8	319.6	229.8	251.1	970.9	4179	3155	292.5	7.772	4.276	2.868	2.130	1.672	1.484	1.729	2.116	2.519	2.958	3.580	3.351	3.530	4.101	4.363	5.129	5.647	6.597	7.473	7.165	7.385	7.159	6.243	5.354	5.921	5.821	5.340	5.333	5.256	6.272	6.591	7.050	8.178	9.249	10.39	11.58	12.67	13.36	14.35	14.94	15.45	15.91	15.92	15.54	14.85	14.22	13.02	11.25	10.38	9.336
350.0	2491	2628	2287	1793	1475	1365	1475	1717	2101	2585	3072	3390	3425	3116	2589	1920	1420	1123	930.8	685.2	444.7	306.3	242.2	351.5	1203	2969	3512	1110	20.16	4.170	2.774	2.223	1.873	1.843	2.116	2.341	2.843	3.008	3.144	3.598	3.995	4.401	5.189	5.590	6.305	7.299	7.171	7.695	7.071	6.134	5.523	6.061	5.979	5.728	5.463	5.671	6.284	6.684	7.196	7.838	9.118	9.890	11.35	12.10	12.82	13.59	14.12	14.98	15.59	15.60	15.34	14.66	14.47	13.48	12.12	10.85	9.884
355.0	2419	2622	2289	1825	1533	1414	1486	1705	2033	2454	2921	3226	3290	3041	2594	1975	1511	1201	972.4	868.4	663.7	445.2	339.4	296.3	412.7	762.7	2050	4784	1522	23.24	4.241	3.125	2.084	2.036	2.065	2.186	2.714	2.917	3.196	3.408	3.825	4.274	4.974	5.548	6.115	7.344	7.018	7.762	7.047	6.057	5.571	6.452	5.842	5.718	5.596	5.563	6.503	6.757	7.215	7.804	8.680	9.817	10.62	11.82	12.42	12.98	13.52	13.94	15.48	15.13	15.66	14.77	14.31	14.02	12.23	10.99	10.52
360.0	2366	2531	2256	1841	1540	1445	1491	1663	1977	2372	2786	3089	3164	2960	2548	1991	1567	1280	1046	924.0	836.6	598.9	439.0	346.2	287.3	294.5	578.4	3054	4738	348.0	14.04	3.926	2.816	2.297	2.104	2.193	2.395	2.843	3.189	3.319	3.648	4.161	4.929	5.328	5.823	7.099	6.607	7.461	7.046	6.019	5.528	6.236	6.033	5.583	5.575	5.746	6.186	6.504	7.219	7.622	8.179	8.814	10.14	11.29	11.70	12.21	13.05	13.43	14.44	14.53	14.94	14.66	14.25	13.57	12.11	11.27	10.53
365.0	2339	2438	2271	1848	1561	1428	1483	1653	1906	2274	2660	2932	3042	2865	2501	1987	1607	1351	1132	982.0	910.5	781.3	558.7	428.9	314.5	232.4	230.5	869.1	3854	2990	278.4	7.270	3.810	2.772	2.320	2.442	2.605	3.083	3.359	3.401	3.513	3.838	4.894	5.216	5.879	6.680	6.801	7.319	6.956	6.107	5.336	6.516	6.248	5.710	5.825	5.644	5.970	6.460	6.857	7.294	7.880	8.775	9.881	10.61	11.22	11.45	12.42	13.17	13.56	14.01	14.11	14.03	13.96	13.12	11.99	11.34	10.48
370.0	2280	2406	2239	1853	1598	1471	1489	1626	1858	2166	2499	2758	2850	2735	2423	1986	1653	1426	1248	1110	992.1	913.5	777.9	580.8	418.6	295.2	210.4	289.4	1098	2880	3374	1030	18.27	3.917	2.961	2.649	2.688	2.843	3.108	3.269	3.494	4.063	4.650	5.222	5.858	6.632	6.604	7.305	6.788	6.138	5.563	6.619	6.330	6.047	5.761	5.998	6.480	6.501	6.677	7.069	8.108	8.545	9.582	10.33	10.79	11.33	11.62	12.37	12.99	13.25	13.15	13.34	13.34	12.89	11.67	11.43	10.98
375.0	2216	2373	2214	1891	1628	1513	1501	1609	1798	2063	2352	2564	2662	2574	2328	1963	1687	1498	1359	1239	1122	1007	930.9	787.3	556.2	394.0	273.8	211.9	339.2	719.4	2035	4420	1363	21.94	4.599	3.130	3.063	2.995	3.182	3.397	3.528	3.942	4.668	5.467	5.941	6.680	6.757	7.208	6.749	6.010	5.450	6.552	6.472	6.005	6.152	6.263	6.684	6.679	6.942	7.029	8.017	8.526	9.043	9.624	9.904	10.66	10.68	11.35	12.14	12.37	12.51	12.70	12.65	12.74	11.52	10.85	11.01
380.0	2185	2357	2192	1916	1668	1545	1542	1641	1780	2004	2253	2459	2537	2467	2257	1936	1701	1548	1425	1326	1219	1099	1000	918.8	688.3	468.5	342.7	242.9	207.6	249.4	568.6	2918	4070	292.7	13.24	4.151	3.463	3.189	3.326	3.478	3.514	4.194	4.723	5.253	5.694	6.588	6.737	7.087	6.919	6.137	5.412	6.604	6.749	6.414	6.499	6.204	6.621	6.703	7.259	6.973	7.617	8.334	8.673	9.454	9.699	9.899	10.18	10.73	11.49	11.79	12.24	12.59	12.68	11.97	11.79	11.08	10.95
385.0	2188	2332	2207	1925	1716	1597	1581	1661	1769	1957	2168	2357	2436	2383	2202	1926	1714	1585	1471	1393	1302	1184	1070	980.8	831.2	587.9	423.2	305.6	227.4	182.2	211.1	840.3	3349	2507	228.9	7.641	4.272	3.738	3.441	3.607	3.727	4.336	4.882	5.122	6.048	6.535	6.534	6.936	7.032	6.124	5.520	6.794	6.650	6.608	6.653	6.409	6.802	6.860	6.993	7.326	7.796	7.916	8.541	8.607	9.282	9.505	9.777	10.41	11.04	11.64	11.76	11.72	12.29	11.93	11.39	11.00	10.96
390.0	2229	2381	2258	1965	1782	1656	1652	1694	1778	1913	2111	2260	2336	2302	2147	1905	1720	1610	1530	1464	1390	1284	1175	1057	929.2	763.7	560.5	408.4	312.1	237.1	185.4	279.4	967.5	2339	2658	806.3	16.72	5.055	4.250	4.030	3.986	4.494	5.037	5.410	6.039	6.795	6.583	6.984	7.061	6.451	5.838	6.984	6.946	6.689	7.047	6.712	6.984	7.027	7.178	7.793	7.793	8.010	8.536	8.471	9.116	9.194	9.447	10.06	10.53	11.01	11.35	11.48	11.74	11.57	11.19	11.23	11.10
395.0	2262	2402	2299	1994	1834	1735	1735	1762	1808	1907	2045	2179	2263	2240	2106	1881	1721	1626	1571	1514	1463	1376	1274	1153	1007	888.3	733.9	546.6	422.7	329.7	243.7	204.1	308.1	596.0	1640	3362	1093	19.91	6.045	4.795	4.711	4.884	5.054	5.611	6.184	6.842	6.695	7.117	7.100	6.470	6.058	6.977	7.144	6.909	6.862	6.981	7.450	7.398	7.603	7.695	8.107	8.464	8.937	8.991	9.021	9.106	9.530	10.02	10.50	10.63	10.81	10.62	11.50	11.72	11.07	10.81	11.42
400.0	2317	2463	2304	2047	1896	1796	1779	1823	1857	1903	2014	2144	2205	2186	2072	1877	1721	1628	1579	1529	1492	1420	1338	1222	1077	943.7	836.5	674.9	519.8	406.4	304.0	223.4	188.2	212.5	462.8	2203	3128	252.1	13.71	5.560	5.261	5.036	5.363	5.728	6.519	6.985	6.552	7.452	7.411	6.519	6.393	7.119	7.394	7.310	7.270	7.334	7.496	7.953	7.510	8.097	8.157	8.318	8.777	8.513	9.148	8.969	9.172	9.375	10.13	10.65	10.93	10.77	11.27	11.68	10.96	10.84	11.25
405.0	2348	2415	2317	2075	1906	1827	1843	1848	1865	1910	2002	2099	2148	2150	2044	1858	1713	1623	1574	1539	1508	1441	1377	1277	1136	993.6	889.9	781.6	615.5	478.1	363.7	265.6	193.9	149.9	170.6	639.8	2529	2125	201.1	8.923	5.891	5.357	5.740	5.878	6.255	6.947	6.569	7.254	7.197	6.635	6.434	7.620	7.795	7.670	7.563	7.497	7.543	7.916	8.130	8.185	8.343	8.759	8.483	8.705	8.908	8.467	8.914	9.580	9.689	10.28	10.40	10.69	11.05	11.12	10.94	10.73	11.11
410.0	2325	2447	2349	2094	1946	1883	1874	1892	1882	1906	1970	2052	2091	2095	1987	1825	1684	1593	1550	1518	1500	1454	1399	1321	1190	1054	938.5	849.5	741.1	583.6	443.4	330.8	242.1	173.0	136.1	208.9	724.6	1797	2126	709.6	16.92	6.674	6.289	6.260	6.598	7.188	6.731	7.220	7.157	6.701	6.425	7.702	7.642	7.485	7.502	7.499	7.853	8.193	8.305	8.415	8.479	8.454	8.619	8.626	8.665	8.700	8.838	9.159	9.926	9.921	10.40	10.35	10.61	11.04	10.56	10.57	10.57
415.0	2329	2444	2328	2068	1951	1908	1908	1915	1899	1883	1924	1982	2020	2025	1929	1772	1632	1550	1499	1467	1462	1433	1385	1332	1219	1097	984.7	890.0	810.2	696.2	528.2	397.0	295.8	218.9	162.8	139.8	227.4	456.0	1215	2560	253.8	20.57	7.575	6.968	6.998	7.404	6.805	7.441	7.187	6.434	6.274	7.509	7.868	7.407	7.498	7.363	8.088	8.280	8.524	8.526	8.266	8.674	8.682	8.286	8.567	8.631	8.811	9.083	9.434	9.775	10.07	9.877	10.60	10.30	10.35	10.23	10.17
420.0	2319	2416	2280	2047	1928	1870	1880	1896	1882	1866	1886	1939	1953	1959	1860	1714	1580	1497	1447	1422	1421	1403	1361	1316	1225	1108	1009	913.3	827.1	750.2	595.4	442.1	337.5	255.8	187.7	143.8	131.2	158.6	340.1	1613	2036	235.1	15.09	7.664	7.320	7.435	7.018	7.816	7.229	6.453	5.915	7.357	7.555	7.394	7.758	7.281	8.138	8.234	8.351	8.530	8.568	8.312	8.362	8.390	8.647	8.360	8.850	8.930	8.927	9.368	9.672	9.837	10.11	10.32	9.981	10.38	9.979
425.0	2306	2349	2225	2019	1885	1851	1859	1886	1859	1824	1850	1876	1898	1893	1805	1646	1527	1436	1390	1370	1375	1355	1331	1289	1209	1103	1016	933.0	839.0	758.2	649.2	486.5	371.3	286.3	216.4	164.2	128.2	106.5	125.0	468.0	1781	1877	187.1	10.51	7.767	7.448	6.955	7.434	7.232	6.475	6.201	7.140	7.546	7.464	7.438	7.424	8.251	7.808	8.081	8.729	8.297	8.238	7.939	8.226	8.229	8.395	8.363	8.347	8.440	9.022	9.267	9.294	9.763	10.01	9.543	9.956	9.740
430.0	2306	2281	2151	1974	1836	1804	1842	1865	1824	1782	1787	1814	1821	1811	1721	1579	1459	1367	1319	1304	1302	1288	1276	1248	1171	1083	1010	933.6	851.0	759.3	665.1	548.9	422.0	326.4	252.9	199.3	155.0	118.2	96.87	153.3	514.4	1407	1737	586.1	17.58	8.512	7.242	7.293	6.904	6.337	5.945	7.212	7.313	7.221	7.486	7.230	8.198	7.836	8.088	8.380	8.074	8.002	7.882	7.980	7.753	7.898	8.146	8.258	8.365	8.618	8.881	9.245	9.261	9.228	9.380	9.305	9.286
435.0	2566	2200	2074	1892	1789	1760	1802	1813	1776	1743	1726	1735	1741	1715	1630	1496	1382	1293	1246	1231	1227	1216	1205	1189	1123	1051	991.0	929.8	851.8	769.5	664.5	574.5	481.1	370.9	294.8	237.4	188.0	145.1	112.3	102.6	164.8	356.2	964.3	2094	239.7	21.11	8.213	7.503	7.072	6.170	5.979	7.042	7.071	7.085	7.092	6.976	7.807	7.814	7.914	8.213	7.901	8.057	7.739	7.776	7.745	7.890	7.742	8.035	8.268	8.113	8.552	8.858	8.969	8.677	8.824	9.138	8.836
440.0	2804	2205	1936	1809	1740	1708	1753	1765	1734	1699	1672	1671	1667	1647	1561	1432	1321	1236	1188	1167	1167	1158	1145	1142	1082	1015	968.4	911.4	848.5	763.6	668.1	575.3	506.1	411.6	322.7	263.1	212.7	167.5	131.2	103.8	97.93	124.2	270.4	1306	1903	223.6	14.95	8.239	7.313	5.957	5.822	7.042	6.855	6.911	7.037	6.835	7.981	7.607	7.691	8.078	7.663	7.748	7.977	7.511	7.612	7.689	7.708	7.471	7.655	7.855	8.101	8.439	8.061	8.113	8.437	8.406	8.026
445.0	2744	2362	1883	1732	1665	1651	1686	1705	1685	1643	1614	1604	1592	1570	1489	1368	1252	1182	1127	1104	1099	1104	1089	1085	1029	972.5	936.2	883.1	830.7	754.0	666.9	573.8	502.7	440.5	352.0	284.4	235.1	189.1	149.5	118.0	95.11	81.43	99.41	375.6	1556	1770	168.6	11.38	7.836	6.171	5.569	6.877	6.663	6.418	7.131	6.850	7.328	7.391	7.323	7.644	7.630	7.537	7.595	7.319	7.369	7.047	7.566	7.087	7.597	7.516	7.341	7.940	8.194	8.011	7.759	8.161	7.970
450.0	2152	2671	1899	1634	1562	1546	1580	1612	1592	1540	1506	1493	1474	1445	1368	1260	1156	1081	1031	1009	1008	1006	998.3	995.8	950.7	902.2	869.6	832.4	790.2	728.9	653.7	565.2	496.8	441.9	383.2	312.0	257.7	211.8	173.7	139.4	111.3	86.92	73.13	121.0	431.9	1199	1554	593.9	16.13	6.649	5.445	6.403	6.307	6.435	6.465	6.358	6.968	7.156	6.919	7.156	7.157	7.003	7.035	6.854	6.906	6.557	6.649	6.727	6.962	7.039	7.056	7.226	7.290	7.462	7.453	7.349	7.416
455.0	1639	2426	2195	1506	1435	1419	1449	1498	1468	1416	1392	1370	1344	1316	1244	1140	1043	971.0	927.3	911.3	904.9	900.3	901.5	896.5	860.7	821.3	794.2	762.7	733.3	684.5	620.5	549.5	483.7	430.2	385.1	340.0	278.9	231.1	193.2	160.3	127.1	100.9	78.22	72.11	129.4	294.6	722.5	1760	764.8	17.61	5.994	6.415	6.231	6.049	5.932	5.928	6.449	6.295	6.455	6.568	6.544	6.515	6.503	6.307	6.341	6.050	6.195	6.386	6.234	6.732	6.454	6.681	6.911	6.615	6.475	6.885	6.732
460.0	1475	1904	2457	1491	1331	1332	1364	1391	1372	1320	1300	1282	1245	1220	1146	1042	958.6	894.7	848.0	832.7	832.0	826.3	819.8	823.2	787.7	755.6	735.9	714.2	687.4	649.5	594.9	532.4	470.6	420.8	375.5	347.3	297.2	245.0	205.4	170.9	137.9	111.1	84.90	66.62	66.02	92.89	189.6	943.9	1705	173.7	13.22	6.451	6.132	5.516	5.992	5.598	5.792	5.950	6.193	6.353	6.332	6.303	5.881	5.743	5.796	5.852	5.875	5.836	5.732	6.055	5.867	6.211	6.344	6.319	6.006	6.137	6.183
465.0	1352	1518	2345	1709	1244	1250	1276	1265	1269	1239	1213	1183	1159	1126	1060	962.5	879.7	817.1	778.5	764.3	766.0	760.2	751.8	751.3	722.1	691.6	677.6	662.2	641.2	612.8	565.8	505.1	458.0	408.2	365.0	337.3	304.7	254.6	213.0	177.7	146.4	117.0	91.23	70.11	55.70	50.09	64.35	252.4	1165	1369	150.5	10.72	6.098	5.481	5.439	5.336	5.564	5.869	5.775	5.821	5.832	5.868	5.566	5.354	5.519	5.523	5.439	5.569	5.259	5.693	5.672	5.761	5.820	6.079	5.708	5.964	5.483
470.0	1187	1253	1672	2052	1246	1117	1133	1156	1136	1124	1087	1048	1029	997.8	933.6	853.8	778.7	726.2	687.5	673.2	671.0	666.4	660.0	661.6	635.8	614.0	602.2	593.5	578.8	557.2	519.2	469.8	427.9	384.5	348.2	315.8	292.0	261.7	218.8	180.9	150.4	122.6	96.50	75.24	57.22	44.79	39.58	74.89	306.3	833.2	1113	559.1	15.76	5.598	5.227	4.919	5.268	5.227	5.313	5.119	5.081	5.207	5.201	5.038	5.007	4.844	4.916	4.930	4.737	5.030	5.056	5.151	5.197	5.376	5.135	5.037	4.951
475.0	1075	1077	1161	1800	1607	999.9	1005	1025	1017	978.5	951.4	919.8	905.5	871.1	822.7	745.8	678.8	635.0	603.3	589.0	582.5	579.0	572.3	576.8	553.6	537.1	527.3	521.4	512.3	499.3	466.3	429.3	394.3	358.1	324.7	298.3	271.0	248.4	223.0	184.5	152.0	124.5	99.42	78.43	60.50	46.78	36.02	37.54	83.60	198.2	426.6	1170	649.0	19.99	5.197	4.865	4.800	4.677	4.662	4.582	4.837	4.687	4.650	4.461	4.388	4.332	4.082	4.157	4.376	4.158	4.425	4.565	4.536	4.524	4.132	4.514	4.483
480.0	963.9	984.7	973.7	1344	1930	1045	925.8	943.1	925.6	902.9	877.8	840.7	824.4	792.2	745.6	674.5	613.0	573.4	549.9	532.7	526.1	519.2	514.7	513.8	499.7	486.0	480.2	476.9	466.2	455.7	434.5	402.5	371.0	339.9	310.9	284.6	256.8	236.4	216.0	186.5	151.8	124.0	100.4	80.59	62.81	48.99	36.77	30.71	36.10	57.65	108.4	519.1	1268	202.5	15.86	4.651	4.804	4.364	4.551	4.227	4.304	4.110	4.281	4.074	4.060	3.911	3.795	3.935	4.092	3.772	4.096	4.050	4.078	4.069	4.330	4.333	3.816
485.0	838.9	914.2	891.9	997.1	1862	1300	847.8	865.6	850.3	833.1	815.9	782.2	767.7	733.7	689.7	616.9	566.8	527.1	502.2	486.0	485.8	476.6	473.8	471.3	456.8	442.9	439.3	440.8	434.1	422.1	405.9	379.1	351.3	322.7	298.3	272.0	247.0	225.5	204.3	185.1	152.9	123.7	101.1	81.58	64.71	51.13	40.13	30.85	27.14	27.70	35.54	134.1	736.2	1166	183.4	10.29	4.776	4.330	4.405	4.056	4.159	3.993	3.839	3.798	3.746	3.863	3.694	3.671	3.542	3.505	3.979	3.710	3.721	3.684	3.678	3.730	3.757
490.0	743.4	834.1	807.6	792.3	1246	1760	913.6	777.2	775.6	759.4	733.7	711.4	686.1	657.0	614.8	553.6	505.6	473.3	447.6	437.6	433.8	424.3	419.9	421.8	407.7	396.6	394.5	394.8	394.1	385.7	371.1	348.0	322.7	300.9	279.3	255.3	234.3	213.6	191.7	175.5	154.9	126.9	101.6	83.15	66.79	54.38	43.32	34.28	27.71	23.09	21.33	40.71	186.8	578.4	981.3	568.2	17.56	4.887	4.255	3.953	3.865	3.701	3.466	3.570	3.318	3.391	3.272	3.230	3.238	3.154	3.577	3.404	3.433	3.338	3.488	3.287	3.311
495.0	652.6	710.4	731.5	663.5	766.9	1550	1379	712.9	687.6	679.4	654.6	627.1	607.5	580.1	543.5	489.8	441.6	418.1	399.3	387.5	377.2	372.4	369.5	370.8	361.0	349.5	347.0	348.2	349.4	345.6	333.5	315.3	292.6	277.3	256.9	235.6	218.0	199.5	178.4	162.8	147.2	128.0	102.1	83.29	68.40	56.45	45.78	37.25	29.63	24.26	20.80	22.31	52.16	138.2	357.3	1078	772.9	23.65	4.436	3.920	3.655	3.603	3.224	3.086	2.936	2.983	2.938	3.059	2.848	3.012	2.896	3.004	3.051	2.975	3.043	2.989	3.077
500.0	569.3	613.5	681.2	614.2	610.7	1056	1785	755.2	615.7	613.9	595.3	571.7	542.0	523.8	491.5	442.1	400.2	375.2	361.6	346.0	343.2	335.9	331.4	333.8	326.5	316.2	310.4	313.5	314.7	313.8	304.2	286.3	269.8	253.8	236.4	222.3	203.1	187.3	166.6	151.4	137.5	124.5	103.1	82.42	68.24	57.60	47.38	39.00	31.58	25.65	21.53	18.93	23.29	40.56	90.00	442.7	1223	230.4	18.41	4.154	3.508	3.198	3.102	3.007	2.834	2.761	2.672	2.649	2.579	2.805	2.783	2.754	2.681	2.675	2.794	2.688	2.667
505.0	510.2	549.1	597.2	555.6	534.7	677.5	1741	1050	565.7	562.6	543.8	517.5	499.5	477.3	437.2	399.6	361.8	336.8	323.1	314.6	309.2	303.7	298.2	299.5	291.2	283.3	281.1	283.2	285.3	283.5	276.8	262.8	247.9	233.1	218.4	204.6	190.2	174.7	157.6	142.2	127.6	114.4	103.8	83.99	68.28	57.44	48.17	40.23	33.01	27.17	22.75	19.03	17.79	19.93	29.74	112.0	604.5	1093	209.1	11.33	3.619	3.026	2.992	2.855	2.708	2.513	2.351	2.510	2.346	2.487	2.611	2.593	2.437	2.368	2.414	2.427	2.419
510.0	434.5	464.3	504.2	508.8	460.6	495.6	1043	1620	642.5	485.9	471.8	454.4	430.8	410.9	380.5	344.5	314.4	294.0	282.1	271.1	268.8	263.7	256.6	256.9	251.9	243.8	245.0	246.1	249.1	248.5	241.6	231.4	219.1	205.2	194.7	182.4	170.2	156.3	144.0	129.8	115.5	102.6	93.43	82.78	68.58	55.68	47.22	39.84	33.63	27.74	23.65	20.16	17.68	16.36	17.26	34.60	150.5	491.9	809.5	477.8	17.06	3.360	2.821	2.571	2.410	2.243	2.135	2.166	2.201	2.209	2.268	2.156	2.101	1.982	2.148	2.046	2.025
515.0	374.4	403.6	416.1	452.3	417.2	400.0	550.7	1459	1184	433.2	408.5	391.4	369.7	349.1	324.6	292.5	266.7	249.0	238.1	231.4	228.5	227.1	220.6	218.4	211.1	208.1	208.2	210.6	213.6	214.8	206.6	198.4	190.9	178.2	169.2	157.3	149.7	137.6	128.7	115.2	103.0	91.42	81.37	75.32	68.23	55.41	46.27	39.16	33.48	28.62	24.18	20.89	17.92	16.06	14.85	17.91	41.88	116.9	251.5	772.5	620.2	23.99	2.920	2.317	2.458	1.906	1.797	1.873	1.870	1.735	1.766	1.683	1.944	1.824	1.763	1.839	1.574
520.0	326.8	351.0	360.7	392.5	394.5	353.0	398.3	880.4	1723	505.4	360.5	347.6	330.5	307.5	287.3	261.1	234.6	222.2	212.7	204.6	200.3	197.3	195.1	193.0	186.0	183.8	184.1	186.2	188.1	191.6	183.5	177.6	169.5	159.5	151.6	143.6	135.1	125.6	115.8	104.9	95.21	83.36	75.25	67.77	64.07	55.90	45.19	38.71	32.19	27.58	24.22	20.81	18.18	16.01	14.69	13.75	17.76	33.64	62.61	287.7	854.7	233.6	18.21	2.706	2.256	1.898	1.682	1.668	1.591	1.692	1.480	1.592	1.666	1.572	1.613	1.660	1.521
525.0	277.4	319.8	318.8	325.9	373.3	328.8	333.5	482.3	1733	885.4	327.7	309.8	296.6	279.2	256.9	227.7	209.6	199.2	189.7	183.5	177.3	173.8	172.0	171.2	167.9	163.1	162.2	165.1	166.4	168.0	163.5	159.5	150.2	144.3	137.3	129.9	122.4	113.3	104.5	95.01	86.24	77.54	69.31	60.97	58.87	54.44	45.04	37.20	31.14	27.14	22.96	20.70	18.20	15.73	14.27	12.93	12.62	14.82	19.61	70.84	369.7	772.0	213.9	11.48	2.346	1.828	1.583	1.523	1.406	1.427	1.462	1.626	1.617	1.401	1.360	1.356	1.391
530.0	231.9	262.0	265.6	267.9	309.4	304.5	282.5	324.2	940.5	1597	443.9	267.3	254.5	237.8	216.3	197.0	180.7	169.5	162.1	156.0	153.2	149.8	147.9	145.4	141.4	138.1	139.5	140.4	143.2	144.4	140.8	136.6	130.2	123.6	118.4	112.8	106.1	98.94	91.59	83.64	75.69	68.76	61.61	55.51	51.73	48.21	43.95	36.18	29.19	25.76	22.24	19.62	17.28	15.54	13.96	12.71	11.03	10.23	10.23	20.49	89.37	310.2	564.7	386.6	17.21	2.223	1.578	1.469	1.416	1.336	1.346	1.324	1.369	1.235	1.187	1.207	1.285
535.0	194.8	212.6	226.0	222.2	240.9	279.3	248.0	253.4	402.3	1398	1101	234.0	216.7	201.5	184.9	164.9	154.0	143.7	135.1	129.3	128.6	125.4	124.4	121.9	119.2	115.9	116.7	118.3	119.5	121.1	119.2	113.8	109.4	105.0	100.1	95.98	89.19	84.61	78.77	71.83	65.34	59.09	54.47	48.85	44.31	40.63	38.87	34.31	28.09	23.89	20.69	18.22	15.92	14.06	13.06	12.07	10.53	9.152	7.596	8.968	23.58	72.40	158.1	517.2	493.0	24.60	1.785	1.463	1.185	1.142	1.089	0.971	1.039	1.068	1.063	1.047	1.102
540.0	204.6	189.7	194.4	190.2	198.2	253.0	238.9	222.2	260.9	743.6	1726	296.3	189.1	176.5	158.7	144.6	131.9	124.0	117.0	114.5	111.8	111.2	107.6	105.0	102.9	100.8	101.9	102.5	105.0	105.4	102.6	98.79	96.08	91.55	87.58	83.91	77.96	73.05	68.53	64.06	58.12	52.69	48.55	44.05	39.91	37.09	34.05	31.74	27.94	22.56	19.09	17.26	15.06	13.64	12.52	11.70	9.896	8.545	7.005	6.329	8.661	19.23	38.10	177.7	592.2	237.1	17.55	1.443	1.199	1.157	1.050	0.922	0.935	1.031	0.948	0.916	0.886
545.0	190.5	176.6	168.2	165.9	168.9	210.7	235.0	198.5	211.8	348.2	1683	658.4	168.1	152.7	140.4	126.4	114.6	108.2	102.4	99.88	97.81	96.86	93.89	92.19	90.81	86.89	87.80	88.29	90.71	91.39	90.18	86.14	83.41	80.39	76.66	73.76	69.58	65.14	60.65	57.40	52.40	47.25	42.51	39.56	36.25	33.02	29.81	28.29	26.21	21.71	17.99	16.18	14.01	12.69	11.24	10.75	9.481	7.896	6.777	5.721	5.593	7.319	10.95	42.86	236.2	546.8	202.6	9.929	0.998	1.087	0.972	0.871	0.880	0.861	0.823	0.819	0.705
550.0	173.6	159.3	142.7	142.2	138.0	159.2	212.9	185.9	178.9	208.6	805.7	1401	241.9	128.3	115.2	103.5	95.27	88.66	84.53	82.10	80.85	78.47	76.56	75.79	74.02	70.58	72.03	73.29	74.20	74.79	74.42	71.51	69.19	66.57	62.75	61.00	57.70	54.22	50.10	48.01	44.04	40.06	36.61	33.49	31.15	28.12	25.55	23.45	22.43	19.91	17.13	14.01	12.48	11.31	10.18	9.563	8.788	7.444	6.286	5.274	4.603	4.498	4.898	11.53	55.85	205.1	386.2	274.2	16.33	1.323	0.866	0.755	0.831	0.748	0.751	0.688	0.671
555.0	156.1	132.7	123.5	114.2	111.5	120.5	164.7	181.8	148.0	153.5	287.2	1256	765.5	110.8	91.79	82.19	76.40	69.38	67.60	65.87	64.16	63.18	61.50	60.31	59.55	56.60	56.87	58.07	57.62	59.58	60.04	58.01	55.91	53.79	51.08	49.23	46.80	43.88	40.67	38.67	35.70	32.97	29.85	27.75	25.66	23.70	21.38	19.44	17.78	17.21	15.57	12.53	10.87	9.817	8.905	8.611	7.233	6.802	5.621	4.771	4.098	3.576	3.328	4.491	14.05	47.14	106.0	325.7	243.5	22.69	1.002	0.844	0.695	0.662	0.616	0.585	0.513
560.0	152.6	130.3	103.8	97.81	98.15	100.7	125.4	176.2	135.9	133.3	154.7	615.1	1326	136.0	78.68	68.60	64.96	58.94	57.04	54.28	53.60	52.45	51.43	49.95	48.16	47.73	48.02	47.27	48.89	49.54	49.74	48.80	47.03	43.85	41.82	40.27	38.90	36.78	34.18	31.99	30.42	27.69	25.83	23.96	22.07	19.84	18.30	16.49	14.85	14.46	14.05	11.85	9.391	8.641	7.828	7.522	6.624	6.024	5.213	4.659	3.668	3.138	2.765	2.712	4.669	11.72	24.94	107.6	347.0	216.3	15.15	0.808	0.553	0.578	0.507	0.503	0.440
565.0	143.7	127.5	98.17	86.32	86.96	89.79	105.6	156.6	139.7	122.7	121.9	248.4	1413	397.5	67.07	59.34	52.57	50.73	48.53	46.00	45.89	44.01	43.83	42.29	41.27	40.43	40.13	41.71	41.59	41.91	42.49	41.67	38.60	37.70	35.22	34.33	32.95	31.11	29.52	27.36	25.03	23.69	21.92	20.18	19.07	17.20	15.77	14.47	13.10	11.97	12.02	10.95	9.056	7.677	7.078	6.656	5.838	5.299	4.440	4.357	3.740	2.886	2.684	2.319	2.484	3.980	6.790	25.46	137.6	345.6	158.9	6.292	0.628	0.545	0.507	0.433	0.422
570.0	148.4	129.3	100.7	78.81	71.01	76.32	85.78	120.6	155.8	121.2	118.3	145.1	693.7	1065	94.13	48.24	42.50	40.19	39.54	37.94	36.82	35.20	34.37	34.18	33.14	32.41	32.00	33.03	32.82	33.39	33.78	32.88	31.11	30.34	28.84	28.13	26.93	25.69	23.85	21.92	20.40	19.02	17.80	16.40	15.52	14.00	12.95	11.58	10.86	9.834	9.202	9.003	7.961	6.858	5.926	5.609	5.042	4.641	3.948	3.654	3.350	2.837	2.439	2.070	1.947	2.245	2.562	6.757	32.42	124.2	237.1	135.3	14.49	0.797	0.449	0.439	0.358
575.0	154.8	139.8	114.0	82.57	61.25	67.82	76.75	96.69	152.9	140.7	131.1	138.2	252.8	1029	501.4	40.42	33.77	31.93	31.11	29.94	29.04	27.67	27.26	27.19	26.24	25.33	24.84	26.17	26.19	26.85	26.65	25.69	24.50	23.85	22.93	22.22	22.00	20.53	18.90	17.73	16.58	15.02	14.25	13.49	12.54	11.75	10.85	9.913	8.702	8.207	7.184	6.952	7.138	6.323	5.160	4.617	4.173	3.956	3.668	3.118	3.010	2.926	2.256	2.053	1.849	1.848	1.743	2.615	8.230	28.52	63.58	183.7	193.9	19.78	0.527	0.473	0.361
580.0	166.3	149.9	114.5	81.92	63.12	60.56	67.26	86.12	133.7	165.2	144.1	149.7	156.2	529.1	951.9	60.21	28.96	27.67	25.24	24.73	24.76	22.99	22.58	22.83	21.83	21.68	21.33	21.19	22.44	21.89	21.76	21.15	20.38	20.23	19.10	18.38	18.18	17.70	16.43	14.76	13.77	12.63	11.91	11.43	10.73	9.796	9.316	8.382	7.727	6.765	6.139	5.675	5.694	5.751	5.127	4.247	3.830	3.494	3.051	2.829	2.817	2.641	2.516	2.170	1.783	1.696	1.618	1.819	2.858	7.257	15.00	60.41	213.2	148.7	11.72	0.461	0.327
585.0	186.0	161.3	130.0	85.77	59.32	55.95	62.02	79.44	116.5	181.4	167.6	164.1	148.7	216.4	1083	215.3	25.74	23.88	21.45	20.88	21.13	19.63	19.58	19.07	18.79	18.32	18.80	18.14	18.77	19.17	19.17	18.59	17.46	16.77	16.60	15.74	15.77	15.13	13.83	12.99	11.82	10.97	10.29	9.750	9.059	8.751	7.885	7.135	6.457	5.864	5.423	5.136	4.567	5.111	4.888	4.132	3.615	3.272	2.741	2.657	2.395	2.379	2.366	2.192	1.849	1.757	1.664	1.556	1.647	2.640	4.235	14.45	80.78	209.5	100.5	4.619	0.388
590.0	187.8	165.7	135.4	83.87	54.92	47.72	58.84	74.71	106.1	173.2	196.6	183.4	159.8	127.3	530.2	702.1	45.44	19.31	17.29	17.39	16.87	16.25	16.22	15.63	14.94	14.51	14.96	14.83	15.06	15.62	14.72	14.56	14.18	13.65	13.52	12.75	12.58	12.06	10.99	10.44	9.376	9.134	8.523	7.939	7.480	7.132	6.587	6.066	5.461	5.128	4.438	4.140	3.904	4.088	4.268	3.772	3.254	2.748	2.527	2.320	2.112	1.950	2.233	2.107	2.144	1.739	1.696	1.570	1.442	1.680	1.779	3.916	19.01	72.40	140.8	89.68	13.44
595.0	193.2	165.5	138.5	89.24	51.78	44.46	52.95	70.07	101.1	151.1	217.7	195.6	169.8	109.8	165.2	735.7	271.3	16.33	13.79	13.09	13.17	13.08	13.12	12.28	11.79	11.58	11.50	11.90	11.95	11.94	11.86	11.43	11.19	10.76	10.63	9.694	10.06	9.291	9.006	8.448	7.693	7.539	6.877	6.341	6.020	5.919	5.420	4.919	4.454	4.216	3.758	3.437	3.122	3.139	3.254	3.576	3.066	2.574	2.184	1.839	1.957	1.895	1.947	1.941	2.086	1.902	1.508	1.488	1.419	1.373	1.251	1.615	4.919	16.63	36.77	107.1	120.7
600.0	176.8	173.5	139.2	86.45	52.96	41.32	47.57	67.69	95.81	137.5	213.5	203.7	172.6	106.4	76.25	393.9	599.4	23.69	12.08	11.47	10.88	10.95	11.09	10.74	9.381	9.441	9.326	9.912	9.656	10.09	10.03	9.931	9.085	9.198	8.678	8.052	8.157	7.506	7.226	6.890	6.431	5.905	5.506	5.325	5.183	5.072	4.548	4.357	3.813	3.502	3.227	2.918	2.725	2.717	2.673	3.055	2.969	2.453	1.968	1.808	1.887	1.790	1.799	1.769	1.822	1.558	1.933	1.366	1.271	1.193	1.074	1.029	1.666	4.197	8.569	34.30	125.1
605.0	160.5	173.0	134.8	81.27	48.70	39.82	43.75	62.60	89.30	133.0	199.2	218.0	171.1	104.7	56.37	135.2	723.9	73.99	10.36	10.08	9.664	9.755	9.298	9.067	8.659	8.459	7.886	8.298	8.073	8.768	8.709	8.718	8.183	8.043	7.311	7.461	7.536	6.912	6.190	5.931	5.494	5.123	4.972	4.575	4.509	4.269	4.032	3.850	3.366	3.147	2.796	2.631	2.472	2.248	2.324	2.444	2.567	2.361	1.969	1.638	1.639	1.541	1.591	1.504	1.578	1.607	1.864	1.463	1.199	1.146	1.098	0.936	0.956	1.371	2.275	8.113	45.90
610.0	166.9	154.2	122.4	77.32	46.70	36.11	40.87	57.38	83.07	123.3	174.2	215.0	171.5	104.0	50.77	47.81	389.7	424.6	21.58	8.539	8.370	7.826	8.064	7.672	6.999	6.555	6.664	6.741	6.924	7.223	7.204	7.300	7.088	7.188	6.643	6.696	6.374	5.921	5.178	4.818	4.539	4.228	3.998	3.823	3.770	3.583	3.259	3.106	2.884	2.662	2.379	2.183	2.056	1.903	1.812	1.944	2.123	2.098	1.721	1.482	1.420	1.362	1.450	1.390	1.417	1.427	1.519	1.492	1.236	1.130	1.027	0.796	0.756	0.731	0.831	2.087	10.64
615.0	139.4	137.0	117.1	74.67	41.17	33.71	38.77	52.79	78.66	113.9	154.7	194.7	175.3	100.3	49.57	26.61	105.0	528.9	74.86	7.096	6.586	6.413	6.441	6.259	5.428	5.573	5.090	5.337	5.513	5.405	5.742	5.736	6.301	5.873	5.734	5.671	5.558	5.016	4.355	3.807	3.685	3.214	3.389	3.096	2.945	2.829	2.629	2.495	2.269	2.179	1.882	1.900	1.602	1.588	1.513	1.507	1.677	1.816	1.556	1.511	1.187	1.212	1.166	1.151	1.219	1.423	1.288	1.301	1.354	1.107	0.933	0.876	0.629	0.521	0.511	0.705	2.600
620.0	144.6	128.0	104.7	71.50	40.62	30.16	35.15	50.22	72.48	107.9	143.2	176.5	176.9	98.32	48.47	22.34	32.37	318.9	368.6	10.28	5.845	5.354	5.647	4.812	4.599	4.561	4.203	4.327	4.571	4.900	4.959	4.841	5.407	4.898	4.907	4.832	4.795	4.253	4.007	3.181	3.000	2.876	2.688	2.610	2.554	2.256	2.209	2.095	1.925	1.882	1.590	1.618	1.351	1.446	1.246	1.265	1.253	1.314	1.363	1.319	1.231	1.048	1.109	1.068	1.284	1.182	1.157	1.165	1.358	1.154	0.852	0.778	0.590	0.528	0.374	0.313	0.732
625.0	123.2	121.7	94.29	61.95	36.68	27.86	32.78	46.49	69.04	100.7	136.0	159.8	173.9	100.2	47.80	20.80	15.54	113.2	519.1	45.68	5.137	4.562	4.692	4.023	4.168	3.869	3.685	3.924	4.035	3.989	4.174	4.116	4.041	3.823	4.059	3.992	3.900	3.679	3.315	2.868	2.432	2.389	2.287	2.379	2.201	2.108	1.897	1.860	1.620	1.514	1.245	1.353	1.239	1.160	1.049	1.108	0.931	1.012	1.216	1.132	1.154	0.996	1.045	0.975	1.092	1.113	1.077	1.033	1.265	1.138	0.862	0.636	0.540	0.454	0.366	0.304	0.363
630.0	115.6	112.3	91.86	55.48	36.52	29.90	31.24	45.94	67.16	94.62	126.8	147.6	150.2	107.2	49.18	21.43	12.26	32.66	319.7	281.9	9.292	3.880	3.696	3.448	3.132	3.045	3.008	3.238	3.142	3.204	3.041	3.283	3.148	2.869	3.135	3.083	3.034	2.841	2.458	2.193	1.912	1.898	1.846	1.742	1.641	1.784	1.579	1.506	1.320	1.266	1.115	1.102	0.955	0.889	0.908	0.858	0.792	0.816	0.900	0.995	1.004	0.901	0.953	0.861	0.840	0.919	1.040	0.883	0.994	0.961	0.886	0.707	0.531	0.405	0.381	0.254	0.274
635.0	101.4	108.4	79.69	52.26	29.73	28.12	30.16	43.10	62.71	88.01	116.2	135.3	133.6	106.3	54.56	24.62	13.87	14.20	88.17	413.0	55.64	3.444	3.077	2.832	2.616	2.522	2.429	2.518	2.471	2.440	2.475	2.483	2.369	2.330	2.536	2.520	2.245	2.188	1.981	1.560	1.616	1.665	1.386	1.413	1.354	1.323	1.317	1.212	1.168	1.020	0.940	0.841	0.751	0.709	0.691	0.704	0.689	0.593	0.594	0.741	0.847	0.843	0.726	0.658	0.694	0.830	0.829	0.896	0.897	0.793	0.791	0.757	0.500	0.436	0.340	0.295	0.219
640.0	99.12	101.5	80.45	52.99	32.86	25.37	32.63	45.41	62.09	86.84	112.0	128.9	123.9	103.5	59.95	26.67	15.52	11.17	25.66	284.2	234.9	4.311	2.365	2.260	2.200	2.063	1.892	1.916	2.030	2.057	1.937	2.075	2.081	2.024	2.075	2.014	1.906	1.735	1.667	1.401	1.338	1.379	1.134	1.253	0.976	1.050	1.112	1.086	0.929	0.879	0.729	0.669	0.637	0.613	0.586	0.598	0.544	0.471	0.507	0.654	0.743	0.656	0.684	0.747	0.677	0.722	0.633	0.781	0.703	0.734	0.644	0.669	0.536	0.468	0.294	0.241	0.145
645.0	85.90	91.35	76.59	54.36	33.57	26.27	33.26	42.81	61.25	84.72	110.6	123.2	119.9	96.53	67.23	30.77	16.95	11.61	11.58	112.7	380.4	23.73	2.331	1.925	1.803	1.783	1.712	1.597	1.740	1.776	1.735	1.756	1.636	1.663	1.659	1.623	1.674	1.418	1.189	1.281	1.090	1.044	1.045	1.016	0.989	0.900	0.905	0.890	0.846	0.785	0.633	0.615	0.552	0.582	0.508	0.522	0.534	0.500	0.426	0.545	0.571	0.671	0.771	0.724	0.593	0.666	0.663	0.756	0.657	0.662	0.571	0.678	0.674	0.555	0.350	0.215	0.191
650.0	82.06	92.78	76.24	52.21	34.85	27.65	33.80	44.13	61.21	84.21	106.6	119.1	114.6	92.27	71.23	35.01	19.60	12.96	9.529	33.32	347.2	119.5	2.230	1.966	1.594	1.599	1.501	1.451	1.519	1.426	1.486	1.400	1.309	1.456	1.497	1.419	1.336	1.181	0.993	1.016	0.969	0.970	1.032	0.837	0.780	0.800	0.779	0.795	0.659	0.646	0.500	0.573	0.482	0.512	0.508	0.432	0.462	0.394	0.406	0.488	0.491	0.621	0.647	0.713	0.675	0.611	0.700	0.669	0.597	0.614	0.599	0.506	0.664	0.531	0.356	0.257	0.255
