Sample:	'1
File name:	y2025051301杏花河入小清河.FD3
Run date:	'10:08:38, 05/14/2025
Operator:	Administrator
Comment:	'

Instrument
Model:	F-2700 FL Spectrophotometer
Serial number:	23B8-004
ROM Version:	4J14000 07

Instrument parameters
Measurement type:	3-D scan
Data mode:	Fluorescence
EX  Start WL:	220.0 nm
EX  End WL:	600.0 nm
EX Sampling interval:	5.0 nm
EM  Start WL:	230.0 nm
EM  End WL:	650.0 nm
EM Sampling interval:	5.0 nm
Scan speed:	12000 nm/min
EX Slit:	5.0 nm
EM Slit:	5.0 nm
PMT Voltage:	700 V
Response:	Auto 
Corrected spectra:	Off
Contour interval:	50.000

Peak integration
Integration method:	Rectangular
Sensitivity:	1
Threshold:	1.000

Peaks
No.	ApexEX/EM(nm)	Height(Data)
1	225.0/565.0	55.72
2	225.0/615.0	54.00
3	230.0/340.0	2126
4	230.0/500.0	294.1
5	230.0/595.0	47.03
6	240.0/265.0	328.0
7	240.0/525.0	227.2
8	245.0/270.0	332.0
9	245.0/535.0	188.1
10	250.0/275.0	426.7
11	250.0/550.0	146.6
12	255.0/280.0	487.3
13	255.0/560.0	120.9
14	260.0/290.0	508.8
15	260.0/575.0	103.5
16	265.0/585.0	93.74
17	270.0/600.0	89.84
18	275.0/310.0	1575
19	275.0/325.0	1519
20	275.0/615.0	108.8
21	280.0/315.0	1614
22	280.0/625.0	98.48
23	285.0/320.0	1567
24	285.0/640.0	76.87
25	335.0/385.0	373.5
26	440.0/520.0	21.15
27	475.0/340.0	6.001
28	505.0/275.0	2.605
29	510.0/280.0	3.119
30	520.0/285.0	3.201
31	530.0/290.0	3.190
32	550.0/305.0	6.843
33	560.0/310.0	7.898
34	570.0/315.0	8.028
35	575.0/320.0	8.488
36	585.0/325.0	8.194

Data points
	220.0	225.0	230.0	235.0	240.0	245.0	250.0	255.0	260.0	265.0	270.0	275.0	280.0	285.0	290.0	295.0	300.0	305.0	310.0	315.0	320.0	325.0	330.0	335.0	340.0	345.0	350.0	355.0	360.0	365.0	370.0	375.0	380.0	385.0	390.0	395.0	400.0	405.0	410.0	415.0	420.0	425.0	430.0	435.0	440.0	445.0	450.0	455.0	460.0	465.0	470.0	475.0	480.0	485.0	490.0	495.0	500.0	505.0	510.0	515.0	520.0	525.0	530.0	535.0	540.0	545.0	550.0	555.0	560.0	565.0	570.0	575.0	580.0	585.0	590.0	595.0	600.0
230.0	37.31	724.6	2263	788.5	38.91	5.681	4.284	3.236	3.074	3.182	2.892	2.576	2.327	2.089	1.836	1.462	1.299	1.123	0.931	0.934	0.793	0.698	0.626	0.622	0.593	0.572	0.542	0.493	0.464	0.475	0.496	0.445	0.374	0.388	0.340	0.327	0.355	0.352	0.314	0.310	0.327	0.319	0.335	0.307	0.257	0.256	0.655	3.461	6.946	5.687	2.350	0.534	0.214	0.186	0.174	0.189	0.177	0.181	0.191	0.202	0.195	0.168	0.189	0.190	0.186	0.204	0.162	0.165	0.174	0.203	0.176	0.215	0.189	0.177	0.179	0.197	0.179
235.0	84.85	206.7	1302	2477	594.9	62.82	6.570	4.818	3.564	3.273	2.862	2.425	2.647	2.129	1.792	1.381	1.480	1.266	0.956	0.957	0.812	0.724	0.719	0.638	0.640	0.518	0.578	0.543	0.387	0.553	0.491	0.481	0.416	0.425	0.319	0.333	0.348	0.362	0.293	0.357	0.267	0.251	0.333	0.479	0.377	0.334	0.377	0.985	2.661	4.867	7.620	8.777	3.923	1.009	0.249	0.216	0.212	0.218	0.184	0.208	0.189	0.185	0.160	0.194	0.167	0.207	0.190	0.189	0.151	0.188	0.181	0.183	0.222	0.198	0.186	0.228	0.160
240.0	130.9	126.5	371.1	1988	2803	472.7	28.55	5.689	4.343	3.931	3.580	2.897	2.485	2.298	1.721	1.528	1.464	1.240	1.112	1.113	0.860	0.840	0.754	0.731	0.594	0.620	0.539	0.415	0.528	0.618	0.463	0.475	0.373	0.386	0.305	0.311	0.351	0.326	0.296	0.292	0.303	0.196	0.265	0.351	0.460	0.475	0.407	0.428	0.768	1.518	3.937	9.995	12.61	9.586	3.527	0.584	0.240	0.210	0.228	0.180	0.208	0.177	0.175	0.161	0.215	0.197	0.217	0.162	0.165	0.195	0.201	0.214	0.180	0.176	0.172	0.228	0.187
245.0	87.59	172.8	143.8	643.0	2862	2898	335.6	12.42	5.510	4.411	4.315	3.779	2.977	2.569	2.011	1.465	1.642	1.219	1.368	0.898	0.769	0.903	0.791	0.653	0.604	0.632	0.531	0.539	0.498	0.660	0.498	0.468	0.399	0.380	0.335	0.297	0.327	0.328	0.322	0.288	0.257	0.259	0.308	0.336	0.375	0.417	0.579	0.630	0.499	0.553	1.110	3.287	8.227	15.64	15.52	8.730	2.446	0.377	0.200	0.217	0.196	0.213	0.192	0.175	0.179	0.206	0.185	0.179	0.171	0.206	0.162	0.196	0.199	0.208	0.170	0.206	0.183
250.0	40.71	127.9	214.5	226.2	897.6	2717	3500	1179	66.73	7.511	5.433	4.653	3.762	2.723	2.297	1.708	1.601	1.284	1.381	0.968	0.877	0.843	0.796	0.703	0.710	0.610	0.679	0.569	0.481	0.490	0.510	0.405	0.421	0.355	0.389	0.367	0.334	0.304	0.333	0.299	0.302	0.303	0.294	0.300	0.300	0.295	0.414	0.643	0.779	0.726	0.659	1.022	2.148	4.987	9.023	13.87	17.74	15.95	8.890	2.545	0.379	0.243	0.208	0.195	0.222	0.187	0.205	0.195	0.166	0.191	0.191	0.201	0.191	0.186	0.196	0.235	0.195
255.0	31.34	51.57	145.0	281.3	279.8	682.2	2698	5401	1590	63.65	6.885	5.667	4.491	3.561	2.743	2.122	1.799	1.406	1.402	1.248	1.025	0.940	0.833	0.755	0.703	0.782	0.643	0.624	0.551	0.468	0.502	0.445	0.381	0.347	0.396	0.370	0.332	0.383	0.334	0.255	0.347	0.337	0.310	0.271	0.248	0.244	0.271	0.338	0.399	0.732	0.982	1.208	0.921	1.376	2.282	3.516	6.416	15.50	28.33	26.66	13.53	2.556	0.378	0.255	0.223	0.218	0.191	0.237	0.217	0.176	0.166	0.247	0.219	0.179	0.256	0.214	0.220
260.0	25.81	32.38	57.33	242.8	288.1	199.9	817.6	4467	5862	273.0	28.33	7.069	4.988	4.239	2.903	2.537	1.872	1.609	1.402	1.111	1.201	0.944	0.877	0.848	0.734	0.709	0.680	0.513	0.622	0.523	0.593	0.453	0.471	0.409	0.409	0.362	0.345	0.401	0.393	0.263	0.292	0.315	0.337	0.282	0.340	0.372	0.281	0.296	0.311	0.451	0.693	1.563	1.506	1.005	0.777	1.021	1.683	4.365	12.53	27.19	36.17	25.01	9.992	1.284	0.320	0.266	0.194	0.236	0.219	0.191	0.198	0.234	0.219	0.196	0.239	0.232	0.231
265.0	26.65	22.97	28.18	110.1	328.0	204.1	214.7	1511	6390	5602	213.3	12.20	6.813	4.907	3.689	2.761	2.130	1.789	1.420	1.355	1.234	1.013	1.111	0.815	0.817	0.640	0.812	0.647	0.657	0.588	0.628	0.509	0.447	0.383	0.448	0.344	0.355	0.407	0.380	0.352	0.255	0.319	0.312	0.379	0.284	0.307	0.254	0.369	0.287	0.299	0.333	0.758	1.472	1.815	1.100	0.572	0.639	1.263	3.214	8.332	20.18	37.48	42.54	21.86	5.931	0.639	0.296	0.228	0.231	0.193	0.252	0.241	0.175	0.224	0.236	0.255	0.234
270.0	45.63	36.52	32.88	47.42	157.4	332.0	240.1	382.1	2093	6055	6931	808.3	44.70	7.560	4.911	3.609	2.765	2.410	1.678	1.455	1.488	1.139	1.255	0.901	0.913	0.813	0.723	0.760	0.679	0.589	0.699	0.524	0.531	0.487	0.435	0.438	0.428	0.397	0.368	0.329	0.299	0.370	0.357	0.380	0.397	0.382	0.302	0.356	0.341	0.281	0.276	0.384	0.619	1.078	1.496	1.724	1.431	0.951	1.053	2.150	4.915	11.08	21.59	33.10	34.15	35.22	14.78	5.164	0.658	0.298	0.292	0.276	0.242	0.279	0.259	0.282	0.228
275.0	84.49	96.74	87.02	55.20	60.25	153.4	426.7	292.7	511.1	1542	5747	9936	1081	33.25	7.197	4.763	3.905	3.233	2.288	2.130	1.684	1.403	1.231	0.938	0.872	0.943	0.934	0.711	0.750	0.543	0.816	0.541	0.619	0.598	0.551	0.479	0.520	0.429	0.458	0.364	0.422	0.411	0.338	0.397	0.495	0.465	0.472	0.422	0.362	0.400	0.305	0.313	0.349	0.470	0.633	0.963	1.930	2.605	1.808	1.103	1.438	2.802	5.183	8.002	11.43	27.25	52.54	56.10	23.69	5.543	0.621	0.269	0.282	0.270	0.256	0.317	0.300
280.0	140.4	159.4	150.7	79.74	46.15	68.57	293.3	487.3	239.2	410.7	1768	8798	8699	147.0	15.75	6.947	4.486	3.712	2.726	2.431	1.837	1.462	1.482	1.032	1.027	0.985	0.852	0.798	0.676	0.732	0.713	0.730	0.546	0.552	0.663	0.630	0.585	0.515	0.510	0.472	0.402	0.433	0.418	0.490	0.595	0.682	0.617	0.615	0.564	0.566	0.416	0.369	0.409	0.351	0.419	0.558	0.961	2.081	3.119	2.522	1.384	1.091	1.645	2.373	3.116	7.279	19.88	44.90	64.68	32.65	17.02	2.421	0.429	0.341	0.386	0.314	0.260
285.0	195.0	230.8	214.6	123.4	57.23	50.02	131.4	464.9	342.7	204.4	499.4	2948	9999.9	6509	108.5	10.94	6.035	4.173	3.028	2.326	2.057	1.662	1.450	1.200	1.077	1.135	0.856	0.837	0.874	0.752	0.850	0.624	0.582	0.541	0.638	0.645	0.740	0.622	0.610	0.571	0.588	0.510	0.539	0.566	0.625	0.850	0.750	0.830	0.806	0.660	0.517	0.512	0.439	0.404	0.421	0.489	0.539	0.964	1.781	3.096	3.201	1.797	0.993	1.169	1.477	2.191	5.167	12.34	28.80	52.10	67.65	28.79	10.77	0.985	0.349	0.303	0.307
290.0	288.3	334.0	297.9	178.1	95.81	73.65	103.0	239.6	508.8	462.9	293.1	824.2	3256	7842	7049	430.9	23.53	6.361	4.016	3.077	2.422	2.043	1.550	1.292	1.266	1.165	0.938	0.985	0.932	0.775	0.893	0.723	0.703	0.664	0.679	0.721	0.723	0.725	0.641	0.617	0.595	0.559	0.651	0.704	0.770	0.962	0.974	1.033	1.054	0.834	0.738	0.691	0.535	0.509	0.508	0.525	0.605	0.709	0.963	1.435	2.275	3.052	3.190	2.399	1.707	1.510	2.060	3.733	7.481	14.24	27.66	38.72	51.35	44.48	19.02	8.703	1.104
295.0	343.2	413.0	401.1	264.0	154.2	131.7	140.7	195.3	324.8	687.3	659.1	475.7	947.5	2044	5966	6584	598.3	20.11	6.651	4.255	3.172	2.471	2.006	1.715	1.458	1.398	1.014	1.112	1.171	0.890	0.826	0.753	0.812	0.722	0.825	0.763	0.925	0.824	0.685	0.647	0.631	0.663	0.774	0.775	0.966	1.090	1.025	1.478	1.412	1.253	0.927	0.962	0.749	0.707	0.628	0.655	0.684	0.901	0.952	1.072	1.417	1.648	2.442	4.049	4.608	2.811	1.993	2.262	3.051	4.444	7.302	9.611	14.24	25.48	50.91	66.97	30.30
300.0	382.9	519.0	491.2	326.9	225.2	202.2	222.7	270.9	338.9	610.6	1041	708.7	588.7	724.4	1853	7501	5579	86.38	12.21	5.694	4.045	2.968	2.393	1.938	1.682	1.286	1.179	1.082	1.049	0.990	0.857	0.916	0.848	0.720	0.914	0.860	0.924	0.947	0.725	0.699	0.631	0.731	0.904	0.844	1.036	1.298	1.146	1.415	1.496	1.398	1.134	1.185	1.022	0.946	0.915	0.979	1.055	1.244	1.273	1.578	1.582	1.898	2.128	2.946	4.621	5.266	4.231	3.144	2.816	2.847	3.177	3.698	4.386	7.138	16.64	39.93	64.95
305.0	470.4	609.5	618.4	447.6	319.0	297.5	372.8	410.2	563.8	768.4	1192	1362	866.2	674.1	800.6	2700	8710	4361	66.75	9.438	4.841	3.720	2.934	2.305	1.816	1.669	1.321	1.200	1.208	1.179	0.960	0.962	0.924	0.910	0.913	0.971	1.058	0.874	0.862	0.773	0.706	0.834	0.966	1.059	1.057	1.361	1.347	1.794	1.746	1.553	1.491	1.474	1.299	1.291	1.158	1.615	1.394	1.957	1.938	2.265	2.591	2.978	3.015	3.747	4.449	5.553	6.843	6.781	5.150	4.064	3.599	3.414	3.381	3.958	5.677	11.27	25.30
310.0	553.7	759.4	764.6	573.1	429.6	426.2	517.0	629.1	762.9	974.1	1221	1575	1467	959.3	752.0	988.4	3046	6258	5366	292.4	16.36	5.596	3.686	2.955	2.124	1.861	1.680	1.299	1.374	1.219	1.126	0.938	0.935	0.949	1.027	0.940	1.081	0.959	0.908	0.962	0.944	0.961	1.066	1.113	1.326	1.621	1.711	2.157	2.078	1.851	1.710	1.867	1.700	1.771	1.739	2.029	2.086	2.524	2.751	3.053	3.183	3.625	4.132	4.616	5.010	5.748	6.348	7.421	7.898	7.125	5.897	4.865	4.370	4.036	4.172	4.767	7.787
315.0	636.0	861.6	917.9	710.2	557.8	528.2	626.4	735.5	860.3	1074	1294	1482	1614	1414	883.7	683.5	1070	1713	4842	6709	429.4	13.43	5.505	3.535	2.562	2.337	1.948	1.403	1.556	1.251	1.079	1.009	0.907	0.973	1.132	1.015	1.071	1.028	0.918	0.979	0.940	1.016	1.020	1.178	1.528	1.844	1.890	2.515	2.585	2.358	2.039	2.241	2.140	2.179	2.222	2.239	2.575	2.819	3.055	3.525	3.596	4.023	4.518	5.032	5.354	6.156	6.297	6.741	6.782	7.368	8.028	7.706	5.814	5.131	3.844	3.717	4.270
320.0	707.6	1003	1058	801.7	629.6	600.6	702.7	796.6	921.0	1139	1355	1516	1542	1567	1117	698.6	687.1	627.4	1454	6169	4067	63.27	8.505	4.935	3.416	2.668	2.077	1.791	1.415	1.365	1.273	1.051	1.030	0.980	1.115	1.041	1.061	1.048	0.925	0.967	1.067	1.202	1.105	1.326	1.586	1.892	2.170	2.809	3.028	2.667	2.176	2.494	2.398	2.124	2.303	2.451	2.897	3.159	3.424	3.647	3.578	4.393	4.625	5.170	5.691	6.338	6.652	6.747	7.007	6.906	7.366	8.488	7.822	6.584	4.759	3.998	4.086
325.0	792.3	1208	1306	982.4	721.2	652.5	728.6	823.4	936.6	1137	1356	1519	1508	1466	1359	818.5	627.5	414.5	444.3	2070	6459	3310	50.16	6.676	4.646	3.081	2.429	2.112	1.530	1.551	1.370	1.127	1.023	1.074	0.934	1.001	0.886	1.016	1.034	1.062	1.032	1.118	1.137	1.243	1.615	2.202	2.779	3.476	3.527	3.179	2.669	2.963	2.773	2.552	2.588	2.518	3.257	3.191	3.860	3.913	3.806	4.279	4.535	5.261	5.764	6.064	6.187	6.746	7.002	7.449	7.027	7.266	7.931	8.194	6.500	4.908	4.037
330.0	918.9	1451	1673	1367	945.4	738.6	744.8	828.9	914.0	1105	1322	1490	1484	1368	1255	1022	707.3	402.7	261.9	569.1	2123	4765	4265	236.7	14.01	4.244	3.202	2.451	2.019	1.704	1.524	1.230	1.112	1.143	0.953	0.998	0.937	0.940	0.935	1.095	1.088	1.099	1.215	1.432	1.877	2.576	3.151	4.073	4.266	4.185	3.914	4.115	3.460	3.217	2.873	2.845	3.007	3.239	3.649	3.969	4.083	4.101	4.584	4.943	5.583	5.843	6.172	6.715	6.741	7.147	6.893	6.798	6.785	6.965	6.659	6.382	5.623
335.0	1016	1651	2019	1762	1261	903.7	780.8	836.7	918.0	1080	1291	1468	1478	1361	1176	1014	930.1	518.5	282.7	284.1	574.8	1227	3956	5524	364.0	11.78	4.193	3.186	2.318	2.068	1.510	1.490	1.214	1.144	1.184	1.025	1.077	1.039	1.024	1.080	1.029	1.189	1.439	1.512	2.014	2.881	3.479	4.579	5.189	5.075	4.925	5.423	4.649	4.257	3.517	3.141	3.237	3.248	3.657	3.930	3.915	4.084	4.397	4.793	5.338	6.081	5.933	6.605	6.763	6.938	6.725	6.896	6.472	6.811	5.807	5.938	6.208
340.0	1017	1690	2126	1909	1423	965.1	781.9	826.6	892.4	1040	1245	1407	1433	1339	1147	940.0	922.3	672.6	335.2	246.2	249.5	355.7	1187	5129	3401	54.86	7.338	4.018	2.781	2.170	1.761	1.549	1.363	1.359	1.202	1.266	1.138	1.159	0.895	1.056	1.043	1.267	1.157	1.377	2.014	2.921	3.530	4.687	5.297	5.439	5.232	6.001	5.165	4.829	4.129	3.222	3.362	3.086	3.534	4.075	3.721	3.829	4.087	4.822	5.107	5.589	5.977	6.089	6.519	6.870	6.947	7.036	6.290	6.576	5.952	5.587	5.476
345.0	1020	1650	2102	1933	1437	978.0	763.7	792.2	866.4	994.9	1178	1309	1335	1268	1101	885.8	790.5	726.3	432.6	256.9	195.0	177.1	336.1	1696	5322	2884	46.06	5.735	3.658	2.369	1.907	1.743	1.429	1.404	1.254	1.170	1.123	1.088	0.980	1.072	1.031	1.185	1.193	1.603	1.712	2.696	3.508	4.701	5.359	5.505	5.345	5.922	5.240	4.463	3.964	3.166	3.468	3.160	3.286	3.484	3.644	3.757	4.286	4.448	4.663	5.337	5.195	5.600	5.968	6.221	6.388	6.580	6.228	5.918	5.660	5.247	5.009
350.0	975.8	1549	2005	1898	1454	996.3	765.7	772.8	819.3	926.1	1074	1191	1224	1166	1037	854.1	724.3	626.2	542.2	367.1	218.6	166.9	168.0	443.2	1708	3816	3540	217.9	13.65	3.472	2.535	1.989	1.619	1.381	1.215	1.273	1.130	1.090	1.117	1.053	0.963	1.103	1.169	1.537	1.806	2.457	3.253	4.409	5.035	5.162	5.244	5.994	5.367	4.760	4.031	3.177	3.191	3.025	3.236	3.338	3.595	3.653	4.033	4.254	4.597	4.942	4.974	5.217	5.438	5.844	5.908	5.829	5.783	5.734	5.399	4.952	4.965
355.0	837.8	1375	1812	1806	1441	1018	775.1	765.3	787.0	888.0	1004	1091	1117	1090	980.7	830.1	707.3	581.1	495.0	488.7	315.5	200.0	160.3	183.8	431.1	945.9	2939	4548	356.2	12.44	3.347	2.454	1.953	1.595	1.436	1.152	1.175	1.074	1.158	0.925	1.035	1.053	1.214	1.281	1.880	2.360	2.762	4.171	4.656	4.802	4.855	5.586	5.214	4.786	4.079	3.359	3.237	3.056	3.268	3.402	3.325	3.563	3.975	3.897	4.366	4.820	4.647	4.972	5.135	5.175	5.532	5.107	5.406	5.411	4.940	4.801	4.729
360.0	767.2	1249	1668	1651	1378	1014	782.7	761.8	786.8	859.5	938.0	1020	1049	1013	927.8	791.3	693.3	570.1	473.2	469.6	422.3	253.5	179.5	143.5	165.0	255.5	829.6	3866	3184	288.6	6.728	3.061	2.503	1.795	1.607	1.309	1.121	1.118	1.042	0.962	1.014	1.032	1.085	1.196	1.658	2.179	2.938	3.667	4.228	4.400	4.673	5.371	4.844	4.445	3.862	3.242	3.229	3.420	3.346	3.053	3.155	3.412	3.723	3.755	4.236	4.220	4.493	4.386	4.864	4.963	5.094	5.214	4.931	5.098	4.830	4.789	4.881
365.0	737.6	1140	1515	1580	1330	987.0	785.3	752.2	778.9	828.2	895.9	963.9	984.4	958.2	876.0	764.3	678.3	572.8	478.0	436.1	448.3	347.7	212.6	154.6	123.4	116.5	226.1	1211	4316	2868	45.94	4.948	3.323	2.190	1.714	1.313	1.261	1.279	1.019	0.975	1.000	0.959	1.212	1.270	1.612	2.127	2.460	3.582	3.763	4.130	4.228	5.009	4.672	4.287	3.879	3.380	3.129	3.171	3.324	3.182	3.250	3.615	3.749	3.774	4.075	4.058	4.192	4.397	4.494	4.715	4.587	4.914	4.760	4.792	4.742	4.607	4.201
370.0	661.2	1039	1362	1417	1249	955.3	792.4	754.9	773.7	816.7	863.7	906.4	916.3	902.1	830.8	743.6	663.2	584.1	496.5	440.7	405.7	409.2	318.4	201.9	144.9	110.2	110.7	314.4	1319	3281	3329	834.1	14.57	3.314	2.263	1.477	1.327	1.247	1.159	1.068	1.028	0.990	1.207	1.292	1.491	1.970	2.316	3.036	3.509	3.566	3.622	4.534	4.458	4.176	3.725	3.220	3.320	3.215	3.279	3.203	3.275	3.414	3.544	3.702	3.888	3.897	3.927	4.073	3.957	4.247	4.198	4.753	4.649	4.561	4.666	4.223	4.339
375.0	631.9	939.3	1238	1287	1174	943.6	795.9	745.9	759.5	792.5	831.5	866.2	871.8	839.5	791.6	713.6	649.6	586.2	514.6	463.5	407.5	379.2	391.8	301.0	189.1	139.1	114.9	137.6	339.3	805.5	2461	4263	330.2	14.73	3.231	2.060	1.718	1.405	1.158	1.129	0.993	1.136	1.044	1.368	1.433	1.765	2.131	2.694	3.105	3.415	3.288	4.115	4.220	4.214	3.791	3.267	3.302	3.112	3.417	3.072	3.271	3.475	3.525	3.755	3.511	3.687	3.627	3.844	3.772	4.089	4.275	4.441	4.443	4.298	4.410	4.119	4.379
380.0	590.0	841.6	1124	1174	1115	944.2	790.6	746.2	753.2	785.8	823.9	833.9	837.3	804.0	758.4	689.2	642.0	584.7	523.2	474.1	419.4	372.7	369.7	373.1	245.1	168.0	135.1	115.0	136.3	224.3	687.5	3211	2790	267.3	7.309	2.776	1.959	1.613	1.245	1.186	1.073	0.998	0.989	1.281	1.329	1.663	1.902	2.743	2.639	3.066	3.035	3.832	3.913	3.956	3.713	3.280	3.253	3.329	3.371	3.133	3.236	3.486	3.452	3.595	3.563	3.702	3.460	3.702	3.927	4.079	4.061	4.269	4.155	4.252	4.062	4.042	3.974
385.0	555.6	818.9	1023	1113	1066	915.9	803.0	740.0	748.7	776.3	801.4	801.1	803.1	773.9	725.7	671.9	633.5	576.2	528.3	482.4	430.2	388.6	356.4	373.5	324.7	207.3	156.8	128.0	106.1	107.2	200.6	957.4	3299	2489	39.59	4.278	2.386	1.930	1.234	1.251	1.142	1.049	1.006	1.132	1.246	1.664	1.838	2.450	2.627	2.704	2.991	3.724	3.856	3.730	3.560	3.361	3.279	3.336	3.372	3.272	3.347	3.158	3.351	3.378	3.652	3.618	3.404	3.647	3.801	4.072	3.982	3.844	4.052	4.079	3.694	3.974	4.092
390.0	510.7	765.2	961.6	1045	1004	887.7	800.2	746.4	733.9	757.0	768.0	772.4	770.6	741.3	691.5	643.0	609.4	565.7	524.2	486.9	441.9	403.9	366.8	344.4	345.2	291.0	201.2	155.6	120.7	98.46	103.8	256.0	955.0	2388	2543	738.9	13.76	2.503	1.696	1.329	1.174	1.094	1.181	1.095	1.327	1.470	1.816	2.263	2.524	2.530	2.784	3.624	3.602	3.490	3.247	3.211	3.423	3.248	3.232	3.119	3.198	3.173	3.348	3.332	3.513	3.537	3.307	3.408	3.514	3.567	3.713	3.767	3.783	3.896	3.901	3.807	3.849
395.0	490.5	686.6	884.5	977.3	941.6	852.0	793.7	732.4	741.3	742.4	748.0	740.8	742.1	705.3	667.0	619.2	586.2	554.2	520.0	485.5	453.3	414.0	383.9	352.5	325.4	332.4	286.8	199.0	154.9	123.5	103.1	115.9	249.6	573.1	1562	3209	286.5	16.67	2.787	1.856	1.435	1.137	1.158	1.191	1.343	1.465	1.740	2.168	2.541	2.445	2.474	3.437	3.420	3.413	3.203	3.157	3.204	3.128	3.247	3.232	3.148	3.277	3.282	3.440	3.604	3.437	3.180	3.338	3.248	3.300	3.392	3.459	3.842	3.528	3.600	3.691	3.964
400.0	503.5	680.4	848.0	949.6	920.3	848.9	775.5	729.3	729.6	722.1	746.1	733.1	727.9	692.8	653.4	607.4	565.8	537.7	514.8	480.7	458.7	422.1	394.7	367.2	335.0	321.6	331.3	258.8	186.7	149.6	120.5	99.53	102.6	159.8	412.5	2058	2343	252.6	9.378	2.140	1.617	1.311	1.273	1.247	1.457	1.596	1.767	2.024	2.307	2.309	2.306	3.006	3.200	3.344	3.263	2.970	3.142	3.396	3.038	3.115	3.017	3.271	3.118	3.179	3.429	3.283	3.172	3.203	3.412	3.214	3.358	3.144	3.666	3.586	3.460	3.490	3.678
405.0	469.1	662.3	803.6	907.1	899.5	831.5	776.3	731.2	730.5	723.0	743.4	730.5	712.4	684.1	638.7	585.5	554.8	527.5	504.5	475.6	453.3	430.4	403.8	379.0	349.0	322.0	326.9	313.8	225.7	173.6	142.1	110.7	84.04	75.66	120.9	565.1	2166	2185	199.6	4.513	2.057	1.529	1.452	1.334	1.396	1.527	1.687	2.186	2.169	2.200	2.341	3.138	3.158	3.218	3.182	3.022	3.151	3.369	3.303	3.300	3.056	3.213	3.107	3.342	3.199	3.164	3.109	3.263	3.568	3.194	3.488	3.216	3.361	3.484	3.469	3.267	3.426
410.0	446.3	629.6	774.6	851.1	847.0	813.8	757.1	729.6	724.2	716.6	733.4	717.1	698.9	664.6	616.1	564.3	532.8	502.9	483.5	462.3	443.5	425.5	406.5	384.6	361.2	334.0	314.9	318.4	287.8	216.6	163.9	128.2	93.57	70.02	64.92	153.0	590.4	1671	2049	692.2	13.58	2.080	1.566	1.448	1.552	1.494	1.654	2.163	2.084	2.165	2.242	2.976	3.058	3.097	2.891	2.953	3.154	3.216	3.256	3.170	3.096	3.210	3.051	3.207	3.140	3.194	3.074	3.116	3.176	3.066	3.227	3.297	3.381	3.269	3.376	3.169	3.435
415.0	422.3	586.5	725.9	794.7	814.9	775.9	739.3	722.3	713.1	704.2	709.5	691.4	671.0	628.3	586.3	535.5	503.0	478.8	460.4	444.3	429.1	411.8	398.7	382.8	366.3	337.6	315.7	297.9	296.1	270.5	192.3	141.2	106.1	78.35	59.21	66.54	153.7	393.8	1035	2381	267.5	16.73	2.143	1.828	1.627	1.602	1.671	1.911	2.117	2.101	2.085	2.805	2.903	2.883	2.764	2.771	3.163	3.223	3.240	3.272	3.116	3.064	3.048	3.101	2.910	3.042	3.088	3.039	3.106	3.158	3.083	3.073	3.094	3.112	3.189	3.129	3.147
420.0	399.5	574.4	712.7	762.8	781.6	746.7	728.8	710.9	697.3	682.0	690.2	668.6	638.2	600.1	553.5	510.8	474.1	457.2	438.1	426.7	411.4	398.1	390.1	375.2	359.1	340.2	314.5	292.2	278.9	280.8	226.5	155.2	115.0	85.48	62.89	50.44	59.18	104.3	260.3	1368	2107	243.5	9.730	2.045	1.647	1.770	1.671	1.890	2.049	2.096	2.095	2.740	2.776	2.721	2.693	2.804	3.049	3.157	3.070	3.146	2.952	3.314	3.118	2.941	2.890	3.251	2.850	2.912	2.983	2.946	2.873	2.914	3.052	2.985	3.057	3.032	3.160
425.0	396.2	551.3	686.9	739.5	745.1	729.5	720.6	697.7	696.9	671.3	674.3	651.6	626.7	584.3	530.6	488.9	457.1	435.5	417.5	408.6	394.9	386.8	383.1	367.1	353.3	336.7	315.6	293.0	271.6	267.5	250.8	178.2	123.4	93.57	69.36	52.01	42.19	42.47	71.56	358.9	1556	1919	193.6	4.463	1.892	1.805	1.726	1.863	2.079	1.952	2.100	2.595	2.605	2.697	2.599	2.685	2.859	3.037	3.153	3.217	2.993	3.047	3.023	2.929	2.753	3.078	2.955	2.959	2.819	2.963	2.885	2.827	2.939	3.042	2.901	2.743	2.900
430.0	426.7	519.1	655.2	712.1	733.3	711.6	712.8	695.8	680.4	664.7	664.2	641.7	605.3	560.4	509.9	465.6	430.3	415.8	396.2	386.4	376.6	369.9	368.1	358.5	345.5	331.5	314.9	295.3	273.2	255.2	242.5	214.1	150.2	105.9	80.17	60.07	45.06	33.86	32.31	91.97	404.6	1238	1657	599.0	13.40	2.492	2.002	1.919	2.030	1.886	2.052	2.752	2.685	2.704	2.671	2.631	2.926	2.928	3.114	2.976	2.930	3.030	2.891	3.067	2.996	2.924	2.813	2.811	2.820	2.978	2.829	2.754	2.830	2.814	2.850	2.749	2.782
435.0	675.1	505.6	622.2	669.2	707.7	711.3	699.5	694.5	666.6	666.8	644.3	621.1	579.8	540.7	486.3	439.7	412.8	393.8	374.6	367.8	357.4	348.8	350.0	344.2	336.7	323.4	311.9	295.9	276.2	253.1	228.5	215.9	184.0	126.3	92.50	68.50	51.40	36.40	28.45	35.81	100.9	287.6	781.4	1982	836.1	16.98	2.660	2.175	2.061	1.971	1.995	2.450	2.509	2.606	2.853	2.721	2.896	2.905	3.286	3.077	2.870	2.900	2.988	2.847	3.046	2.902	2.832	2.744	2.611	2.862	2.657	2.678	2.841	2.747	2.663	2.641	2.629
440.0	913.6	549.5	581.5	644.1	680.0	689.3	680.0	677.9	664.7	658.4	632.9	606.3	559.2	521.2	466.1	421.2	393.4	375.7	360.4	345.9	341.9	334.5	332.8	330.8	324.6	314.6	302.9	289.7	273.8	253.7	225.1	202.8	187.4	147.8	100.6	75.25	56.85	41.63	31.12	24.45	35.41	74.14	194.7	1127	2034	228.7	9.410	2.519	2.310	1.976	1.955	2.384	2.387	2.511	2.682	2.749	2.751	2.929	2.911	3.021	3.126	3.123	2.822	2.883	3.061	2.573	2.730	2.694	2.675	2.646	2.734	2.641	2.699	2.476	2.622	2.656	2.546
445.0	939.9	772.6	568.6	615.0	661.7	657.4	656.0	662.7	652.9	638.0	611.9	582.7	536.6	495.6	445.0	401.5	372.7	356.7	344.9	329.6	323.6	322.1	318.9	316.3	311.4	301.4	291.9	282.1	266.2	249.1	222.3	192.1	174.7	161.5	113.3	81.26	60.76	45.37	34.26	26.00	22.82	27.76	52.54	297.0	1426	1727	167.8	4.963	2.271	2.111	2.087	2.345	2.446	2.536	2.613	2.491	2.874	3.009	2.751	2.950	2.795	2.780	2.681	2.854	2.743	2.582	2.647	2.636	2.550	2.517	2.756	2.412	2.425	2.360	2.322	2.555	2.357
450.0	664.6	1283	703.8	579.7	618.7	628.3	632.3	641.9	620.2	606.6	593.8	553.8	508.1	463.0	409.6	371.1	344.7	329.2	315.1	307.0	297.4	296.4	293.2	291.3	288.0	282.3	274.2	266.7	253.4	237.1	213.9	188.3	161.0	148.5	129.7	93.52	66.65	50.43	38.31	29.24	23.17	19.85	22.01	74.59	369.1	1113	1502	522.9	11.61	2.296	2.123	2.368	2.377	2.456	2.534	2.450	2.849	2.730	2.782	2.710	2.822	2.788	2.533	2.670	2.522	2.625	2.519	2.480	2.380	2.457	2.450	2.338	2.266	2.230	2.142	2.236	2.196
455.0	382.7	1342	1253	568.9	572.2	597.7	595.6	596.1	582.2	569.5	552.9	519.5	473.5	425.0	377.4	339.7	313.6	299.7	283.4	275.8	270.4	266.6	267.9	264.3	263.0	260.8	252.7	246.3	238.3	225.8	203.8	179.7	153.6	133.2	122.9	108.0	75.73	54.08	42.77	32.08	25.28	20.50	17.19	25.95	89.22	256.6	665.8	1633	208.1	13.28	2.418	2.408	2.405	2.368	2.293	2.495	2.526	2.542	2.723	2.694	2.777	2.553	2.689	2.491	2.342	2.495	2.368	2.277	2.386	2.324	2.236	2.278	2.140	2.005	2.186	2.192	2.143
460.0	261.7	929.8	1885	686.0	528.5	563.6	569.9	553.1	551.8	531.0	514.0	493.9	441.4	395.1	352.4	317.2	292.8	277.0	265.0	252.3	248.4	243.5	247.5	244.1	242.0	240.9	236.0	233.5	224.4	213.1	198.4	173.5	149.6	126.4	111.5	108.4	87.52	58.05	44.43	34.31	27.96	21.83	17.11	16.34	27.98	64.08	163.0	887.9	1479	173.6	8.670	2.795	2.418	2.350	2.298	2.361	2.319	2.593	2.487	2.393	2.501	2.514	2.395	2.470	2.431	2.358	2.186	2.130	2.133	2.118	2.052	2.158	2.163	1.901	2.051	1.953	1.963
465.0	238.8	549.2	1981	971.6	501.1	522.9	527.0	528.2	521.7	504.5	488.4	467.6	413.5	367.0	330.4	294.3	270.5	259.7	245.2	236.6	229.7	224.1	228.1	224.9	226.1	222.3	220.6	217.5	210.8	201.1	187.6	164.8	142.7	122.6	103.5	98.72	91.98	64.71	45.71	35.92	29.45	23.34	18.89	15.08	14.93	21.65	42.56	230.4	1083	1276	143.0	4.982	2.371	2.335	2.274	2.282	2.458	2.492	2.372	2.417	2.385	2.463	2.306	2.332	2.410	2.057	2.300	2.070	2.043	1.982	1.875	1.883	1.946	1.963	1.953	1.894	1.887
470.0	229.3	351.7	1221	1929	635.5	467.0	482.5	489.6	475.9	460.4	445.3	417.6	374.2	336.2	295.3	263.1	242.3	231.7	219.3	210.7	204.0	200.9	201.6	200.6	202.0	198.0	196.1	194.9	192.1	182.5	171.5	152.7	132.1	114.2	97.45	85.87	81.97	72.23	51.75	37.75	29.94	24.52	19.94	16.35	13.21	12.67	15.89	56.75	280.5	811.4	1027	399.2	11.56	2.624	2.240	2.289	2.213	2.370	2.260	2.268	2.197	2.183	2.291	2.208	2.124	2.000	2.090	1.933	1.970	1.786	1.742	1.758	1.779	1.757	1.698	1.729	1.770
475.0	247.8	282.8	578.2	1913	1488	450.6	432.3	439.2	432.1	415.2	409.8	376.4	337.8	297.4	262.6	235.7	215.5	204.1	197.3	187.0	180.1	175.8	177.4	176.2	175.9	174.9	171.3	172.8	170.4	164.9	153.0	137.7	122.7	105.7	90.32	79.13	68.83	66.71	58.80	41.58	30.93	25.05	20.77	17.08	13.56	11.46	10.76	18.69	67.38	186.2	432.2	1092	206.4	14.10	2.281	2.125	2.229	2.036	2.053	2.385	1.971	2.151	2.046	1.895	1.912	1.835	1.986	1.888	1.804	1.676	1.776	1.542	1.742	1.547	1.516	1.470	1.692
480.0	225.3	286.7	380.1	1248	2122	552.8	395.6	398.8	401.2	385.8	379.7	349.7	313.3	272.1	243.1	214.1	200.1	184.9	178.2	167.4	162.7	159.4	158.8	160.9	160.9	160.2	159.3	156.3	157.8	150.4	142.5	128.6	113.1	100.0	86.53	74.23	63.84	57.90	58.49	47.74	32.66	25.58	20.81	17.40	14.50	12.17	10.00	10.34	19.94	45.65	105.8	566.5	1052	189.8	7.184	2.185	2.236	1.970	1.993	2.015	1.791	1.731	1.780	1.914	1.733	1.661	1.801	1.748	1.787	1.628	1.595	1.600	1.530	1.413	1.492	1.500	1.384
485.0	203.3	294.0	310.1	652.6	2263	1031	375.0	371.4	372.8	359.8	349.1	325.5	292.6	258.8	224.5	200.0	185.7	171.5	166.6	156.4	150.2	148.9	148.1	148.8	149.9	147.5	144.5	147.5	143.8	140.0	133.8	120.2	106.2	94.65	82.28	70.53	61.02	53.63	52.41	50.68	36.66	26.75	21.70	17.69	15.03	12.40	10.25	8.701	9.953	14.51	27.24	147.3	753.3	996.7	141.8	3.724	2.388	1.995	1.849	1.796	1.727	1.748	1.797	1.804	1.730	1.700	1.664	1.649	1.593	1.596	1.398	1.534	1.417	1.454	1.445	1.350	1.376
490.0	171.1	288.3	289.5	371.5	1392	1974	456.5	342.9	338.5	330.0	318.7	297.6	265.0	235.7	205.0	180.0	166.9	156.9	148.2	142.6	136.0	134.6	133.2	133.3	134.2	132.4	131.6	131.5	130.2	128.0	120.5	110.6	99.09	87.50	77.02	66.91	57.27	49.78	45.43	46.05	41.88	30.29	22.67	18.35	15.40	13.29	11.09	9.161	7.946	7.719	10.05	36.39	195.6	603.5	868.0	354.9	12.22	2.235	1.963	1.847	1.715	1.689	1.649	1.754	1.501	1.589	1.571	1.633	1.461	1.349	1.344	1.359	1.345	1.319	1.316	1.178	1.228
495.0	146.0	258.4	286.5	281.0	580.8	2041	1239	319.3	302.4	301.1	287.1	268.1	239.3	211.9	182.9	161.8	150.5	140.1	132.1	125.7	120.9	118.1	119.3	120.2	119.8	118.1	114.6	116.5	116.8	113.2	110.1	100.2	90.13	81.19	69.99	61.68	53.24	45.95	41.76	38.41	39.06	35.85	24.93	18.97	15.45	13.52	11.58	9.587	7.946	6.829	6.579	11.66	46.66	138.8	398.2	1025	231.1	15.01	2.020	1.767	1.633	1.697	1.532	1.742	1.379	1.539	1.489	1.346	1.324	1.247	1.184	1.276	1.227	1.143	1.127	1.221	1.159
500.0	119.8	208.5	294.1	263.4	324.1	1343	2028	386.2	281.2	268.6	262.7	247.7	218.4	194.5	165.8	148.1	136.2	126.1	121.0	113.0	110.7	107.4	107.9	108.0	108.4	104.8	106.3	106.1	106.7	104.0	99.76	93.36	82.47	74.98	65.36	57.51	49.82	43.91	38.99	34.30	33.12	35.00	28.23	19.84	15.52	13.67	11.90	9.924	8.590	6.840	5.812	6.310	13.59	33.78	97.00	530.2	1010	202.6	7.822	1.838	1.593	1.513	1.616	1.487	1.409	1.416	1.298	1.239	1.290	1.061	1.199	1.164	1.137	1.103	1.067	1.208	1.070
505.0	108.0	164.0	287.2	255.9	250.8	665.4	2310	789.6	256.1	251.3	245.2	229.9	202.7	178.6	152.8	139.0	123.7	115.7	108.0	103.0	100.7	97.91	97.66	96.79	97.19	95.34	96.51	95.66	97.52	96.18	90.84	84.05	76.21	68.76	60.08	53.34	47.17	41.62	36.92	32.13	29.43	31.26	29.85	21.72	16.03	13.53	11.66	10.13	8.261	7.181	5.658	5.142	5.857	10.41	24.34	135.9	675.1	920.3	153.7	3.693	1.554	1.385	1.454	1.396	1.362	1.348	1.256	1.280	1.091	1.053	1.208	1.121	1.066	0.982	0.980	1.102	0.951
510.0	102.5	129.2	224.9	257.2	216.5	321.2	1474	1812	309.9	225.3	216.5	205.8	178.9	155.8	134.7	120.2	109.3	101.9	95.69	90.44	87.46	85.85	84.99	85.55	84.71	83.72	84.36	83.25	85.45	82.13	79.59	73.74	67.22	60.20	54.13	47.71	43.30	38.24	34.00	29.22	26.40	25.24	26.53	24.42	17.42	13.45	10.92	9.699	8.240	7.013	6.139	5.082	4.510	5.202	8.048	32.64	172.4	530.5	727.8	282.9	11.47	1.584	1.348	1.257	1.264	1.189	1.128	1.147	0.983	0.960	1.078	0.996	0.930	0.961	0.840	0.901	0.909
515.0	93.93	108.5	167.9	241.6	205.5	220.0	553.4	2135	981.4	202.1	191.0	176.9	154.3	134.1	116.8	104.0	94.89	88.79	82.01	77.59	75.25	74.81	74.94	72.44	72.73	70.99	72.27	70.82	72.61	72.06	68.60	64.73	58.32	52.05	47.45	41.83	38.09	34.01	29.95	27.29	22.91	21.29	20.80	22.94	20.79	14.34	10.72	9.312	7.863	6.762	5.703	5.324	4.563	3.934	4.141	9.579	40.44	121.0	300.1	771.0	229.1	14.05	1.576	1.410	1.126	1.096	0.942	0.863	0.972	0.981	0.828	0.912	0.860	0.905	0.822	0.805	0.731
520.0	84.03	109.2	141.0	213.8	220.9	178.8	263.1	1463	1869	252.5	171.3	161.5	138.9	121.5	105.6	93.06	86.28	79.43	73.52	69.66	66.62	65.63	64.79	64.09	64.38	63.49	63.29	63.09	64.41	64.45	61.46	57.84	52.16	47.52	42.56	38.76	34.40	30.98	27.23	25.01	21.85	19.16	17.94	17.82	21.15	16.45	11.00	8.908	7.758	6.626	5.665	5.318	4.643	3.689	3.481	4.379	10.98	28.90	71.97	381.7	740.4	193.9	7.503	1.455	1.222	1.143	0.902	0.903	1.002	0.893	0.775	0.833	0.783	0.859	0.852	0.804	0.748
525.0	76.56	99.69	121.3	181.4	227.2	163.3	173.6	687.6	2418	589.3	156.9	146.6	128.1	109.8	95.40	86.38	77.47	71.46	66.27	61.34	60.79	58.01	57.19	56.71	57.35	56.70	57.14	55.92	58.04	57.72	54.00	52.03	46.48	43.55	39.05	35.86	31.30	27.82	25.13	22.99	19.89	18.37	16.16	15.21	18.08	17.48	12.49	8.570	7.279	6.425	5.554	5.013	4.508	3.774	3.168	3.389	4.516	8.251	17.88	95.92	458.0	669.9	32.54	2.971	1.160	1.028	0.917	0.913	0.957	0.790	0.760	0.761	0.657	0.762	0.817	0.727	0.742
530.0	65.96	87.01	103.2	127.4	199.0	170.1	141.3	271.7	1627	1728	201.1	125.0	109.8	97.25	83.84	73.71	67.12	61.19	57.34	54.14	53.42	50.59	49.59	49.08	48.93	49.09	48.71	49.24	50.28	49.54	47.46	44.36	40.74	37.65	33.89	31.00	28.04	25.20	22.33	20.56	18.06	16.37	14.69	13.13	13.73	15.17	13.74	9.853	7.128	6.030	5.154	4.505	4.228	3.850	3.290	3.041	3.071	3.740	5.670	22.95	114.8	358.5	491.4	136.9	11.57	1.142	0.910	0.864	0.793	0.806	0.751	0.696	0.679	0.653	0.710	0.649	0.639
535.0	60.79	72.68	87.60	99.66	142.9	188.1	126.1	150.2	562.4	2302	803.6	111.2	95.92	82.14	72.98	60.57	57.19	52.03	48.86	46.19	43.78	43.27	41.83	42.52	41.41	41.25	41.40	41.66	41.90	41.35	40.56	38.33	34.69	31.57	28.49	26.71	24.13	21.43	19.79	18.09	15.73	14.48	13.38	11.77	11.51	11.41	13.16	11.08	7.488	5.387	4.921	4.410	3.779	3.547	3.473	2.917	2.607	2.492	2.917	6.585	26.98	81.52	185.3	507.4	224.6	14.19	0.966	0.814	0.707	0.655	0.736	0.639	0.636	0.641	0.610	0.586	0.531
540.0	54.62	66.18	78.12	82.47	111.8	177.0	135.2	111.6	211.2	1582	1729	138.9	85.13	72.90	63.04	54.65	50.11	47.34	42.39	41.28	39.44	37.77	37.27	36.58	36.46	36.06	35.40	35.93	36.69	36.07	34.32	33.28	30.11	27.72	25.83	23.08	21.46	18.96	17.62	15.89	14.02	13.21	11.65	10.62	9.774	9.221	10.53	10.87	7.922	5.343	4.752	4.135	3.557	3.168	3.469	3.106	2.485	2.164	2.249	2.920	7.345	19.31	43.85	233.3	527.6	181.5	7.082	0.950	0.775	0.588	0.686	0.584	0.571	0.581	0.518	0.501	0.502
545.0	47.84	62.17	70.39	76.67	93.22	148.9	142.4	97.87	120.4	685.2	2397	223.1	76.04	63.94	55.28	48.67	44.27	41.58	38.34	35.25	34.02	33.49	31.97	32.21	31.36	32.06	31.02	31.50	31.44	32.27	31.03	30.63	26.56	24.70	22.31	20.09	18.37	16.78	15.88	13.89	12.44	11.86	10.60	9.763	8.588	7.810	8.225	9.522	8.467	6.009	4.512	3.637	3.258	3.008	2.986	2.875	2.708	2.259	1.905	1.975	2.702	5.502	10.92	57.05	288.4	480.3	33.30	2.674	0.825	0.644	0.657	0.621	0.509	0.508	0.497	0.486	0.459
550.0	49.98	59.29	64.81	66.80	70.88	97.33	146.6	92.43	87.93	227.7	1577	1313	109.7	53.73	46.91	41.56	38.06	34.67	32.40	30.10	28.46	28.26	26.50	26.74	26.18	26.35	26.05	26.39	25.98	26.63	25.79	24.33	22.29	20.56	18.84	17.33	15.79	14.10	13.18	11.86	10.67	10.12	8.759	8.227	7.495	6.826	6.454	7.049	8.005	6.662	4.706	3.342	2.982	2.588	2.435	2.361	2.588	2.321	1.770	1.606	1.698	2.208	3.452	13.65	70.16	227.6	325.6	133.9	11.57	0.710	0.588	0.633	0.528	0.425	0.513	0.461	0.458
555.0	51.03	52.72	61.19	53.95	58.77	64.88	121.4	108.3	69.58	100.6	498.8	2042	498.0	47.15	39.22	33.09	30.85	28.21	24.59	24.16	22.25	22.70	21.38	21.34	21.00	21.57	21.49	21.42	21.25	21.11	20.35	19.37	17.81	16.98	15.01	14.09	12.76	11.75	10.69	10.02	9.128	8.134	7.449	6.792	6.295	5.882	5.308	5.067	5.718	6.070	5.305	3.272	2.678	2.322	2.044	2.074	2.033	2.243	1.825	1.509	1.237	1.285	1.683	3.961	16.41	51.74	111.8	316.4	202.1	14.13	0.773	0.510	0.448	0.394	0.452	0.390	0.393
560.0	46.60	53.24	60.63	50.50	49.37	50.47	85.78	120.9	64.16	67.53	164.0	1424	1261	62.75	32.45	27.94	26.40	23.09	21.60	20.76	19.08	19.03	18.52	18.07	18.01	18.20	17.97	17.15	17.91	17.73	17.24	16.66	14.52	14.42	12.89	12.01	10.65	10.30	9.535	8.598	7.593	7.427	6.129	6.001	5.361	4.876	4.678	4.244	4.047	4.940	5.376	3.796	2.500	2.190	1.950	1.890	1.933	1.675	1.867	1.544	1.276	1.104	1.088	1.724	4.503	12.34	26.20	129.6	328.3	149.9	6.771	0.601	0.501	0.389	0.435	0.411	0.376
565.0	47.71	55.72	53.24	48.89	42.73	41.53	60.69	119.9	74.67	55.61	77.83	585.5	1946	146.5	29.69	24.86	23.60	20.66	19.20	17.88	16.49	15.95	16.20	15.55	14.63	15.25	14.57	14.36	15.24	15.23	14.80	13.95	13.17	12.04	10.63	9.901	8.966	8.669	7.825	7.502	6.708	6.124	5.324	5.059	4.938	4.348	3.904	3.608	3.290	3.776	4.550	4.052	2.595	1.969	1.774	1.968	1.514	1.520	1.694	1.745	1.243	1.037	0.970	1.090	1.791	3.442	6.504	30.88	154.0	294.7	34.27	3.010	0.545	0.420	0.369	0.391	0.411
570.0	44.98	50.87	53.75	41.24	37.99	35.59	43.88	87.72	94.83	51.19	53.26	176.5	1312	931.4	52.99	20.86	18.40	17.07	15.30	14.54	13.22	12.66	12.96	12.48	12.47	12.12	11.87	12.06	12.11	12.27	12.09	11.01	10.23	9.341	8.629	8.210	7.492	7.230	6.498	6.029	5.269	5.091	4.488	4.144	3.982	3.610	3.361	2.985	2.854	2.663	3.161	3.542	2.879	2.050	1.640	1.517	1.311	1.288	1.289	1.505	1.506	1.194	0.907	0.932	1.173	1.439	2.109	7.526	36.61	121.4	186.1	108.5	11.39	0.521	0.382	0.379	0.410
575.0	51.60	51.29	49.04	39.46	31.50	31.53	34.22	52.93	103.5	59.89	45.67	69.18	395.5	1535	318.2	18.49	14.76	13.44	12.30	11.34	10.96	10.37	10.06	9.875	9.649	9.828	9.689	9.899	9.504	9.710	9.166	8.595	7.859	7.423	6.954	6.421	5.948	5.588	4.940	4.686	4.233	4.306	3.657	3.384	3.274	2.969	2.831	2.725	2.391	2.004	2.113	2.674	2.786	2.326	1.546	1.331	1.102	1.095	1.138	1.149	1.424	1.411	1.082	0.801	0.945	0.909	1.109	2.314	8.843	27.62	55.33	171.1	145.7	13.86	0.564	0.368	0.414
580.0	53.31	53.06	45.84	36.28	32.63	29.29	30.17	40.66	92.09	76.19	43.32	46.77	119.5	1060	886.5	26.93	13.18	11.56	10.62	9.852	9.248	9.017	8.678	8.451	7.850	8.153	7.917	8.124	8.067	8.188	7.902	7.526	6.908	5.918	5.748	5.347	5.395	4.664	4.345	4.060	3.698	3.560	3.215	2.858	3.077	2.663	2.386	2.333	2.026	1.818	1.683	1.922	2.471	2.308	1.724	1.203	1.204	1.093	1.037	0.998	1.051	1.282	1.220	0.879	0.813	0.674	0.912	1.146	2.512	6.747	13.05	60.32	185.2	107.0	6.825	0.403	0.341
585.0	48.28	48.40	42.25	35.50	32.58	28.53	26.66	31.52	64.64	93.74	42.75	41.08	51.92	421.5	1372	90.88	11.30	10.07	9.196	8.878	8.156	7.308	7.617	7.108	6.621	6.981	6.791	7.065	6.631	6.968	6.785	6.000	5.927	5.226	4.842	4.624	4.275	4.022	3.718	3.431	3.240	3.106	2.794	2.566	2.439	2.222	2.125	1.921	1.770	1.523	1.387	1.424	1.749	2.200	1.818	1.386	1.060	1.039	0.975	0.952	0.899	0.964	1.246	0.910	0.685	0.667	0.798	0.816	1.098	2.080	3.351	14.36	74.09	175.2	34.40	2.851	0.429
590.0	46.96	48.37	45.89	35.65	27.68	24.10	24.25	28.40	44.00	92.73	59.18	39.65	36.16	121.3	894.6	623.2	22.39	8.549	7.682	7.271	6.235	6.171	6.027	5.789	5.584	6.033	5.527	5.892	5.583	5.545	5.594	5.137	4.877	4.461	3.996	3.768	3.562	3.290	3.065	2.896	2.679	2.585	2.411	2.245	2.058	2.051	1.772	1.634	1.556	1.347	1.287	1.205	1.203	1.400	1.704	1.492	1.047	0.969	0.814	0.798	0.774	0.715	0.870	1.106	0.868	0.756	0.764	0.714	0.749	0.971	1.283	3.646	17.37	63.82	107.3	74.48	10.87
595.0	46.56	45.66	47.03	33.69	24.74	23.51	22.77	27.60	32.27	64.91	83.26	41.33	33.30	45.81	260.9	983.2	94.04	7.979	5.907	5.866	5.115	5.032	4.768	4.732	4.418	4.940	4.418	4.725	4.563	4.431	4.336	3.992	3.668	3.508	3.266	3.080	2.796	2.512	2.442	2.479	2.070	1.948	1.757	1.852	1.784	1.610	1.499	1.259	1.368	1.057	1.086	1.050	0.958	0.962	1.332	1.564	1.122	0.869	0.719	0.634	0.781	0.636	0.668	0.928	0.891	0.860	0.659	0.656	0.625	0.738	0.717	1.189	4.243	14.55	28.75	90.45	97.07
600.0	44.54	43.99	43.97	30.66	25.41	22.40	24.69	28.91	30.17	48.58	89.84	49.66	35.35	31.41	76.30	683.7	512.8	12.70	5.105	5.244	4.717	4.314	4.049	4.201	3.911	4.063	3.799	3.620	3.952	3.592	3.632	3.472	2.962	3.171	2.723	2.820	2.370	2.102	2.169	2.220	1.903	1.756	1.562	1.777	1.593	1.346	1.206	1.287	1.274	0.954	0.844	0.806	0.808	0.769	1.018	1.326	1.271	0.932	0.717	0.557	0.605	0.661	0.588	0.672	0.830	1.004	0.674	0.644	0.610	0.543	0.587	0.673	1.271	3.599	6.771	28.83	103.5
605.0	40.96	50.33	47.56	34.49	26.52	22.99	26.21	32.60	36.34	46.27	89.39	68.45	42.73	33.37	36.36	274.7	823.5	57.67	5.180	4.446	4.037	3.868	3.598	3.543	3.533	3.121	3.210	3.269	3.394	3.285	2.983	2.942	2.748	2.415	2.441	2.205	2.091	1.887	1.793	1.802	1.545	1.515	1.410	1.366	1.260	1.167	1.191	1.045	1.066	0.855	0.746	0.790	0.669	0.692	0.809	0.959	1.196	1.053	0.850	0.614	0.632	0.616	0.610	0.587	0.588	0.841	0.915	0.643	0.587	0.549	0.587	0.538	0.639	1.145	1.894	6.789	37.90
610.0	39.74	49.38	47.34	33.18	28.94	25.97	30.94	40.15	45.57	53.66	81.99	103.0	62.05	45.28	36.75	86.73	575.1	407.4	12.46	3.980	3.556	3.294	3.021	2.889	2.857	2.856	2.636	2.731	2.660	2.434	2.613	2.416	2.320	2.070	1.967	1.824	1.821	1.647	1.506	1.486	1.408	1.253	1.115	1.074	1.112	0.922	1.010	0.926	0.806	0.716	0.645	0.717	0.618	0.549	0.676	0.718	0.956	1.057	0.841	0.645	0.584	0.633	0.598	0.616	0.601	0.707	0.835	0.843	0.757	0.593	0.565	0.528	0.557	0.634	0.763	1.813	8.925
615.0	40.64	54.00	45.29	36.87	31.25	26.24	32.45	42.10	47.83	59.69	73.50	108.8	78.55	52.77	40.38	41.66	180.9	648.0	70.14	3.760	2.954	2.886	2.433	2.481	2.092	2.327	2.257	2.188	2.102	2.195	2.044	1.861	2.047	1.718	1.734	1.596	1.525	1.390	1.188	1.151	1.060	0.981	0.986	0.881	0.991	0.840	0.852	0.744	0.690	0.620	0.591	0.659	0.616	0.537	0.548	0.499	0.761	0.901	0.937	0.753	0.595	0.503	0.585	0.642	0.585	0.695	0.665	0.846	0.874	0.816	0.578	0.523	0.523	0.547	0.587	0.699	2.285
620.0	41.31	48.62	46.08	36.99	29.36	28.79	35.06	41.65	46.22	59.30	70.79	94.04	92.56	55.24	42.00	31.86	61.27	475.1	330.4	6.420	2.728	2.556	2.229	2.337	1.889	1.975	2.022	1.794	1.751	1.933	1.892	1.567	1.588	1.420	1.413	1.268	1.213	1.188	1.106	0.954	0.970	0.804	0.895	0.843	0.801	0.762	0.788	0.661	0.621	0.579	0.487	0.590	0.532	0.564	0.481	0.504	0.535	0.763	0.896	0.740	0.563	0.480	0.484	0.648	0.537	0.693	0.551	0.651	0.860	0.726	0.503	0.551	0.545	0.407	0.493	0.479	0.872
625.0	38.96	47.51	46.36	35.57	31.11	29.06	36.13	38.77	44.25	55.73	66.30	80.70	98.48	55.99	40.51	28.39	32.45	204.5	553.1	32.00	2.508	2.171	1.817	1.856	1.818	1.762	1.716	1.603	1.740	1.622	1.643	1.454	1.307	1.250	1.245	1.165	1.069	0.986	0.956	0.785	0.726	0.867	0.734	0.703	0.709	0.674	0.563	0.554	0.537	0.570	0.490	0.470	0.418	0.464	0.426	0.428	0.433	0.590	0.763	0.770	0.654	0.513	0.577	0.536	0.579	0.570	0.579	0.496	0.681	0.737	0.640	0.508	0.526	0.448	0.448	0.465	0.557
630.0	38.83	47.04	48.88	38.13	28.93	30.40	32.62	38.30	44.40	56.23	63.99	72.36	88.01	66.79	40.84	28.52	25.75	61.45	412.7	254.2	5.709	2.021	1.783	1.747	1.536	1.474	1.447	1.466	1.498	1.294	1.350	1.234	1.205	1.109	1.091	1.097	0.952	0.871	0.821	0.840	0.675	0.729	0.663	0.609	0.608	0.560	0.506	0.556	0.527	0.475	0.412	0.380	0.401	0.438	0.405	0.400	0.443	0.505	0.513	0.688	0.641	0.565	0.501	0.430	0.498	0.508	0.535	0.494	0.576	0.696	0.726	0.559	0.476	0.384	0.425	0.396	0.419
635.0	42.43	47.32	53.17	38.51	28.55	27.96	30.16	40.70	44.29	51.46	60.21	67.27	73.92	74.65	43.24	29.85	25.01	24.01	129.0	457.4	50.14	1.909	1.588	1.498	1.200	1.326	1.398	1.191	1.235	1.132	1.193	1.009	1.024	1.004	0.984	0.955	0.876	0.788	0.795	0.680	0.614	0.570	0.567	0.558	0.563	0.511	0.467	0.522	0.469	0.399	0.398	0.396	0.384	0.357	0.419	0.371	0.399	0.432	0.390	0.523	0.555	0.587	0.570	0.519	0.587	0.473	0.531	0.525	0.544	0.523	0.564	0.568	0.583	0.470	0.369	0.333	0.401
640.0	39.88	52.08	53.10	40.35	28.81	30.48	30.17	36.79	43.55	51.82	58.90	67.99	68.10	76.87	48.91	30.92	25.87	16.89	36.27	367.0	209.4	3.230	1.468	1.330	1.176	1.185	1.165	0.993	1.056	1.102	0.964	0.917	0.962	0.811	0.950	0.812	0.842	0.748	0.723	0.638	0.581	0.530	0.601	0.503	0.540	0.454	0.460	0.443	0.430	0.444	0.338	0.327	0.313	0.451	0.369	0.342	0.364	0.414	0.353	0.457	0.576	0.585	0.599	0.555	0.461	0.446	0.551	0.544	0.587	0.517	0.563	0.627	0.625	0.477	0.327	0.371	0.390
645.0	40.90	45.43	52.48	38.56	32.03	27.95	32.23	37.80	41.83	53.16	62.08	65.46	62.77	69.78	54.86	31.12	25.40	14.49	13.21	169.4	378.0	17.06	1.462	1.309	1.117	1.019	1.047	1.058	0.880	0.941	0.795	0.890	0.752	0.805	0.776	0.702	0.781	0.671	0.689	0.631	0.582	0.504	0.560	0.474	0.502	0.414	0.414	0.400	0.445	0.416	0.302	0.333	0.361	0.378	0.390	0.356	0.369	0.348	0.405	0.425	0.476	0.537	0.551	0.433	0.490	0.429	0.519	0.519	0.484	0.566	0.548	0.562	0.551	0.501	0.322	0.366	0.333
650.0	46.59	53.14	54.12	39.27	30.73	28.79	29.14	35.38	38.07	46.93	56.56	61.36	62.04	61.00	60.91	32.79	23.96	15.01	7.772	51.42	392.2	63.08	1.772	1.434	1.039	0.961	1.057	0.979	0.814	1.000	0.771	0.838	0.746	0.872	0.622	0.603	0.688	0.638	0.624	0.588	0.542	0.439	0.548	0.452	0.452	0.403	0.383	0.428	0.440	0.347	0.295	0.353	0.331	0.332	0.373	0.326	0.343	0.395	0.377	0.432	0.400	0.457	0.554	0.454	0.455	0.417	0.526	0.486	0.452	0.511	0.469	0.497	0.531	0.526	0.449	0.366	0.347
