Sample:	'1
File name:	Default_20230314_001254.FD3
Run date:	'00:06:33, 03/14/2023
Operator:	dsjg
Comment:	'

Instrument
Model:	F-2700 FL Spectrophotometer
Serial number:	2198-001
ROM Version:	4J14000 07

Instrument parameters
Measurement type:	3-D scan
Data mode:	Fluorescence
EX  Start WL:	220.0 nm
EX  End WL:	600.0 nm
EX Sampling interval:	5.0 nm
EM  Start WL:	230.0 nm
EM  End WL:	650.0 nm
EM Sampling interval:	5.0 nm
Scan speed:	12000 nm/min
EX Slit:	5.0 nm
EM Slit:	5.0 nm
PMT Voltage:	700 V
Response:	Auto 
Corrected spectra:	Off
Contour interval:	50.000

Peak integration
Integration method:	Rectangular
Sensitivity:	1
Threshold:	1.000

Peaks
No.	ApexEX/EM(nm)	Height(Data)
1	225.0/345.0	 1345
2	270.0/375.0	 5315
3	270.0/600.0	248.7
4	275.0/355.0	 5187
5	275.0/605.0	254.3
6	545.0/380.0	25.60
7	550.0/375.0	25.59
8	555.0/355.0	25.45
9	560.0/350.0	25.11

Data points
	220.0	225.0	230.0	235.0	240.0	245.0	250.0	255.0	260.0	265.0	270.0	275.0	280.0	285.0	290.0	295.0	300.0	305.0	310.0	315.0	320.0	325.0	330.0	335.0	340.0	345.0	350.0	355.0	360.0	365.0	370.0	375.0	380.0	385.0	390.0	395.0	400.0	405.0	410.0	415.0	420.0	425.0	430.0	435.0	440.0	445.0	450.0	455.0	460.0	465.0	470.0	475.0	480.0	485.0	490.0	495.0	500.0	505.0	510.0	515.0	520.0	525.0	530.0	535.0	540.0	545.0	550.0	555.0	560.0	565.0	570.0	575.0	580.0	585.0	590.0	595.0	600.0
230.0	45.48	773.6	 1440	344.2	18.71	14.27	18.86	21.84	23.19	22.22	20.92	19.86	17.66	15.54	13.64	12.47	12.04	11.29	10.84	10.57	10.04	9.453	9.562	9.253	8.826	8.730	8.187	7.663	7.361	7.394	7.069	6.447	6.309	6.050	5.451	4.999	4.479	3.982	3.596	3.367	3.086	2.853	2.654	2.557	2.339	2.288	2.439	4.211	7.154	7.088	4.137	1.959	1.374	1.351	1.310	1.224	1.150	1.110	0.991	0.961	0.853	0.803	0.724	0.706	0.648	0.622	0.564	0.487	0.491	0.387	0.363	0.329	0.321	0.213	0.202	0.239	0.191
235.0	17.06	225.1	 1171	 2362	418.2	54.23	23.89	28.21	27.69	24.48	24.21	22.15	19.84	16.91	15.11	13.72	12.55	12.00	11.35	11.34	10.37	9.811	9.820	9.534	9.818	8.743	8.339	8.233	7.573	7.560	7.071	6.605	6.040	5.918	5.637	4.777	4.472	4.178	3.741	3.442	3.254	2.856	2.632	2.560	2.366	2.326	2.258	2.615	3.450	5.165	8.090	12.68	9.797	3.647	1.407	1.196	1.201	1.092	1.052	0.863	0.915	0.882	0.685	0.790	0.680	0.631	0.627	0.534	0.537	0.427	0.321	0.322	0.360	0.233	0.196	0.263	0.212
240.0	15.81	62.26	423.9	 2861	 3646	396.5	57.13	35.54	34.74	31.62	28.29	25.31	22.27	18.85	16.81	14.51	13.24	12.50	11.95	11.83	11.10	10.26	10.28	9.767	10.01	9.593	8.606	8.492	7.934	8.152	7.475	6.687	6.218	5.635	5.312	4.942	4.602	4.305	3.953	3.700	3.261	2.844	2.649	2.633	2.531	2.339	2.178	2.124	2.174	2.684	4.587	12.77	24.17	21.19	12.94	3.187	1.285	1.203	1.122	0.945	0.974	0.941	0.715	0.828	0.745	0.684	0.633	0.580	0.492	0.441	0.386	0.399	0.250	0.276	0.227	0.279	0.157
245.0	24.05	34.32	115.6	 1336	 8039	9999.9	342.2	59.92	46.63	39.06	34.37	30.50	24.65	20.84	17.86	15.52	14.76	13.99	12.69	11.96	11.35	10.80	10.54	10.11	10.06	9.762	9.167	8.744	8.281	7.957	7.508	6.877	6.264	5.768	5.543	5.153	4.709	4.369	4.090	3.755	3.278	3.228	2.652	2.619	2.549	2.360	2.333	2.183	1.895	2.007	2.389	5.138	15.52	39.77	65.15	22.88	13.01	2.201	1.316	1.073	1.077	0.902	0.943	0.797	0.749	0.713	0.619	0.602	0.516	0.421	0.418	0.396	0.293	0.269	0.289	0.247	0.221
250.0	38.56	41.11	59.70	349.8	 3469	9999.9	9999.9	 8012	146.2	63.57	49.69	40.85	32.58	25.98	21.50	18.83	17.49	15.72	14.60	13.57	12.64	11.55	11.33	10.71	10.56	10.45	9.600	9.102	8.800	8.244	7.969	7.249	6.335	5.935	5.632	5.050	4.847	4.457	4.061	3.852	3.448	3.278	3.036	2.848	2.706	2.660	2.397	2.245	2.030	1.828	2.030	2.513	4.908	13.94	38.41	77.12	145.3	111.0	86.36	11.02	3.686	1.276	1.112	1.008	0.935	0.872	0.740	0.740	0.658	0.566	0.514	0.435	0.345	0.377	0.320	0.336	0.291
255.0	66.01	58.84	67.30	135.9	834.4	 3498	9999.9	9999.9	9999.9	191.1	84.97	61.04	46.46	36.33	29.29	23.93	20.96	18.82	16.24	15.40	14.20	13.04	12.39	11.81	10.99	11.29	10.36	9.279	9.202	9.287	8.513	7.938	6.757	6.317	5.849	5.161	5.074	4.580	4.124	4.012	3.774	3.547	3.245	2.958	2.970	2.812	2.574	2.366	2.102	2.101	1.973	2.017	2.479	4.571	10.15	19.85	56.10	149.3	329.5	380.3	153.1	16.15	3.029	1.432	1.327	1.131	1.038	0.909	0.844	0.680	0.665	0.673	0.472	0.466	0.491	0.447	0.410
260.0	89.60	77.16	74.70	97.76	260.9	875.0	 6230	9999.9	9999.9	9999.9	166.4	87.66	62.65	45.16	36.85	29.38	24.75	21.95	18.97	17.31	15.32	14.58	12.86	12.66	12.03	11.96	10.67	10.22	10.16	9.765	9.149	8.670	7.288	6.593	6.100	5.233	5.186	4.630	4.438	4.202	3.726	3.599	3.438	3.216	3.219	3.117	2.839	2.608	2.296	2.202	2.108	2.136	2.225	2.608	3.912	5.897	14.40	42.45	151.4	362.8	526.9	205.7	25.55	11.89	2.047	1.627	1.344	0.995	0.939	0.963	0.814	0.798	0.650	0.616	0.655	0.615	0.636
265.0	108.5	91.88	86.25	90.29	145.1	293.9	 1571	9999.9	9999.9	9999.9	 8863	149.2	87.39	61.09	47.38	35.63	28.98	25.09	22.07	19.38	17.24	15.42	14.72	14.12	13.52	12.59	11.68	11.45	10.51	10.21	9.386	9.122	7.852	7.112	6.241	5.587	5.589	4.711	4.355	4.450	3.857	3.849	3.602	3.644	3.301	3.255	2.945	2.692	2.642	2.236	2.186	2.170	2.197	2.305	2.445	3.004	4.892	11.27	37.02	111.5	303.0	533.3	637.1	196.7	21.40	6.570	1.894	1.460	1.279	1.147	0.995	0.991	0.847	0.768	0.725	0.772	0.595
270.0	140.5	108.4	91.68	88.64	109.9	182.5	486.6	 2539	9999.9	9999.9	9999.9	9999.9	542.6	99.63	70.22	51.17	40.36	33.46	27.01	23.20	20.27	18.38	16.73	15.58	14.66	13.62	12.81	12.15	11.42	10.94	10.31	9.655	8.553	7.715	7.118	6.223	5.684	5.257	4.747	4.355	4.275	4.148	3.907	3.904	3.530	3.547	3.196	2.913	2.687	2.418	2.149	2.291	2.102	2.288	2.263	2.511	2.986	4.320	10.12	26.82	72.96	162.3	324.4	463.3	602.7	481.8	308.4	14.13	6.180	1.728	1.524	1.342	1.136	1.014	1.024	0.915	0.846
275.0	195.4	138.3	104.8	92.20	103.7	147.5	295.3	794.3	 2496	 5181	9999.9	9999.9	9999.9	670.2	109.1	75.66	56.83	43.41	35.41	29.53	24.53	21.53	19.75	17.78	16.55	15.10	14.51	13.64	12.41	11.88	11.12	10.40	9.158	8.456	7.896	7.050	6.068	5.690	5.123	4.786	4.668	4.368	4.461	4.212	3.898	4.025	3.441	3.305	3.005	2.695	2.469	2.472	2.243	2.280	2.326	2.432	2.747	3.026	4.589	8.118	18.40	38.46	75.01	109.9	196.8	405.5	759.0	835.9	201.5	20.44	4.458	2.112	1.705	1.370	1.221	1.113	1.076
280.0	251.2	176.9	126.1	111.2	108.9	148.5	263.7	507.4	977.9	 1713	 8275	9999.9	9999.9	9999.9	467.5	100.4	75.39	56.84	43.10	35.52	28.97	24.55	22.12	20.00	17.91	16.17	15.69	14.40	13.18	12.98	11.88	10.86	9.629	9.259	7.921	7.492	6.656	6.237	5.411	5.051	4.957	4.800	4.618	4.528	4.323	4.016	3.709	3.580	3.198	2.887	2.587	2.608	2.506	2.347	2.403	2.433	2.607	3.049	3.621	4.640	7.046	11.86	20.26	28.21	48.21	108.4	295.6	634.9	892.3	806.0	28.12	14.63	2.693	1.930	1.603	1.508	1.419
285.0	317.6	224.7	156.3	122.5	126.7	171.2	292.3	530.0	869.5	 1224	 2903	9999.9	9999.9	9999.9	 6375	284.4	105.1	73.87	53.74	43.22	34.09	29.39	24.91	22.74	19.92	18.06	16.67	15.72	14.53	13.68	12.77	11.36	10.35	9.601	8.759	7.896	7.441	6.615	5.907	5.255	5.191	5.043	5.047	4.838	4.654	4.351	4.006	3.727	3.509	3.033	2.694	2.706	2.624	2.468	2.381	2.567	2.806	3.276	3.733	4.564	5.681	7.163	9.295	11.64	16.59	29.88	73.62	182.9	430.9	843.0	969.2	221.0	23.48	8.167	2.389	2.153	1.722
290.0	463.6	328.8	229.7	168.1	160.4	221.5	389.5	688.4	 1192	 1699	 2341	 4054	9999.9	9999.9	9999.9	9999.9	384.2	116.4	78.53	58.45	45.56	37.61	31.31	27.26	23.66	21.44	19.14	17.68	16.09	15.54	14.02	12.66	11.35	10.60	9.510	8.565	8.011	7.581	6.679	6.062	5.903	5.711	5.592	5.440	5.287	5.133	4.670	4.342	3.879	3.319	3.043	3.016	2.887	2.879	2.731	3.089	3.321	3.806	4.354	5.105	6.444	7.978	9.567	11.02	12.74	15.74	25.62	49.55	107.4	238.7	423.5	573.3	809.7	636.3	454.9	15.32	6.857
295.0	620.6	460.3	305.7	229.1	220.7	309.4	535.3	946.5	 1610	 2393	 3046	 3398	 4101	 5224	9999.9	9999.9	9999.9	470.1	126.9	89.38	61.69	49.03	40.01	34.15	29.80	25.36	22.74	20.59	18.63	17.10	15.71	14.21	12.93	11.43	10.26	9.537	8.958	8.264	7.514	6.928	6.392	6.400	5.996	5.970	5.784	5.677	5.308	4.825	4.414	3.817	3.507	3.397	3.453	3.359	3.300	3.635	4.019	4.587	5.436	6.555	8.021	10.02	11.64	13.87	15.64	16.22	18.53	23.69	34.86	62.61	101.8	137.3	243.4	451.8	972.3	 1177	224.4
300.0	700.2	539.4	376.7	286.7	283.2	399.8	680.1	 1198	 1964	 2854	 3640	 3749	 3181	 2575	 6795	9999.9	9999.9	9999.9	358.6	123.9	84.54	60.72	48.70	40.15	35.14	29.65	25.97	23.09	20.96	19.28	17.30	15.47	13.98	12.32	11.46	10.13	9.499	8.860	8.305	7.932	7.070	6.805	6.609	6.157	6.086	5.955	5.592	5.159	4.741	4.246	3.776	3.779	3.949	3.607	3.852	4.107	4.827	5.229	6.370	7.726	9.411	11.74	13.77	15.85	17.83	18.77	19.59	20.10	20.84	25.14	31.56	37.53	60.24	118.8	344.7	796.8	 1213
305.0	760.4	585.8	437.5	316.1	325.0	470.7	821.9	 1398	 2231	 3178	 3969	 4151	 3279	 2197	 2430	9999.9	9999.9	9999.9	 4053	263.0	111.4	81.22	58.70	49.11	40.29	34.24	28.92	25.95	23.12	21.32	18.92	16.71	14.88	13.09	12.09	10.63	10.07	9.393	8.819	8.061	7.759	7.205	7.116	6.789	6.486	6.105	5.727	5.514	5.201	4.321	3.980	4.106	4.000	3.878	4.233	4.664	5.350	6.230	7.346	8.877	10.43	12.85	15.63	17.52	18.86	20.25	21.31	21.11	18.99	18.13	17.27	16.59	19.59	31.59	83.31	219.4	528.2
310.0	792.4	625.3	473.1	355.9	368.1	552.7	939.9	 1538	 2382	 3319	 4084	 4271	 3541	 2365	 1578	 2928	 9974	9999.9	9999.9	9999.9	308.1	122.6	86.65	64.95	50.76	42.18	35.09	30.44	26.88	24.43	20.87	18.64	16.48	14.66	13.15	11.64	10.94	10.02	9.258	8.785	8.222	7.891	7.590	7.264	6.720	6.764	6.082	5.900	5.352	4.642	4.230	4.314	4.394	4.318	4.514	4.945	5.802	6.942	7.990	9.590	11.23	13.79	16.31	18.19	19.85	20.76	21.43	21.45	19.96	17.95	15.54	13.01	11.50	12.65	23.51	53.76	126.3
315.0	830.4	669.5	512.5	401.8	406.6	619.0	 1020	 1621	 2439	 3348	 4086	 4263	 3652	 2659	 1607	 1385	 2742	 3792	9999.9	9999.9	9999.9	380.9	129.1	91.80	67.63	52.32	42.49	36.09	32.56	28.40	24.19	21.47	18.40	15.82	14.58	12.62	11.62	10.83	10.29	9.459	9.015	8.354	8.111	8.090	7.399	7.367	6.606	6.179	5.553	5.095	4.436	4.716	4.854	4.680	4.953	5.412	6.414	7.373	8.582	10.42	11.90	14.23	16.37	18.82	19.92	21.21	21.28	21.43	20.09	18.49	16.65	13.87	10.78	9.422	10.95	17.19	32.71
320.0	960.2	773.5	599.7	446.9	457.3	665.2	 1081	 1704	 2511	 3396	 4128	 4342	 3803	 2904	 1878	 1206	 1220	 1282	 5139	9999.9	9999.9	9999.9	307.2	121.5	89.43	64.44	50.47	42.36	36.50	32.36	27.26	23.84	19.96	17.23	15.29	13.54	12.59	11.74	10.68	10.03	9.368	8.877	8.651	8.382	8.045	7.691	7.004	6.552	6.075	5.319	4.760	4.885	4.975	5.217	5.164	5.919	6.781	7.814	9.249	10.63	12.49	14.49	16.73	19.02	19.97	21.50	21.88	22.46	20.71	19.03	17.18	15.01	12.33	10.27	9.017	9.699	12.47
325.0	 1041	940.9	764.3	574.4	524.6	729.2	 1154	 1792	 2610	 3498	 4224	 4469	 4020	 3165	 2194	 1409	 1012	791.7	 1543	 7520	9999.9	9999.9	9999.9	239.8	112.8	82.56	60.13	49.58	41.64	35.43	30.88	25.74	22.21	19.28	16.67	14.29	13.37	12.00	11.37	10.34	9.615	9.401	8.812	8.748	8.475	8.298	7.737	7.263	6.910	5.802	5.183	5.483	5.317	5.398	5.671	6.198	7.291	8.075	9.652	11.07	12.97	15.00	16.84	19.22	20.94	21.70	22.50	23.20	21.98	20.47	18.71	16.27	14.00	11.86	9.989	8.966	8.763
330.0	 1196	 1128	947.8	775.6	693.1	857.2	 1288	 1935	 2734	 3608	 4356	 4625	 4288	 3498	 2507	 1704	 1179	805.2	790.5	 2066	 7906	9999.9	9999.9	9999.9	275.4	120.5	85.43	64.85	50.60	42.78	35.88	30.64	25.14	21.94	18.93	15.95	14.45	13.12	12.34	11.07	10.60	10.13	9.452	9.457	9.132	9.084	8.517	8.100	7.677	6.551	5.850	6.453	6.197	6.026	6.228	6.807	8.017	8.842	10.38	11.79	13.94	15.74	17.71	19.66	21.52	22.12	22.91	23.43	22.69	21.41	19.84	18.17	15.28	13.43	11.50	10.31	9.229
335.0	 1267	 1209	 1089	935.4	865.9	 1033	 1479	 2125	 2911	 3714	 4463	 4740	 4504	 3792	 2818	 1930	 1399	960.0	709.4	871.6	 2117	 3301	9999.9	9999.9	9999.9	336.4	125.8	90.95	67.83	52.11	42.74	36.03	29.53	24.85	21.11	17.94	16.13	14.72	13.01	12.25	11.02	10.76	9.953	10.02	9.741	9.892	9.276	8.811	8.146	7.124	6.389	6.726	6.746	6.694	6.955	7.492	8.609	9.932	11.33	13.08	14.82	16.35	18.55	20.09	21.67	22.89	23.26	23.55	23.23	22.72	21.49	20.00	17.36	15.17	12.87	11.52	10.64
340.0	 1309	 1296	 1181	 1036	989.6	 1215	 1699	 2355	 3147	 3873	 4548	 4829	 4681	 4036	 3095	 2127	 1534	 1138	802.3	683.1	888.5	 1121	 4358	9999.9	9999.9	9999.9	281.5	116.2	85.40	64.47	49.83	41.06	32.53	28.09	23.70	19.95	17.13	15.80	13.93	12.99	11.54	11.61	10.51	10.37	9.848	10.17	9.572	9.505	8.645	7.645	6.923	7.554	7.397	7.187	7.733	8.035	9.764	10.88	12.50	14.13	15.50	17.16	19.23	20.99	22.48	22.82	23.84	23.98	23.83	23.44	22.36	21.10	19.05	16.13	14.28	12.38	11.33
345.0	 1309	 1345	 1251	 1144	 1136	 1419	 1998	 2677	 3413	 4096	 4678	 4927	 4804	 4218	 3326	 2334	 1656	 1258	955.1	737.8	696.3	691.0	 1363	 7102	9999.9	9999.9	9999.9	220.2	107.8	80.22	59.40	46.57	36.32	30.38	26.03	21.22	18.60	17.12	14.71	13.40	12.30	11.71	10.97	10.67	10.16	10.36	9.942	9.814	8.896	7.995	7.292	8.328	7.637	7.706	8.550	9.048	10.54	12.14	13.86	15.32	17.23	18.63	20.51	21.88	23.45	23.35	24.06	24.38	24.47	23.77	23.44	21.93	20.33	17.00	15.02	13.34	11.59
350.0	 1301	 1310	 1247	 1208	 1311	 1768	 2514	 3317	 4009	 4471	 4908	 5071	 4926	 4356	 3528	 2568	 1863	 1383	 1099	889.6	740.7	661.0	730.1	 1971	 7647	9999.9	9999.9	9999.9	255.7	112.7	79.72	58.41	43.50	34.74	28.54	23.31	20.35	18.28	15.85	14.33	12.91	12.06	11.59	11.05	10.72	10.57	9.949	9.881	9.015	8.031	7.480	8.323	8.428	8.497	9.569	10.39	12.64	14.16	16.28	18.31	19.89	21.38	22.50	23.37	24.31	24.06	24.75	25.03	25.11	24.60	23.73	22.90	20.97	18.37	16.21	14.57	12.72
355.0	 1253	 1268	 1200	 1240	 1446	 2042	 2968	 3934	 4601	 4878	 5103	 5187	 5000	 4457	 3685	 2757	 2095	 1599	 1229	 1039	887.5	739.3	657.1	852.0	 2037	 3101	9999.9	9999.9	9999.9	317.7	111.8	78.85	56.50	41.13	33.39	26.96	22.91	20.20	17.14	15.20	14.30	12.76	12.29	11.69	11.12	10.97	10.17	10.02	9.248	8.148	7.659	8.484	8.847	9.144	10.64	11.95	14.34	16.65	18.57	20.82	22.50	23.73	24.38	24.44	24.83	24.70	25.24	25.45	24.90	25.03	24.20	22.89	21.69	18.86	16.94	15.51	13.94
360.0	 1206	 1211	 1176	 1224	 1467	 2092	 3054	 4065	 4716	 4926	 5079	 5082	 4900	 4388	 3663	 2796	 2158	 1690	 1324	 1115	 1015	844.1	698.1	650.8	819.6	971.5	 3978	9999.9	9999.9	9999.9	259.8	98.75	71.19	50.39	37.47	30.22	25.19	21.16	18.94	16.59	14.54	13.59	12.88	11.82	11.56	11.17	10.24	10.11	9.525	8.095	7.887	8.476	8.833	9.456	10.39	12.12	14.60	16.85	19.53	21.32	22.65	24.23	24.52	24.90	24.45	24.54	24.99	25.18	24.70	24.32	23.53	22.76	21.28	19.38	17.01	15.71	14.17
365.0	 1143	 1130	 1126	 1214	 1471	 2112	 3058	 4044	 4634	 4869	 5026	 4975	 4718	 4245	 3581	 2774	 2166	 1733	 1397	 1186	 1090	973.1	780.9	664.4	590.3	516.1	 1134	 6586	9999.9	9999.9	9999.9	197.4	87.51	62.92	44.85	33.44	28.23	23.81	21.02	17.87	15.76	14.34	13.45	12.18	11.53	11.25	10.27	10.10	9.447	8.190	7.681	8.586	8.845	9.439	10.39	12.24	14.98	17.01	19.60	21.06	22.43	23.34	24.23	24.69	24.63	24.10	24.47	24.15	24.14	23.75	22.61	22.42	20.87	18.97	17.10	15.55	13.91
370.0	 1100	 1082	 1091	 1222	 1552	 2195	 3149	 4112	 4719	 4912	 5094	 4986	 4594	 4107	 3506	 2798	 2252	 1852	 1526	 1344	 1265	 1149	 1011	908.1	700.6	484.9	521.1	 1706	 7468	9999.9	9999.9	9999.9	219.4	88.27	60.10	43.83	33.08	26.77	22.81	19.77	17.09	15.36	14.19	13.00	11.73	11.37	10.27	10.10	9.395	8.542	7.750	8.846	9.198	9.749	10.98	12.35	14.99	17.40	19.69	21.39	23.03	23.91	24.54	24.69	24.62	24.42	24.29	23.91	23.45	22.85	21.73	21.43	20.47	18.70	16.61	15.93	14.50
375.0	 1080	 1100	 1138	 1301	 1717	 2421	 3344	 4296	 4932	 5131	 5315	 5259	 4726	 4100	 3534	 2898	 2422	 2075	 1765	 1590	 1558	 1443	 1327	 1312	 1066	719.3	507.3	650.1	 1870	 2972	9999.9	9999.9	9999.9	265.7	84.17	57.94	43.62	31.88	26.28	21.91	18.76	16.98	15.09	13.60	12.54	11.90	10.59	10.49	9.591	8.909	8.079	9.124	9.878	10.77	11.84	13.34	15.99	18.40	20.57	22.21	23.70	24.99	25.42	25.45	25.37	25.45	25.59	24.83	23.95	22.84	22.06	21.23	20.63	18.73	17.30	16.38	15.61
380.0	 1077	 1088	 1146	 1320	 1784	 2525	 3421	 4318	 4840	 5067	 5273	 5239	 4726	 4057	 3486	 2900	 2465	 2159	 1866	 1708	 1684	 1577	 1477	 1489	 1254	901.0	619.0	471.2	659.5	853.0	 3879	9999.9	9999.9	9999.9	210.9	71.72	52.51	39.59	30.06	24.37	20.63	17.73	16.21	14.54	13.33	12.45	11.15	10.71	9.766	8.770	8.202	9.347	10.01	11.08	12.49	14.05	16.21	18.09	20.47	21.92	23.33	24.35	25.17	25.31	25.11	25.60	25.13	25.02	24.55	22.95	21.70	20.62	20.14	18.74	17.15	16.25	15.61
385.0	 1023	 1046	 1085	 1264	 1722	 2431	 3308	 4137	 4605	 4793	 5033	 4969	 4465	 3876	 3372	 2822	 2416	 2137	 1875	 1737	 1727	 1598	 1488	 1535	 1319	906.4	634.6	457.7	407.8	388.3	 1046	 6455	9999.9	9999.9	9999.9	145.8	63.20	47.28	35.40	27.40	22.25	18.80	16.81	15.25	13.86	12.80	11.46	10.79	9.973	9.006	8.072	9.427	9.873	10.87	12.17	13.62	15.93	18.08	20.09	20.96	22.41	23.63	24.09	23.90	23.81	24.45	24.31	23.68	22.86	21.77	21.26	19.89	19.19	18.12	16.74	16.18	15.51
390.0	963.8	954.6	 1023	 1205	 1631	 2280	 3087	 3910	 4366	 4445	 4672	 4611	 4136	 3626	 3214	 2736	 2354	 2091	 1850	 1735	 1751	 1614	 1488	 1547	 1328	929.1	646.6	463.4	370.0	310.4	414.3	 1616	 6767	9999.9	9999.9	 8744	173.7	65.02	45.26	34.57	26.12	21.16	18.44	16.26	14.54	13.66	11.97	11.39	10.20	8.991	8.036	9.308	9.728	10.61	11.71	13.16	15.36	16.96	19.06	20.49	21.04	22.29	22.62	22.01	22.59	22.94	22.74	22.00	21.23	20.70	19.54	18.95	18.53	17.29	16.51	15.92	15.18
395.0	922.4	894.9	963.5	 1148	 1567	 2163	 2902	 3638	 4116	 4139	 4313	 4291	 3847	 3380	 3036	 2643	 2309	 2061	 1834	 1717	 1746	 1629	 1513	 1565	 1348	985.9	717.9	506.0	390.6	316.8	293.9	532.0	 1657	 2749	9999.9	9999.9	9999.9	222.7	63.26	44.82	33.31	25.84	21.02	18.06	16.07	14.66	12.54	11.92	10.54	9.463	8.487	9.306	9.631	10.69	11.49	12.68	14.94	16.25	17.93	19.44	20.53	21.28	20.74	20.70	20.80	21.38	21.50	21.14	20.09	18.89	18.56	17.50	17.72	16.22	16.25	15.31	14.90
400.0	851.8	840.7	916.7	 1087	 1469	 2048	 2734	 3402	 3806	 3817	 3967	 3954	 3580	 3148	 2856	 2507	 2211	 1986	 1773	 1657	 1672	 1574	 1471	 1498	 1307	996.3	771.5	567.6	426.1	335.5	282.0	304.5	528.2	755.4	 3445	9999.9	9999.9	9999.9	173.8	55.21	40.10	30.51	23.91	19.39	16.78	15.47	13.01	12.16	10.86	9.392	8.551	9.091	9.786	10.52	11.08	12.20	14.50	15.98	17.36	18.53	19.07	19.39	19.33	19.27	19.14	19.20	19.53	19.46	18.97	18.22	16.92	17.26	16.47	15.28	15.39	14.52	13.93
405.0	768.8	788.0	836.7	993.2	 1352	 1895	 2544	 3160	 3469	 3510	 3596	 3577	 3282	 2912	 2648	 2347	 2095	 1884	 1687	 1582	 1573	 1483	 1388	 1411	 1223	949.8	756.1	614.9	467.0	364.8	297.4	266.8	289.3	312.5	903.8	 5296	9999.9	9999.9	9999.9	128.2	46.90	35.89	28.14	21.46	17.43	15.79	13.32	12.33	10.69	9.392	8.477	9.058	9.262	10.02	10.70	11.59	13.96	15.08	16.38	17.22	17.65	17.74	17.78	17.39	17.90	17.76	17.77	17.76	17.25	16.91	15.99	15.94	15.20	14.63	14.08	13.99	13.23
410.0	686.7	697.3	753.5	886.2	 1183	 1683	 2287	 2869	 3116	 3084	 3153	 3124	 2893	 2615	 2408	 2154	 1936	 1738	 1553	 1460	 1442	 1357	 1274	 1286	 1122	878.5	708.9	600.6	511.0	410.6	330.0	277.4	251.4	228.4	335.3	 1303	 5381	9999.9	9999.9	 8157	151.3	48.76	34.43	26.91	20.68	16.94	14.16	12.61	11.07	9.411	8.520	9.022	8.849	9.421	9.988	10.79	12.62	14.13	15.15	16.05	16.61	16.47	16.11	15.76	15.43	15.83	16.27	15.58	15.40	14.95	14.46	14.60	14.08	13.54	12.91	12.90	12.55
415.0	620.3	625.4	665.6	790.2	 1055	 1490	 2019	 2549	 2772	 2720	 2739	 2719	 2539	 2311	 2166	 1949	 1766	 1588	 1422	 1328	 1320	 1242	 1177	 1176	 1035	826.6	674.6	573.0	515.5	453.5	360.5	294.5	251.5	215.4	211.1	401.1	 1292	 2567	9999.9	9999.9	9999.9	199.6	47.27	33.33	26.35	19.75	16.04	13.82	11.48	9.754	8.605	9.045	8.875	9.211	9.683	10.28	11.67	12.85	13.74	14.65	15.40	15.10	14.82	13.80	14.02	14.24	14.17	13.54	13.65	13.55	12.81	13.18	12.89	12.31	12.08	11.71	11.66
420.0	550.5	572.5	615.5	724.9	959.7	 1345	 1820	 2300	 2519	 2455	 2459	 2439	 2284	 2100	 1967	 1790	 1630	 1474	 1324	 1236	 1227	 1156	 1095	 1099	977.5	797.3	664.6	566.3	502.7	464.7	392.4	308.7	255.9	214.8	184.4	201.0	379.1	655.1	 2983	9999.9	9999.9	9999.9	158.0	41.02	30.34	23.94	17.79	14.25	12.15	10.17	8.774	9.010	8.931	9.069	9.320	9.992	11.37	12.13	12.70	13.33	14.41	13.81	13.45	12.99	12.83	13.12	13.03	12.60	12.48	12.19	11.89	12.26	11.72	11.75	11.20	10.96	10.87
425.0	512.9	518.5	560.8	663.1	887.9	 1227	 1680	 2098	 2289	 2218	 2215	 2190	 2054	 1904	 1797	 1636	 1497	 1364	 1232	 1153	 1135	 1083	 1025	 1016	914.4	764.3	647.8	563.0	494.1	454.7	410.3	328.6	264.6	220.2	181.8	158.2	178.8	224.7	743.1	 4051	9999.9	9999.9	9999.9	104.7	36.60	27.84	20.11	15.69	12.86	10.53	9.192	8.982	8.997	8.890	9.094	9.688	10.67	11.59	12.11	12.43	13.27	12.77	12.36	12.22	11.89	11.74	11.68	11.47	11.51	11.06	10.78	10.95	10.84	11.07	10.29	10.01	10.21
430.0	482.3	460.6	504.2	585.9	785.4	 1106	 1502	 1878	 2022	 1952	 1939	 1911	 1802	 1689	 1599	 1465	 1344	 1227	 1111	 1041	 1019	974.4	925.4	914.5	832.4	714.2	622.8	551.8	497.2	450.3	407.3	358.0	289.3	232.6	191.5	156.1	138.6	131.8	235.8	974.0	 4704	9999.9	9999.9	 7714	135.1	39.59	25.54	20.27	15.11	11.62	9.638	9.489	9.029	9.002	8.922	9.360	10.24	10.87	11.57	11.96	12.31	11.80	11.48	11.11	10.85	10.85	10.45	10.35	10.30	9.859	9.903	9.810	9.648	9.811	9.539	9.203	9.243
435.0	630.5	415.4	435.9	530.7	692.7	980.7	 1326	 1687	 1819	 1752	 1717	 1672	 1598	 1498	 1426	 1310	 1206	 1106	 1004	938.5	918.2	876.7	842.7	824.4	764.6	663.1	597.4	538.9	495.6	456.6	406.1	362.3	319.7	255.8	204.8	167.0	139.7	119.1	130.0	282.7	 1109	 2438	9999.9	9999.9	9999.9	180.9	38.15	26.47	19.37	14.37	10.76	10.26	9.536	9.193	9.196	9.285	10.20	10.72	10.65	11.14	11.22	11.13	10.70	10.42	10.22	9.480	9.634	9.466	9.374	9.172	8.834	8.841	8.769	8.621	8.529	8.423	8.353
440.0	852.0	396.2	412.1	489.4	650.7	913.0	 1238	 1570	 1681	 1627	 1576	 1541	 1460	 1375	 1312	 1197	 1112	 1024	932.0	873.7	852.2	815.5	785.2	771.4	718.9	634.3	577.0	527.6	492.2	454.9	408.3	358.0	324.9	273.7	217.2	175.6	145.2	123.0	113.1	134.4	309.7	605.9	 2756	9999.9	9999.9	9999.9	124.3	33.81	22.88	17.13	12.94	11.27	10.11	9.601	9.310	9.436	10.12	10.78	10.71	10.63	10.49	10.82	10.13	9.732	9.659	9.011	8.972	9.032	8.919	8.638	8.274	8.386	8.349	8.168	7.828	7.656	7.781
445.0	 1092	449.6	387.7	464.7	603.5	842.7	 1147	 1453	 1559	 1500	 1462	 1416	 1345	 1263	 1208	 1107	 1024	945.9	865.8	812.0	791.8	759.5	737.3	724.7	677.6	606.9	555.7	512.9	483.0	449.9	408.0	356.7	318.9	285.4	230.4	184.2	152.3	128.9	114.5	105.8	135.7	195.0	681.5	 4009	9999.9	9999.9	 1536	85.40	27.02	19.63	15.10	12.55	10.79	10.05	9.316	9.283	10.11	10.38	10.65	10.40	10.43	10.28	9.923	9.244	9.337	8.490	8.479	8.289	8.194	8.215	7.950	7.712	7.834	7.641	7.109	7.262	7.516
450.0	953.0	742.9	377.7	420.9	554.5	764.6	 1039	 1293	 1410	 1351	 1301	 1251	 1197	 1118	 1065	973.3	903.7	840.1	773.2	728.8	708.1	688.6	669.7	659.6	620.5	568.5	526.0	492.1	470.3	440.9	404.0	358.0	313.0	280.4	246.1	200.7	165.2	138.1	121.7	107.3	102.7	107.5	210.9	959.7	 4463	9999.9	9999.9	 6723	110.5	27.94	18.76	15.68	12.78	11.31	10.00	9.688	10.11	10.11	10.09	10.14	10.03	9.683	9.418	8.828	8.339	7.975	8.056	7.866	7.599	7.560	7.245	7.198	7.065	6.972	6.626	6.670	6.612
455.0	550.2	974.2	488.4	372.0	490.7	682.7	928.8	 1150	 1253	 1192	 1139	 1088	 1041	970.9	922.8	844.5	788.0	734.7	674.6	640.7	623.5	609.8	590.8	589.0	562.4	522.9	491.9	466.0	452.0	428.7	397.0	355.1	311.4	275.3	245.7	219.8	179.8	148.9	130.4	114.4	99.28	90.75	107.8	268.7	 1047	 2428	9999.9	9999.9	9999.9	131.7	26.45	19.24	15.43	12.84	10.68	10.23	10.11	9.912	9.706	9.523	9.211	9.141	8.720	8.334	7.761	7.212	7.409	7.130	6.850	6.536	6.390	6.504	6.210	6.364	6.236	5.954	5.863
460.0	357.6	868.3	747.9	364.9	449.2	622.2	856.7	 1051	 1135	 1095	 1037	996.5	941.4	877.7	831.4	763.7	708.6	659.1	611.7	582.0	567.8	556.8	541.5	536.5	518.1	488.5	462.6	444.4	434.4	415.3	390.0	351.8	309.3	273.4	241.9	221.4	191.8	157.9	136.8	118.8	103.8	89.40	85.41	114.8	283.0	591.3	 2628	9999.9	9999.9	 8724	97.07	24.20	18.03	14.45	12.16	10.74	10.49	10.10	9.548	9.442	8.917	9.023	8.130	7.889	7.049	6.898	6.874	6.812	6.293	6.067	6.030	6.045	5.919	5.664	5.794	5.662	5.398
465.0	284.6	603.1	 1039	444.2	415.2	578.7	788.4	972.2	 1048	 1018	956.9	909.8	851.1	800.2	759.0	693.4	644.3	605.2	557.8	532.8	519.5	508.2	498.4	493.9	483.9	458.4	436.9	424.3	414.9	401.4	377.4	343.1	304.3	270.6	240.3	216.3	198.2	167.8	141.6	122.3	107.0	92.45	82.51	81.85	112.3	175.6	632.2	 3453	9999.9	9999.9	 1191	65.74	22.03	16.85	14.35	11.72	11.02	10.46	9.779	9.313	8.805	8.747	8.077	7.796	7.045	6.742	6.462	6.487	5.990	6.014	5.416	5.596	5.406	5.316	5.188	5.022	4.888
470.0	241.3	336.3	 1006	940.6	427.1	520.8	709.1	875.0	945.2	905.9	859.7	809.5	748.3	707.6	664.8	604.8	565.2	529.2	493.3	472.6	457.2	448.8	442.0	442.2	432.4	411.4	397.6	391.2	383.9	374.3	353.3	322.8	292.8	261.4	232.9	207.6	189.9	172.3	148.4	125.6	108.3	93.93	81.69	73.69	73.50	81.26	177.4	810.9	 4036	 9990	 9580	 6118	101.1	22.92	17.41	14.48	12.75	11.23	9.938	9.572	8.927	8.480	8.000	7.441	6.936	6.458	6.251	5.987	5.691	5.498	5.199	5.262	4.931	4.772	4.740	4.713	4.565
475.0	219.2	227.9	555.3	 1759	863.0	473.1	620.8	768.1	834.9	799.5	760.1	703.3	655.9	614.4	578.9	526.6	490.0	459.3	427.9	407.6	398.5	393.7	387.1	390.7	383.7	368.4	357.5	350.1	350.9	344.2	327.0	301.4	275.7	248.1	222.1	198.2	179.0	162.6	152.3	129.8	108.3	92.63	80.60	70.11	62.63	57.73	72.26	210.0	926.5	 2350	 8627	9999.9	9999.9	130.6	22.15	16.58	14.08	12.18	9.944	9.155	8.196	8.175	7.087	6.902	6.235	6.042	5.586	5.197	5.121	4.908	4.696	4.743	4.391	4.272	4.221	4.095	4.018
480.0	197.8	207.4	306.3	 1829	 2003	485.6	579.0	694.0	761.0	736.0	690.1	647.3	596.3	550.2	521.7	473.5	437.4	409.7	382.9	369.0	362.5	356.4	354.1	357.6	349.5	340.7	331.7	326.9	329.5	323.4	309.7	287.7	261.8	237.0	214.3	192.3	171.8	154.5	147.1	130.6	107.2	91.95	77.85	67.91	59.14	50.68	47.96	74.50	230.8	549.5	 2177	9999.9	9999.9	 8717	93.36	20.65	15.72	13.17	11.10	9.365	8.471	7.833	6.922	6.813	6.138	5.698	5.374	5.065	4.817	4.596	4.630	4.267	4.030	4.090	3.667	3.963	3.709
485.0	184.3	191.7	219.4	 1238	 3623	 1064	529.5	643.5	703.7	681.8	637.1	587.8	544.5	503.6	473.5	427.2	397.2	374.1	350.7	335.1	332.7	327.5	324.4	327.8	323.0	315.1	307.0	307.8	307.3	304.2	293.2	272.4	248.3	227.4	205.7	186.7	168.5	150.1	139.5	130.4	109.4	91.00	76.32	66.44	57.28	49.14	42.16	43.09	75.35	144.8	511.5	 2913	9999.9	9999.9	 1438	27.48	19.10	14.52	12.58	10.31	8.777	7.721	7.147	6.685	6.459	5.731	5.145	4.870	4.688	4.414	4.455	4.033	3.854	3.844	3.607	3.691	3.243
490.0	170.9	172.9	183.1	500.0	 3933	 4492	810.4	584.5	641.3	609.1	575.1	527.9	484.2	446.8	417.5	379.2	351.3	328.3	310.9	298.5	291.8	291.2	288.6	292.2	288.5	283.5	279.6	278.0	281.1	279.6	269.0	253.5	233.0	212.3	194.1	176.3	158.5	143.5	130.9	120.9	108.7	92.06	75.29	64.43	55.69	47.44	39.62	35.28	39.39	52.98	134.0	674.8	 3321	9999.9	9999.9	 6446	100.0	20.55	14.60	11.85	9.941	8.436	7.293	6.753	6.289	5.501	5.173	4.944	4.555	4.227	4.289	3.870	3.768	3.480	3.343	3.370	3.224
495.0	158.6	151.9	158.3	249.5	 1889	 9038	 2719	544.3	569.6	548.9	507.7	467.9	427.8	394.1	364.0	331.0	306.7	288.1	272.4	258.9	256.0	256.3	256.1	257.4	253.9	251.2	249.7	248.1	253.1	252.1	243.8	230.5	213.4	196.8	179.4	163.6	147.4	133.8	123.3	111.0	101.4	92.68	75.91	62.42	54.38	46.35	38.50	33.83	31.14	32.33	49.49	170.0	761.5	 2331	9999.9	9999.9	9999.9	133.3	19.60	14.23	11.27	9.368	7.844	6.659	6.126	5.492	4.915	4.812	4.483	3.995	4.080	3.589	3.523	3.329	3.145	3.153	2.769
500.0	138.1	140.3	147.2	183.3	679.0	 8606	 9585	966.6	514.8	500.8	465.5	426.2	387.2	356.1	325.3	295.1	273.0	257.4	240.8	232.2	228.7	230.6	229.2	230.7	228.7	227.5	225.1	226.4	229.9	231.0	224.9	210.7	196.0	180.7	166.6	152.0	139.1	126.4	114.7	103.9	93.48	87.89	76.21	61.15	52.71	45.36	38.14	33.35	29.39	27.19	30.09	56.65	188.8	542.3	 2526	9999.9	9999.9	 8637	28.99	16.97	12.15	9.906	8.524	7.035	6.069	5.211	4.827	4.399	4.215	3.891	3.784	3.334	3.163	3.250	2.980	2.934	2.648
505.0	134.8	130.0	137.5	159.4	299.6	 4966	9999.9	 2388	474.3	457.7	430.1	386.1	353.9	323.1	296.2	267.1	243.7	229.8	215.5	210.0	208.3	207.4	207.7	209.7	207.5	206.3	205.8	208.8	209.8	211.6	205.1	193.8	181.6	168.0	155.1	142.6	129.7	117.8	107.9	98.95	87.68	80.98	73.94	62.09	52.18	43.69	37.73	32.84	28.26	25.46	24.68	30.88	59.94	140.0	587.7	 2952	9999.9	9999.9	 1469	26.08	14.08	10.77	8.931	7.235	6.103	5.193	4.643	4.105	3.965	3.554	3.566	3.122	3.038	2.898	2.754	2.830	2.598
510.0	125.0	120.4	122.3	141.9	197.2	 1565	9999.9	9999.9	 1203	411.1	379.8	343.5	310.0	282.0	256.5	231.0	212.2	199.1	187.7	181.9	179.9	179.7	180.5	182.7	182.4	180.2	180.2	181.5	184.3	186.5	183.2	172.9	161.3	149.8	137.6	127.4	116.6	106.8	97.44	89.38	80.07	72.13	66.52	60.28	51.45	42.52	35.48	31.73	27.56	25.03	23.00	23.86	29.70	47.99	148.5	679.4	 3240	9999.9	9999.9	 6210	95.94	14.29	9.987	7.842	6.600	5.473	4.613	4.153	3.795	3.364	3.329	2.957	2.869	2.682	2.514	2.433	2.312
515.0	106.4	108.1	109.3	125.4	155.7	505.2	 4238	9999.9	 9421	410.9	333.1	299.7	271.2	243.5	223.2	198.3	181.9	169.7	161.0	155.7	155.4	154.2	153.5	156.3	157.8	154.5	156.8	157.0	159.0	162.3	158.5	150.7	140.7	131.5	120.8	111.5	103.4	94.91	87.61	79.41	71.68	65.09	57.86	54.48	49.96	41.40	34.25	30.03	26.28	24.44	22.13	21.61	21.11	25.59	47.57	165.9	738.0	 2301	 8632	9999.9	9999.9	28.16	13.73	9.000	7.260	5.900	5.057	4.220	3.598	3.394	3.040	2.677	2.864	2.326	2.419	2.268	2.117
520.0	100.2	95.96	98.06	116.4	140.2	256.9	 1290	9999.9	9999.9	 1223	305.6	275.1	242.9	218.4	198.0	174.3	163.3	150.8	141.5	138.3	138.9	137.8	137.1	139.4	139.8	139.1	139.3	139.5	143.6	145.8	141.3	136.0	127.4	116.7	108.6	101.1	93.40	85.69	80.40	72.40	66.25	59.50	53.21	48.39	46.88	41.23	33.91	28.82	25.50	23.21	21.30	19.80	18.59	19.30	24.54	50.24	178.2	529.4	 2116	9999.9	9999.9	 1630	25.20	11.33	8.027	6.413	5.549	4.477	3.426	3.336	2.831	2.669	2.370	2.377	2.270	2.215	1.977
525.0	97.37	87.85	90.53	102.9	131.2	184.8	458.3	 6826	9999.9	 6748	294.0	252.5	219.3	198.6	177.0	156.4	147.0	135.8	128.8	123.4	122.3	122.5	123.1	125.6	125.5	124.3	126.1	126.2	130.7	131.4	128.1	122.0	115.4	107.4	98.58	90.97	86.00	78.55	72.58	67.30	60.87	54.75	48.04	44.25	42.47	39.93	33.27	28.12	24.51	22.09	19.99	18.73	17.67	16.85	18.07	23.62	52.06	131.0	488.6	 2767	9999.9	9999.9	 1370	20.79	9.641	7.160	5.721	4.874	3.789	3.244	2.906	2.637	2.319	2.225	2.174	2.009	1.881
530.0	87.35	80.93	81.82	88.32	115.3	155.8	249.0	 2041	9999.9	9999.9	 1079	226.7	196.1	172.6	158.6	137.0	127.4	117.3	112.1	106.7	104.8	106.5	106.5	107.9	108.9	108.1	108.2	109.3	113.1	114.5	111.6	107.1	100.3	93.53	86.31	80.21	74.63	68.80	64.19	59.50	54.26	48.45	43.69	39.86	37.12	35.37	32.10	27.01	22.95	20.18	18.57	17.17	16.03	15.40	15.04	16.10	22.13	39.40	119.8	630.9	 2879	 9691	9999.9	 5626	21.65	9.565	6.716	5.040	4.267	3.391	2.873	2.646	2.304	2.122	2.038	1.852	1.776
535.0	69.27	69.64	69.88	77.23	97.36	129.0	179.7	617.3	 4243	9999.9	9999.9	292.0	176.1	150.9	138.6	119.0	109.1	101.6	95.88	92.92	91.85	90.39	91.09	92.59	92.85	93.28	91.79	94.64	97.54	98.47	95.51	93.05	87.12	80.15	73.77	69.33	65.00	59.90	56.06	51.59	47.04	42.63	37.87	35.66	32.59	29.73	28.98	26.76	22.43	18.73	17.38	15.95	14.67	14.29	13.13	13.06	13.87	17.35	35.36	149.2	651.2	 2205	 6452	9999.9	 8463	26.35	8.858	5.975	4.788	3.813	3.218	2.541	2.333	2.111	1.944	1.788	1.578
540.0	60.90	65.13	64.00	68.82	87.39	120.8	156.1	280.6	 1248	9999.9	9999.9	 1153	165.3	138.4	124.6	106.5	97.78	92.36	86.14	83.34	81.74	81.45	82.26	83.06	83.07	83.02	82.49	85.16	86.90	87.74	85.29	82.53	77.49	70.64	66.02	61.93	57.57	53.13	49.52	45.89	42.09	38.64	34.69	32.74	29.48	26.61	25.76	24.83	21.96	17.98	16.61	14.99	13.64	12.98	12.23	11.99	11.41	11.64	15.75	41.15	153.3	501.4	 1554	 8858	9999.9	 1617	22.10	7.708	5.295	3.931	3.398	2.856	2.318	2.125	1.932	1.547	1.554
545.0	64.04	60.70	54.19	61.15	76.84	110.8	141.4	191.7	431.8	 6119	9999.9	 8223	162.3	128.1	111.0	98.43	90.06	82.96	77.31	75.19	73.94	73.09	72.80	73.33	74.43	74.10	74.47	76.78	78.16	78.10	76.56	74.03	68.97	64.47	60.12	56.41	51.67	48.41	44.68	41.91	38.40	34.95	32.04	29.90	26.97	25.31	22.92	22.11	21.40	17.57	15.41	13.95	12.79	12.30	11.27	11.05	10.32	9.577	10.57	16.41	41.32	119.7	356.9	 2314	9999.9	9999.9	 1290	16.65	6.384	4.574	3.505	2.916	2.430	2.018	1.842	1.585	1.495
550.0	61.23	53.66	49.56	55.62	68.32	92.18	127.3	159.0	231.0	 1763	9999.9	9999.9	 2510	119.5	100.4	87.62	78.79	72.44	68.54	65.44	65.65	64.25	63.53	63.99	64.30	63.68	64.10	65.43	66.79	67.83	65.81	64.15	60.06	55.95	51.71	48.30	44.93	42.05	38.74	36.70	32.94	30.65	28.23	26.63	24.21	22.56	20.15	19.13	18.96	17.26	14.97	12.92	11.49	10.78	10.09	9.777	9.165	8.620	8.295	9.584	15.34	32.76	86.47	524.2	 2657	 8585	9999.9	 4797	19.32	6.298	4.058	3.064	2.572	2.195	1.797	1.599	1.461
555.0	61.54	48.10	44.29	46.61	54.76	74.11	111.3	139.0	171.8	520.5	 3520	9999.9	9999.9	137.6	92.03	77.01	67.78	62.07	58.55	56.33	55.18	53.82	54.37	54.96	54.05	53.42	54.46	54.67	55.94	56.44	56.42	53.86	50.84	47.35	43.58	40.68	38.20	36.02	32.57	30.84	28.78	26.29	24.11	22.48	21.34	19.67	17.69	16.58	15.58	15.20	14.45	12.14	10.58	9.698	9.030	8.629	8.000	7.506	7.065	7.202	8.277	12.46	24.39	122.4	597.5	 1941	 4899	9999.9	 6169	24.88	5.849	3.773	2.870	2.329	2.000	1.702	1.557
560.0	64.53	47.55	41.55	40.04	50.29	63.27	96.04	128.6	152.1	242.1	989.8	9999.9	9999.9	887.7	88.46	71.96	62.07	54.55	51.43	50.17	48.42	47.55	48.23	48.72	47.54	46.68	47.08	47.94	48.29	49.32	48.38	45.88	43.75	41.38	38.24	35.69	33.50	30.77	28.95	27.48	24.58	22.86	21.37	19.61	18.33	17.20	15.82	14.66	13.45	13.25	13.15	11.59	9.436	9.007	8.239	7.683	7.307	6.858	6.303	6.290	6.086	7.172	10.19	32.16	138.3	438.5	 1161	 6365	9999.9	 1566	19.19	4.786	3.251	2.471	2.026	1.879	1.578
565.0	54.58	43.19	36.90	37.14	41.80	57.41	85.06	119.3	144.6	178.7	359.7	 4690	9999.9	 7086	93.17	64.01	56.23	50.27	46.70	44.29	42.90	42.77	41.71	42.49	42.17	40.86	41.62	41.65	41.86	42.63	41.48	40.43	38.14	36.11	32.60	31.32	29.18	26.83	25.30	23.67	21.63	19.66	18.42	17.35	15.86	15.03	14.09	13.01	12.14	11.21	11.72	11.24	8.935	8.420	7.595	7.078	6.638	6.240	5.857	5.491	5.367	5.582	6.377	11.60	35.34	102.8	265.6	 1602	 8178	9999.9	222.0	12.42	3.912	2.753	2.050	1.897	1.459
570.0	57.28	43.05	34.77	32.39	37.41	52.11	74.79	107.6	146.0	170.6	223.1	 1322	 9325	9999.9	 2554	62.06	49.64	44.22	39.95	37.54	36.18	35.61	35.24	35.54	35.34	34.82	33.96	34.24	34.47	34.69	34.08	32.94	31.56	29.41	27.27	25.50	23.74	22.36	20.68	19.45	18.09	16.20	15.12	14.31	13.31	12.60	11.64	11.14	10.21	9.296	8.980	9.290	8.176	7.349	6.608	6.214	5.762	5.411	5.233	4.906	4.830	4.782	4.927	6.242	11.73	26.82	63.67	362.4	 2052	 6283	 7925	 2819	16.53	3.757	2.385	1.974	1.633
575.0	57.62	43.06	31.85	30.33	34.86	45.64	67.24	100.8	147.1	182.2	210.8	450.7	 2902	9999.9	9999.9	90.79	46.28	38.98	33.44	31.55	30.49	30.09	30.00	29.20	28.89	28.20	27.88	28.18	27.45	28.14	27.54	26.20	24.94	23.06	21.56	20.91	19.24	17.67	16.64	15.78	14.50	13.54	12.47	11.77	11.14	10.48	9.623	8.809	8.483	7.525	7.332	7.281	7.061	6.712	5.735	5.666	5.163	4.633	4.523	4.202	4.267	4.200	4.297	4.434	5.642	9.382	17.56	84.40	460.9	 1413	 3174	 8046	 1674	21.95	3.341	2.113	1.602
580.0	56.63	45.07	32.89	28.00	30.88	43.74	62.53	96.10	148.3	191.9	213.9	265.2	813.0	 7612	9999.9	691.4	46.05	35.61	31.78	27.81	27.33	25.98	25.84	24.97	25.16	24.61	23.75	24.07	23.78	24.48	23.57	22.34	20.91	20.17	18.36	17.54	16.26	14.98	14.62	13.25	12.51	11.62	10.53	9.961	9.551	8.978	8.476	7.809	7.129	6.551	6.240	6.107	6.053	6.015	5.311	5.052	4.658	4.310	3.975	3.954	3.848	3.630	3.909	3.852	4.079	5.012	7.042	22.03	105.9	318.2	740.2	 3889	 7183	 1346	14.98	2.549	1.706
585.0	54.85	46.32	34.11	26.23	27.88	38.47	59.99	93.17	145.5	197.3	224.2	231.9	319.0	 3249	9999.9	 5575	58.22	35.21	29.47	26.04	24.83	23.95	23.45	22.73	22.18	21.50	20.87	20.75	20.93	21.03	20.70	19.19	18.31	17.34	15.95	15.30	14.24	13.09	12.59	11.58	10.74	9.933	9.187	8.706	8.362	7.788	6.995	6.859	6.249	5.712	5.537	5.399	5.167	5.395	5.253	4.637	4.228	3.943	3.749	3.617	3.495	3.447	3.626	3.509	3.595	3.938	4.217	7.972	26.53	74.06	168.7	956.0	 4580	 5896	219.1	7.663	1.922
590.0	58.24	41.46	32.85	28.91	27.04	36.97	57.71	90.41	141.9	202.2	235.2	233.7	214.4	892.4	 6763	9999.9	 2167	37.07	28.64	24.73	22.36	21.21	20.06	19.47	19.64	18.87	18.05	18.04	18.21	18.03	17.47	16.26	15.15	14.31	13.43	12.75	11.81	11.03	10.59	9.729	9.067	8.595	7.954	7.522	7.125	6.653	6.180	6.016	5.394	4.965	4.637	4.493	4.252	4.374	4.624	4.457	3.864	3.559	3.560	3.209	3.103	3.130	3.094	3.279	3.325	3.331	3.445	4.547	8.389	18.98	40.08	216.0	 1126	 3282	 4154	984.6	15.12
595.0	59.36	41.39	32.84	28.84	24.99	39.06	58.67	92.02	139.0	200.4	245.8	243.5	196.0	296.4	 1922	9999.9	9999.9	68.76	29.11	23.92	20.93	19.51	18.07	17.58	17.20	16.44	15.69	15.59	15.77	15.70	15.40	13.98	13.22	11.92	11.41	10.76	10.09	9.362	8.787	8.092	7.820	7.145	6.963	6.644	6.070	5.764	5.501	5.139	4.542	4.115	4.013	3.853	3.604	3.491	3.864	4.050	3.560	3.128	3.119	3.153	2.883	2.801	2.795	2.904	3.083	3.018	3.015	3.260	4.052	6.306	10.98	50.00	252.7	736.6	 1585	 4110	 1540
600.0	61.11	41.68	31.96	25.58	25.36	38.73	58.37	93.01	140.8	197.8	248.7	247.3	193.3	167.1	503.1	 5470	9999.9	555.9	30.87	23.15	20.54	18.37	16.96	16.40	15.79	14.91	14.39	14.52	14.74	13.76	13.51	12.81	11.98	10.52	9.960	9.508	8.904	8.286	7.940	7.197	6.896	6.534	5.937	5.795	5.353	4.950	4.940	4.507	4.092	3.626	3.565	3.288	3.119	3.106	3.354	3.514	3.466	3.058	2.974	2.729	2.870	2.635	2.778	2.586	2.807	2.906	2.953	2.733	2.898	3.371	4.263	12.93	58.03	165.8	367.3	 1929	 4029
605.0	61.68	49.13	29.87	24.74	25.09	38.06	57.61	95.34	141.7	199.9	247.4	254.3	192.6	136.4	173.5	 2027	9999.9	 7704	45.66	24.05	19.66	17.92	16.25	15.23	14.67	13.56	13.31	13.24	12.90	12.51	12.70	12.04	10.84	9.937	9.453	8.779	8.235	7.532	7.168	6.693	6.217	6.100	5.672	5.410	4.892	4.670	4.637	4.178	3.665	3.438	3.069	3.005	2.932	2.768	2.937	2.850	3.083	3.183	2.738	2.659	2.674	2.627	2.725	2.703	2.691	2.869	2.790	2.663	2.395	2.414	2.442	4.453	14.40	38.60	83.83	468.7	 2391
610.0	54.12	44.78	31.18	24.32	26.12	36.54	57.21	94.06	137.5	194.0	233.4	246.0	192.4	130.2	98.08	527.4	 5138	9999.9	 1880	28.11	20.04	17.92	15.43	14.51	13.92	12.54	12.05	11.95	11.45	11.37	11.34	10.71	9.996	8.944	8.710	7.874	7.285	6.801	6.227	5.763	5.391	5.329	4.907	4.762	4.471	4.285	4.098	3.874	3.294	3.142	2.807	2.680	2.597	2.446	2.418	2.509	2.791	2.938	2.563	2.396	2.447	2.387	2.518	2.439	2.558	2.595	2.527	2.453	2.232	2.089	1.966	2.350	4.481	9.753	20.06	106.0	581.3
615.0	51.33	42.31	31.82	21.47	24.72	33.83	54.77	89.05	131.0	182.0	219.5	229.2	188.7	126.4	80.13	158.9	 1366	 8278	9999.9	59.33	21.81	17.78	15.40	14.11	13.07	11.90	11.13	10.45	10.47	10.23	10.23	9.512	9.375	8.046	8.010	7.234	6.547	6.062	5.470	5.233	4.812	4.719	4.196	4.243	4.105	3.896	3.565	3.582	3.039	2.871	2.467	2.407	2.170	2.241	2.159	2.102	2.163	2.456	2.477	2.331	2.241	2.253	2.328	2.315	2.361	2.173	2.243	2.219	2.073	1.868	1.764	1.676	2.071	3.113	5.414	24.60	130.6
620.0	49.61	41.58	29.63	21.16	23.17	32.85	53.31	85.62	126.3	172.4	206.8	217.2	185.6	125.6	74.68	73.73	346.4	 3889	9999.9	 1947	24.16	18.60	15.62	14.02	12.36	11.86	10.59	10.11	9.784	9.438	9.062	8.999	8.249	7.801	7.283	6.855	6.169	5.855	5.073	4.859	4.465	4.220	3.899	4.036	3.704	3.529	3.459	3.340	2.970	2.628	2.376	2.187	2.040	2.018	1.974	1.809	2.019	2.143	2.373	2.168	2.210	2.070	2.072	2.099	2.292	2.144	2.181	2.136	1.927	1.696	1.686	1.431	1.517	1.643	2.062	6.407	30.08
625.0	47.73	39.36	28.19	20.15	21.90	32.70	54.35	83.18	122.4	162.4	193.5	205.4	177.9	125.7	72.82	53.59	109.6	 1328	9999.9	 7633	39.10	18.95	15.20	13.29	12.16	11.71	9.969	9.675	9.393	8.824	8.828	8.460	7.981	7.080	6.817	6.289	6.078	5.594	4.830	4.633	4.090	3.742	3.664	3.775	3.726	3.502	3.200	3.026	2.919	2.417	2.213	2.068	1.947	1.905	1.713	1.730	1.940	1.992	2.040	2.156	2.065	2.049	1.958	2.041	2.118	2.001	2.114	2.063	1.864	1.758	1.493	1.318	1.260	1.183	1.254	2.319	7.554
630.0	42.12	35.42	27.55	21.23	20.83	32.47	50.12	77.37	114.4	152.1	183.2	192.4	167.3	123.6	73.59	49.87	55.33	339.8	 4111	9999.9	 1698	23.07	16.02	13.72	11.77	11.27	9.967	9.501	8.930	8.567	8.257	7.582	7.172	6.653	6.501	5.819	5.391	5.064	4.545	4.299	3.887	3.504	3.306	3.219	3.321	3.161	2.981	2.942	2.653	2.426	2.139	2.032	1.802	1.681	1.739	1.771	1.818	1.804	1.790	1.878	1.931	1.744	1.893	1.855	1.919	1.966	1.982	1.800	1.684	1.708	1.452	1.271	1.132	1.056	0.953	1.166	2.382
635.0	41.15	38.31	25.98	22.15	21.28	30.35	46.27	73.17	108.3	144.0	173.6	179.3	157.1	120.4	78.11	50.00	42.43	100.6	 1026	 6471	 9471	52.32	17.59	13.75	12.46	10.94	9.826	9.498	8.478	8.067	8.057	7.029	6.812	6.405	5.845	5.540	5.250	4.759	4.157	4.098	3.882	3.439	3.090	3.062	3.151	2.925	2.875	2.610	2.549	2.304	2.025	1.985	1.721	1.594	1.677	1.555	1.787	1.572	1.588	1.607	1.748	1.733	1.761	1.681	1.810	1.873	1.738	1.732	1.663	1.563	1.292	1.256	1.023	0.901	0.754	0.842	1.204
640.0	48.29	43.63	29.92	22.02	21.16	31.41	46.94	73.01	104.0	136.7	166.7	172.6	156.7	121.1	81.39	52.39	40.30	47.63	253.7	 2658	9999.9	 1743	19.96	13.99	13.03	10.70	9.634	8.921	8.442	8.574	8.007	7.138	6.212	6.018	5.605	5.353	4.859	4.326	4.092	3.763	3.423	3.242	3.096	2.743	2.851	2.880	2.665	2.597	2.404	2.116	1.919	1.840	1.573	1.633	1.591	1.545	1.598	1.508	1.506	1.574	1.502	1.571	1.569	1.584	1.660	1.713	1.783	1.716	1.584	1.458	1.326	1.183	1.072	0.904	0.757	0.783	0.763
645.0	48.16	45.49	29.91	22.30	21.94	30.96	47.02	72.07	99.44	128.5	157.7	170.1	152.2	118.8	82.79	54.51	40.70	35.41	78.39	820.1	 8389	 6701	36.28	14.77	12.48	10.82	9.414	8.516	8.429	8.305	7.479	6.888	5.966	5.918	5.240	5.304	4.552	4.313	3.914	3.658	3.279	3.284	3.028	2.787	2.886	2.744	2.598	2.607	2.351	2.197	1.933	1.816	1.678	1.643	1.594	1.421	1.508	1.498	1.426	1.480	1.571	1.449	1.697	1.521	1.568	1.632	1.585	1.712	1.517	1.416	1.364	1.230	0.951	0.886	0.814	0.719	0.691
650.0	45.86	44.91	34.32	24.01	22.77	29.65	45.84	70.21	98.57	127.5	153.2	166.1	147.0	117.2	85.33	58.87	41.24	32.76	38.12	216.8	 3896	9999.9	318.0	17.87	12.73	11.27	9.425	8.571	8.400	8.139	7.389	6.679	6.020	5.482	4.937	4.649	4.331	4.307	3.876	3.529	3.369	3.155	3.070	2.751	2.704	2.611	2.410	2.432	2.353	1.908	1.830	1.839	1.724	1.580	1.579	1.414	1.460	1.456	1.486	1.469	1.499	1.348	1.533	1.539	1.569	1.511	1.508	1.526	1.510	1.330	1.229	1.127	0.961	0.867	0.753	0.738	0.629
