Sample:	'1
File name:	城北污水厂二沉池.FD3
Run date:	'14:09:03, 08/19/2024
Operator:	horiz
Comment:	'

Instrument
Model:	F-2700 FL Spectrophotometer
Serial number:	23B8-004
ROM Version:	4J14000 07

Instrument parameters
Measurement type:	3-D scan
Data mode:	Fluorescence
EX  Start WL:	220.0 nm
EX  End WL:	600.0 nm
EX Sampling interval:	5.0 nm
EM  Start WL:	230.0 nm
EM  End WL:	650.0 nm
EM Sampling interval:	5.0 nm
Scan speed:	12000 nm/min
EX Slit:	5.0 nm
EM Slit:	5.0 nm
PMT Voltage:	700 V
Response:	Auto 
Corrected spectra:	Off
Contour interval:	50.000

Peak integration
Integration method:	Rectangular
Sensitivity:	1
Threshold:	1.000

Peaks
No.	ApexEX/EM(nm)	Height(Data)
1	225.0/345.0	5619
2	225.0/490.0	306.8
3	230.0/500.0	261.3
4	235.0/255.0	380.6
5	235.0/515.0	211.8
6	240.0/265.0	403.7
7	240.0/525.0	183.5
8	245.0/270.0	423.0
9	245.0/535.0	154.6
10	250.0/275.0	523.2
11	250.0/445.0	420.4
12	250.0/550.0	138.6
13	255.0/280.0	622.4
14	255.0/440.0	429.3
15	255.0/565.0	127.4
16	260.0/575.0	115.3
17	265.0/585.0	108.2
18	270.0/300.0	1291
19	270.0/600.0	109.0
20	275.0/305.0	1377
21	275.0/610.0	94.74
22	280.0/345.0	1639
23	280.0/625.0	72.68
24	285.0/640.0	59.33
25	315.0/355.0	506.0
26	320.0/360.0	478.0
27	325.0/370.0	413.2
28	330.0/375.0	373.8
29	335.0/380.0	336.6
30	345.0/395.0	222.5
31	350.0/400.0	214.1
32	360.0/415.0	156.0
33	365.0/420.0	149.5
34	380.0/440.0	93.84
35	385.0/445.0	80.33
36	395.0/460.0	57.28
37	400.0/465.0	49.81
38	410.0/480.0	34.13
39	415.0/485.0	29.81
40	420.0/490.0	24.99
41	425.0/500.0	21.73
42	430.0/505.0	19.66
43	440.0/520.0	14.06
44	445.0/525.0	11.62
45	455.0/345.0	16.49
46	455.0/540.0	7.874
47	470.0/560.0	4.141
48	480.0/575.0	2.813
49	485.0/265.0	2.472
50	505.0/275.0	3.577
51	510.0/280.0	3.794
52	520.0/285.0	4.038
53	530.0/290.0	4.188
54	540.0/295.0	6.200
55	545.0/300.0	6.610
56	555.0/305.0	6.804
57	560.0/310.0	5.694
58	570.0/345.0	7.336

Wavelength data
No.	EX/EM(nm)	Height(Data)	

Data points
	220.0	225.0	230.0	235.0	240.0	245.0	250.0	255.0	260.0	265.0	270.0	275.0	280.0	285.0	290.0	295.0	300.0	305.0	310.0	315.0	320.0	325.0	330.0	335.0	340.0	345.0	350.0	355.0	360.0	365.0	370.0	375.0	380.0	385.0	390.0	395.0	400.0	405.0	410.0	415.0	420.0	425.0	430.0	435.0	440.0	445.0	450.0	455.0	460.0	465.0	470.0	475.0	480.0	485.0	490.0	495.0	500.0	505.0	510.0	515.0	520.0	525.0	530.0	535.0	540.0	545.0	550.0	555.0	560.0	565.0	570.0	575.0	580.0	585.0	590.0	595.0	600.0
230.0	120.0	1367	3007	772.6	37.54	13.16	11.70	9.935	7.721	7.189	6.445	5.749	4.882	4.193	3.503	2.942	2.533	2.175	1.976	1.841	1.640	1.501	1.504	1.387	1.274	1.247	1.173	1.205	1.124	1.070	1.029	1.000	0.950	0.907	0.876	0.838	0.901	0.843	0.798	0.840	0.963	1.207	1.132	0.834	0.708	0.779	1.976	6.493	9.558	6.088	2.232	0.769	0.558	0.614	0.566	0.571	0.665	0.610	0.615	0.588	0.623	0.633	0.609	0.593	0.648	0.615	0.663	0.593	0.634	0.653	0.661	0.664	0.622	0.614	0.643	0.718	0.705
235.0	210.0	407.1	1801	2565	607.8	49.28	11.73	9.828	8.216	7.280	6.968	5.691	4.699	4.325	3.553	3.005	2.410	2.115	2.056	1.859	1.597	1.519	1.413	1.451	1.392	1.283	1.293	1.167	1.144	1.074	1.071	1.146	1.029	0.858	0.901	0.844	0.961	0.877	0.752	0.725	0.765	0.854	1.102	1.285	1.061	0.826	0.957	2.031	3.859	6.097	8.256	7.914	3.562	1.183	0.597	0.613	0.680	0.561	0.644	0.528	0.611	0.611	0.633	0.567	0.625	0.611	0.635	0.564	0.661	0.685	0.661	0.641	0.562	0.601	0.676	0.676	0.649
240.0	275.2	226.7	542.1	2112	2619	459.5	28.32	10.00	9.254	8.212	7.189	5.411	5.030	4.436	3.318	2.832	2.372	2.505	2.025	1.925	1.585	1.698	1.408	1.410	1.340	1.228	1.177	1.019	1.049	1.052	0.996	1.109	1.009	0.739	0.922	0.766	0.857	0.867	0.737	0.790	0.767	0.813	0.846	1.013	1.274	1.264	0.965	1.091	1.312	2.119	4.865	10.10	11.19	7.950	2.773	0.876	0.613	0.667	0.641	0.592	0.647	0.595	0.596	0.637	0.617	0.612	0.626	0.643	0.643	0.705	0.661	0.690	0.588	0.627	0.679	0.645	0.731
245.0	212.3	288.3	208.8	734.5	2722	2453	323.4	15.01	9.638	8.695	7.614	6.251	5.294	4.514	3.828	3.196	2.334	2.348	2.195	1.824	1.689	1.619	1.536	1.518	1.410	1.344	1.172	1.071	0.981	1.083	1.148	0.954	0.906	0.960	0.890	0.757	0.728	0.900	0.781	0.852	0.809	0.855	0.760	0.862	0.910	1.234	1.478	1.262	0.828	0.945	1.535	3.787	8.098	13.59	12.57	6.854	2.195	0.795	0.686	0.585	0.672	0.550	0.630	0.676	0.613	0.601	0.622	0.620	0.573	0.608	0.701	0.639	0.602	0.621	0.648	0.716	0.794
250.0	102.9	224.5	307.7	274.1	881.5	2357	2830	1021	63.43	10.06	8.085	6.617	5.613	4.819	3.815	3.479	2.458	2.304	2.258	1.810	1.628	1.681	1.543	1.405	1.378	1.244	1.185	1.155	1.123	1.124	1.151	1.008	0.969	0.940	0.851	0.806	0.809	0.802	0.789	0.834	0.785	0.758	0.791	0.767	0.805	0.854	0.986	1.374	1.430	1.230	1.070	1.392	2.399	4.700	7.794	11.37	13.46	12.25	6.193	2.091	0.785	0.630	0.600	0.655	0.656	0.644	0.663	0.598	0.643	0.672	0.718	0.624	0.630	0.648	0.664	0.682	0.668
255.0	69.64	80.19	231.4	380.6	296.2	610.9	2131	4094	1351	58.72	9.930	7.309	6.201	5.024	4.167	3.167	2.856	2.430	2.106	2.042	1.697	1.711	1.372	1.661	1.306	1.270	1.185	1.148	1.069	1.252	1.195	1.075	0.926	0.908	0.843	0.877	0.801	0.807	0.766	0.824	0.788	0.819	0.835	0.678	0.758	0.768	0.688	0.922	0.920	1.289	1.707	1.675	1.361	1.605	2.294	3.155	5.379	12.32	19.42	18.79	9.260	2.375	0.657	0.626	0.644	0.632	0.615	0.660	0.687	0.702	0.614	0.666	0.736	0.695	0.611	0.755	0.604
260.0	59.62	54.64	98.87	327.7	350.5	204.7	645.5	3282	4301	311.7	28.28	9.232	7.284	5.187	4.282	3.640	3.053	2.442	2.260	1.977	1.780	1.888	1.489	1.525	1.414	1.263	1.173	1.158	1.086	1.129	1.067	1.198	0.986	0.985	0.898	0.921	0.823	0.747	0.806	0.769	0.782	0.739	0.774	0.703	0.709	0.729	0.677	0.674	0.609	0.686	1.193	2.095	2.213	1.439	1.164	1.312	1.822	3.717	8.555	18.00	24.28	20.29	7.083	1.410	0.616	0.688	0.664	0.601	0.732	0.627	0.612	0.647	0.666	0.668	0.679	0.761	0.674
265.0	59.04	46.00	51.88	158.1	403.7	266.3	188.8	1100	4317	4039	245.0	15.21	8.643	5.956	4.500	4.079	3.280	2.814	2.340	2.087	1.924	1.700	1.561	1.500	1.534	1.427	1.262	1.190	1.082	1.212	1.076	1.009	1.015	0.948	1.013	0.872	0.864	0.804	0.733	0.779	0.792	0.733	0.806	0.755	0.829	0.790	0.604	0.688	0.599	0.564	0.701	1.285	2.146	2.472	1.870	1.021	1.054	1.453	2.654	5.671	13.25	26.92	27.68	15.92	4.046	0.872	0.670	0.657	0.720	0.605	0.626	0.757	0.709	0.685	0.650	0.725	0.647
270.0	72.26	53.33	43.60	66.10	199.8	423.0	299.9	307.6	1362	3834	3855	932.9	56.30	8.222	5.686	4.103	3.331	2.895	2.621	2.347	1.822	1.954	1.702	1.665	1.512	1.365	1.235	1.244	1.171	1.316	1.256	1.064	0.996	1.034	1.048	0.926	0.871	0.789	0.865	0.852	0.789	0.842	0.877	0.860	0.779	0.825	0.681	0.812	0.649	0.546	0.560	0.816	1.085	1.467	2.137	2.247	2.270	1.526	1.300	1.880	3.626	8.073	13.53	19.53	22.54	19.91	11.48	3.775	0.947	0.704	0.695	0.653	0.718	0.676	0.666	0.649	0.703
275.0	136.1	94.28	65.94	52.41	80.95	208.4	523.2	353.1	370.4	977.8	2995	6073	1276	52.39	8.148	5.308	3.993	3.240	2.771	2.551	1.989	1.990	1.830	1.579	1.613	1.341	1.240	1.225	1.233	1.146	1.103	1.080	1.014	1.045	1.017	1.044	1.089	1.055	1.016	0.822	0.837	0.974	1.005	0.912	0.874	0.803	0.840	0.917	0.690	0.600	0.585	0.732	0.806	0.918	1.123	1.420	2.562	3.577	2.656	1.406	1.491	2.530	3.697	5.099	7.183	14.16	27.10	31.63	16.85	4.057	0.929	0.638	0.682	0.697	0.671	0.715	0.839
280.0	216.2	189.0	129.2	76.72	67.58	103.2	341.7	622.4	285.2	318.8	928.7	4548	5800	909.8	23.46	6.875	4.500	3.557	2.903	2.531	2.024	2.008	2.233	1.853	1.741	1.398	1.358	1.265	1.263	1.075	1.166	1.228	1.124	1.169	1.139	1.152	1.186	1.295	1.107	1.030	0.970	1.102	1.142	1.076	0.986	1.137	1.132	0.978	0.873	0.708	0.706	0.779	0.822	0.763	0.789	0.955	1.489	2.411	3.794	3.110	1.984	1.560	1.737	2.057	2.461	4.218	9.979	22.55	31.75	27.60	11.97	2.280	0.775	0.737	0.733	0.704	0.760
285.0	387.0	354.2	257.2	139.2	83.24	86.46	170.2	559.4	586.0	273.7	391.3	1507	5516	5361	143.9	10.54	5.609	4.482	3.542	2.617	2.121	2.094	2.177	1.878	1.714	1.609	1.538	1.359	1.444	1.260	1.233	1.162	1.271	1.181	1.241	1.428	1.473	1.487	1.300	1.363	1.353	1.356	1.484	1.218	1.396	1.403	1.490	1.474	1.168	1.037	0.897	0.899	0.812	0.857	0.721	0.904	1.031	1.444	2.289	3.754	4.038	2.734	1.782	1.525	1.801	2.133	3.507	6.880	13.57	26.31	34.60	23.64	7.344	1.366	0.786	0.780	0.788
290.0	655.9	658.3	494.0	249.6	135.4	106.1	138.0	295.6	663.6	734.5	476.4	660.1	1789	4626	4382	537.3	36.13	5.529	4.305	3.004	2.596	2.287	2.085	1.887	1.779	1.583	1.498	1.495	1.320	1.344	1.223	1.263	1.191	1.251	1.557	1.806	1.996	1.953	1.779	1.569	1.607	1.650	1.836	1.838	1.874	2.037	2.092	2.217	2.001	1.534	1.230	1.167	0.940	0.940	0.985	0.918	0.977	1.186	1.470	1.962	2.837	3.881	4.188	3.936	2.928	2.334	2.567	3.429	4.775	8.031	13.69	20.25	24.65	23.53	15.37	5.818	1.610
295.0	885.1	915.2	697.6	374.9	186.3	139.5	156.2	241.6	422.6	899.6	1026	653.9	742.9	1245	2719	5298	795.1	34.01	5.377	4.027	3.215	2.428	2.499	1.860	1.885	1.703	1.715	1.569	1.311	1.279	1.309	1.140	1.142	1.323	1.678	2.055	2.318	2.363	2.198	2.018	1.824	1.874	2.079	2.239	2.413	2.693	2.880	2.757	2.572	2.008	1.530	1.518	1.302	1.100	1.096	1.095	1.216	1.426	1.432	1.603	1.981	2.632	3.356	5.209	6.200	4.653	3.501	3.116	3.430	3.858	4.667	5.740	7.051	11.37	23.04	32.28	23.46
300.0	1012	1054	837.8	442.5	215.9	172.8	188.7	256.1	389.8	699.3	1291	970.0	595.1	494.6	790.7	3670	5061	577.7	14.72	4.796	3.889	2.753	2.717	2.072	2.293	1.857	1.697	1.671	1.723	1.282	1.557	1.329	1.175	1.465	1.633	2.402	2.471	2.417	2.441	1.984	1.851	2.097	2.370	2.514	2.687	3.054	3.193	3.174	3.062	2.163	1.825	1.680	1.394	1.239	1.255	1.253	1.260	1.604	1.538	1.875	2.087	2.383	2.876	3.585	5.281	6.610	5.912	4.352	3.410	2.949	2.810	2.641	2.620	3.483	7.326	17.27	31.25
305.0	1109	1111	892.6	467.5	244.3	195.2	219.0	289.3	420.4	615.0	1070	1377	718.4	370.3	294.1	1098	4530	3991	88.39	7.805	4.355	3.490	3.106	2.458	2.165	1.946	1.706	1.674	1.694	1.382	1.441	1.260	1.229	1.474	1.825	2.317	2.605	2.726	2.503	2.028	1.989	2.147	2.594	2.691	2.717	3.594	3.133	3.476	3.140	2.310	1.921	1.759	1.538	1.404	1.416	1.296	1.383	1.536	1.621	2.075	2.436	2.475	2.812	3.393	4.055	5.464	6.422	6.804	4.903	3.485	2.558	2.297	1.984	1.872	2.527	4.813	10.84
310.0	1060	1104	857.4	473.4	264.6	208.7	228.4	312.3	430.2	591.5	819.7	1123	1083	497.0	219.1	333.1	1310	3251	3513	356.8	24.32	4.634	3.526	2.656	2.393	2.095	1.851	1.852	1.618	1.479	1.488	1.324	1.274	1.472	1.737	2.152	2.509	2.458	2.138	2.119	2.101	2.104	2.309	2.576	2.868	3.289	3.085	3.374	3.029	2.334	1.893	1.769	1.587	1.388	1.395	1.351	1.508	1.629	1.822	2.123	2.292	2.495	2.888	3.395	3.643	4.161	4.510	5.515	5.694	5.532	3.892	2.770	1.814	1.669	1.594	2.046	3.379
315.0	1250	1386	958.7	498.0	284.6	227.3	252.9	341.6	454.0	611.1	775.4	906.5	1005	959.6	387.5	248.4	395.9	820.5	2160	4145	545.4	24.64	4.781	3.393	2.624	2.069	1.999	1.916	1.697	1.454	1.655	1.331	1.284	1.309	1.708	2.146	2.378	2.543	2.013	2.087	2.059	2.169	2.578	2.725	3.163	3.500	3.710	4.273	3.215	2.393	1.885	1.850	1.673	1.563	1.404	1.366	1.595	1.688	1.920	2.084	2.432	2.515	3.154	3.725	3.920	3.872	4.111	4.393	4.454	5.154	5.439	5.376	3.422	2.341	1.823	2.224	2.246
320.0	1940	2032	1384	706.3	366.5	275.8	300.4	395.8	549.0	722.9	924.5	1050	1045	1171	840.5	421.9	318.5	315.5	631.7	2898	3670	417.3	11.38	4.380	3.035	2.315	2.246	2.138	1.605	1.692	1.624	1.359	1.395	1.465	1.601	2.013	2.384	2.449	2.490	2.468	2.504	2.709	3.301	3.423	4.365	5.238	6.026	5.886	4.547	3.200	2.442	2.358	1.854	1.739	1.638	1.498	1.771	1.978	2.090	2.340	2.587	3.111	3.490	3.890	4.393	4.316	4.857	4.716	4.592	4.961	5.033	6.143	6.090	4.628	3.451	2.640	2.758
325.0	2623	3245	2421	1043	599.6	377.5	380.5	472.6	651.7	868.3	1103	1251	1214	1197	1183	713.8	400.8	257.3	258.9	910.3	3363	3052	66.31	7.119	3.718	2.723	2.234	2.211	1.961	1.749	1.575	1.390	1.442	1.445	1.733	1.910	2.357	2.456	2.618	2.848	2.992	3.134	3.890	4.568	5.695	7.154	8.295	8.942	7.235	5.335	4.151	3.889	2.735	2.170	2.020	1.696	2.015	2.288	2.348	2.652	3.018	3.234	3.822	4.405	4.890	4.926	5.262	5.676	5.591	5.637	5.271	5.829	6.422	6.468	5.654	4.185	3.218
330.0	3258	4203	3463	1972	902.1	501.8	448.7	555.8	732.5	975.8	1231	1405	1396	1297	1158	1030	618.6	312.9	220.4	331.8	1039	2632	2951	277.4	19.06	4.089	2.764	2.487	2.031	1.873	1.766	1.521	1.409	1.424	1.626	1.733	2.293	2.652	2.741	2.975	3.162	3.624	4.512	5.596	6.897	9.155	10.32	11.52	10.20	7.776	6.427	5.737	4.114	3.193	2.373	2.179	2.211	2.560	2.690	2.968	3.240	3.679	4.248	4.852	5.185	5.768	6.092	6.415	6.272	6.269	6.113	6.257	6.250	5.927	5.761	5.990	5.049
335.0	3538	4704	4128	2490	1158	592.6	509.4	602.5	786.1	1030	1296	1489	1514	1387	1147	961.2	848.6	445.2	248.7	235.3	367.9	706.5	1924	3516	431.4	18.27	4.070	3.087	2.199	1.974	2.003	1.427	1.514	1.518	1.482	1.976	2.096	2.538	2.777	3.188	3.279	3.866	5.176	6.165	7.881	9.972	11.71	13.19	11.74	9.464	7.767	7.002	5.013	3.473	2.759	2.517	2.540	2.774	2.899	3.171	3.411	3.963	4.453	5.005	5.607	6.133	6.229	6.979	6.786	6.879	6.872	6.322	6.044	5.622	5.541	5.409	5.422
340.0	3996	5260	4856	3020	1418	703.6	574.4	655.3	830.1	1086	1377	1568	1608	1476	1221	931.5	800.0	628.1	320.5	245.5	254.2	291.8	589.7	2646	2980	319.4	8.248	3.671	2.357	2.233	1.978	1.565	1.456	1.438	1.573	1.786	2.187	2.469	2.942	3.138	3.655	4.127	5.412	6.698	8.716	11.27	13.09	15.05	13.74	11.13	9.381	8.348	5.791	4.177	3.093	2.794	2.761	3.010	3.012	3.131	3.656	4.161	4.688	5.334	5.759	6.125	6.449	6.942	6.903	7.034	7.145	7.043	6.893	6.376	5.879	5.031	4.745
345.0	4216	5619	5286	3431	1626	811.5	648.7	708.1	885.7	1137	1415	1622	1639	1507	1246	938.1	680.0	668.6	465.3	285.7	258.3	229.7	250.8	847.0	2871	2286	53.73	5.229	2.922	2.372	2.233	1.666	1.620	1.444	1.710	1.878	2.278	2.513	2.957	3.095	3.720	4.379	5.237	6.883	8.776	11.45	13.47	16.49	15.21	12.26	10.48	9.623	6.335	4.783	3.656	2.880	3.004	2.999	3.402	3.454	3.844	4.113	4.917	5.491	5.994	6.224	6.624	7.109	7.269	7.220	7.336	7.016	6.771	6.538	6.075	5.156	4.734
350.0	3785	5384	5158	3415	1681	918.2	752.6	801.2	932.0	1137	1365	1540	1560	1433	1205	906.6	629.1	520.4	533.9	410.1	289.1	239.1	202.5	293.8	883.0	2071	2089	234.9	14.36	3.134	2.577	2.060	1.903	1.606	1.583	1.909	2.231	2.467	2.738	3.097	3.461	4.317	5.163	6.569	8.329	10.87	12.61	15.54	14.80	12.38	10.53	9.657	6.645	4.893	4.058	3.371	3.336	3.471	3.686	4.004	4.149	4.251	4.824	5.356	5.508	6.041	6.340	6.663	6.847	6.997	6.908	7.016	6.446	6.252	5.730	4.954	4.656
355.0	3477	4852	4789	3206	1638	953.1	787.7	849.7	913.0	1078	1284	1412	1429	1304	1120	842.5	591.2	441.9	425.0	506.0	383.2	264.1	211.5	184.3	263.2	520.0	1499	2668	355.8	11.06	3.197	2.235	1.913	1.783	1.642	1.790	2.069	2.359	2.580	2.826	3.306	3.919	4.557	5.717	7.270	9.975	11.94	14.44	14.09	11.84	10.06	9.349	6.370	4.927	4.213	3.440	3.749	3.636	3.747	4.011	4.240	4.422	4.816	4.893	5.428	5.537	5.847	6.127	6.482	6.637	6.261	6.456	6.204	6.064	5.396	4.666	4.259
360.0	3156	4491	4465	3040	1567	938.1	776.3	816.1	874.5	1018	1196	1313	1326	1206	1049	791.3	555.9	419.5	369.4	442.7	478.0	309.3	224.3	169.6	134.7	157.5	429.3	2153	2298	55.63	5.829	2.586	2.122	1.895	1.580	1.770	1.923	2.145	2.547	2.754	3.214	3.640	4.119	5.209	6.626	9.306	10.91	13.03	12.90	10.63	9.517	8.369	6.613	5.002	4.328	3.785	3.749	3.676	3.666	3.856	3.950	4.430	4.651	4.643	5.117	5.176	5.571	5.607	5.823	6.341	6.146	6.041	5.581	5.835	4.860	4.528	4.034
365.0	2813	4062	4081	2849	1516	910.7	768.2	771.5	819.1	948.5	1106	1205	1214	1100	959.4	734.1	528.9	406.0	353.7	366.5	465.7	398.7	244.3	176.4	113.9	83.78	128.4	677.9	2442	1790	47.40	3.671	2.583	1.919	1.722	1.691	1.804	2.135	2.456	2.637	3.012	3.434	3.928	4.973	6.559	8.342	9.990	11.58	11.63	9.974	8.799	7.729	6.071	4.888	3.922	3.701	3.484	3.425	3.534	3.874	4.147	3.885	4.316	4.542	4.925	4.884	5.094	5.243	5.527	5.745	5.509	5.490	5.256	5.202	4.599	4.223	3.829
370.0	2426	3375	3481	2430	1388	896.2	769.1	774.2	786.3	869.7	989.0	1054	1052	964.8	847.1	662.4	494.9	389.9	343.7	331.1	364.0	413.2	334.7	198.1	120.7	79.73	70.42	180.7	750.2	1833	2071	201.4	10.38	2.439	1.976	1.781	1.932	2.060	2.233	2.398	2.635	3.220	3.474	4.393	5.534	6.980	8.363	10.17	9.973	8.497	7.437	6.970	5.487	4.659	3.748	3.498	3.529	3.463	3.594	3.803	3.678	3.673	4.045	4.206	4.593	4.371	4.596	4.730	4.851	4.882	5.032	4.771	4.535	4.480	4.346	3.905	3.389
375.0	1983	2692	2839	2048	1224	839.5	716.9	720.8	720.8	772.2	856.7	902.9	889.8	818.1	735.2	584.9	453.1	367.3	328.8	318.7	311.9	324.8	373.8	278.8	141.5	95.80	69.29	78.15	193.2	454.9	1595	2162	285.1	8.137	2.418	2.087	1.950	2.127	2.175	2.130	2.599	2.895	2.994	3.694	4.663	5.923	6.810	8.230	8.590	7.165	6.198	6.425	4.792	4.153	3.745	3.162	3.183	3.222	3.454	3.544	3.405	3.409	3.622	3.856	3.952	3.984	3.986	4.133	4.188	4.231	4.341	4.289	4.218	4.095	3.857	3.367	3.295
380.0	1636	2337	2434	1784	1112	791.9	668.4	653.6	649.0	692.6	760.5	798.0	790.0	723.4	642.6	527.0	423.1	352.2	319.8	304.7	292.8	285.6	312.1	336.6	188.3	107.2	78.93	63.65	74.15	123.7	452.2	1815	1782	46.22	4.339	2.232	1.990	2.069	1.966	2.151	2.379	2.558	2.853	3.178	4.095	4.789	5.633	6.919	7.088	6.057	5.487	5.453	4.262	3.904	3.613	3.317	3.142	3.173	3.190	2.997	3.186	3.408	3.475	3.523	3.845	3.698	3.651	3.711	3.867	3.790	3.782	3.783	3.837	3.486	3.237	3.357	2.897
385.0	1428	1983	2042	1530	998.8	741.4	637.4	601.2	588.8	626.5	677.4	702.3	695.6	638.9	573.1	474.1	384.5	334.1	311.0	295.2	281.1	268.3	261.6	305.4	254.7	131.3	86.71	65.15	53.93	53.56	119.9	577.1	1934	1405	36.08	2.900	2.280	2.341	1.992	2.141	2.172	2.430	2.724	3.089	3.339	4.169	4.939	5.810	6.122	5.201	4.964	4.851	3.898	3.363	3.352	3.131	3.277	2.910	2.995	2.765	2.990	2.986	3.127	3.302	3.255	3.373	3.462	3.444	3.557	3.534	3.267	3.501	3.439	3.303	3.117	2.984	2.721
390.0	1170	1598	1661	1286	894.9	695.1	594.5	570.7	540.5	557.6	583.1	606.1	599.7	551.6	499.6	422.2	353.0	314.4	290.8	278.5	270.8	256.4	238.2	234.7	253.1	203.1	114.0	75.76	57.93	44.82	50.20	146.1	592.4	1433	1398	159.1	8.995	2.622	2.212	2.073	2.106	2.231	2.396	2.565	2.931	3.669	4.126	4.866	4.997	4.433	3.995	4.047	3.547	3.272	3.110	2.796	2.887	2.822	2.936	2.568	2.959	2.591	2.966	2.865	2.864	3.050	2.924	2.902	3.031	3.132	3.115	3.100	2.971	2.927	2.938	2.641	2.517
395.0	978.7	1266	1346	1071	779.5	630.7	568.6	529.8	490.0	494.0	510.8	521.2	516.6	472.6	436.3	376.8	321.8	287.5	274.2	262.4	257.1	246.8	226.0	206.2	195.6	222.5	178.8	95.91	67.92	51.12	41.27	52.58	146.3	353.7	1096	1606	240.2	6.393	2.413	2.120	2.289	2.141	2.339	2.386	2.758	3.125	3.441	4.216	4.319	3.670	3.332	3.764	3.125	3.008	2.642	2.605	2.819	2.730	2.903	2.775	2.698	2.560	2.753	2.720	2.555	2.736	2.521	2.733	2.729	2.985	2.754	2.822	2.605	2.593	2.639	2.559	2.293
400.0	875.1	1063	1146	919.4	707.3	593.1	550.1	498.0	459.2	451.9	459.8	463.1	451.2	432.9	396.9	342.0	303.8	272.7	258.5	251.9	244.7	236.2	218.0	196.1	176.2	184.0	214.1	133.1	76.78	56.01	42.40	35.06	49.16	91.37	312.1	1331	1384	39.32	3.701	2.269	2.151	2.143	1.994	2.222	2.488	2.876	3.064	3.650	3.660	3.233	3.078	3.221	2.807	2.862	2.606	2.571	2.634	2.693	2.558	2.669	2.601	2.280	2.406	2.371	2.554	2.353	2.479	2.569	2.495	2.758	2.499	2.635	2.426	2.389	2.762	2.373	2.325
405.0	744.5	950.7	982.6	820.2	656.3	550.0	518.5	483.7	438.7	420.3	415.5	427.2	418.6	397.1	363.1	315.0	283.5	258.9	247.9	238.5	231.3	227.7	211.8	191.1	169.8	157.2	189.4	178.5	98.02	61.99	46.85	35.46	30.28	34.94	81.49	420.5	1457	1096	31.35	2.754	2.304	2.121	2.077	2.116	2.297	2.595	2.783	3.179	3.146	2.889	2.920	3.033	2.807	2.724	2.502	2.511	2.605	2.554	2.434	2.516	2.409	2.179	2.171	2.277	2.401	2.202	2.223	2.437	2.307	2.464	2.198	2.418	2.269	2.247	2.322	2.173	2.189
410.0	657.6	812.9	836.7	716.5	581.9	515.5	491.7	460.7	420.2	386.6	377.9	381.6	372.9	354.5	326.4	288.2	261.9	240.3	233.0	224.5	218.1	210.9	201.8	185.3	164.9	148.6	147.6	170.6	149.6	84.04	54.63	40.48	30.28	25.53	30.95	104.4	442.0	1130	1069	144.1	7.276	2.330	2.158	1.970	2.243	2.441	2.454	2.822	2.752	2.577	2.539	2.788	2.477	2.515	2.424	2.284	2.475	2.373	2.480	2.408	2.261	2.243	2.216	2.231	2.163	2.081	2.099	2.213	2.110	2.128	2.024	2.288	2.099	2.173	1.977	2.026	2.171
415.0	560.8	692.6	708.5	626.4	533.1	485.1	474.9	448.3	406.6	363.0	347.0	341.9	331.2	322.9	291.1	264.4	241.8	222.2	212.5	209.6	201.9	198.1	190.1	176.9	159.2	143.4	130.4	131.7	156.0	131.1	68.84	44.21	35.02	26.80	22.09	34.62	107.6	277.9	822.0	1216	204.5	5.668	2.330	1.928	2.272	2.054	2.293	2.596	2.398	2.326	2.293	2.536	2.469	2.376	2.319	2.338	2.362	2.453	2.413	2.319	2.238	2.227	2.148	2.058	1.995	1.813	1.965	2.000	2.029	1.917	1.969	2.077	1.988	2.172	1.905	1.876	1.966
420.0	531.0	606.6	638.1	569.1	502.7	474.2	459.4	434.4	395.1	342.5	321.7	311.8	307.0	299.8	269.1	247.1	225.7	207.8	200.2	195.6	190.5	188.1	181.3	168.1	153.7	140.6	127.2	116.6	126.6	149.5	97.58	50.57	37.46	28.46	22.23	21.17	33.77	69.92	231.1	1003	1063	36.56	3.303	2.305	1.990	2.105	2.169	2.334	2.340	2.090	1.983	2.210	2.347	2.253	2.130	2.189	2.281	2.470	2.543	2.313	2.266	2.110	2.083	2.048	1.986	1.894	1.877	1.975	1.947	1.816	1.908	1.923	1.966	1.978	1.895	1.941	2.005
425.0	510.5	555.9	584.0	512.7	464.7	452.3	448.8	440.3	385.0	330.0	304.0	297.5	283.7	273.2	253.3	229.5	210.5	197.7	190.4	182.9	178.4	176.5	169.4	161.2	149.3	138.3	125.1	110.9	106.6	129.8	125.6	65.18	39.66	30.82	23.35	19.25	18.59	24.06	58.69	312.5	1085	832.2	29.79	2.780	2.149	2.221	2.065	2.244	2.123	1.895	1.990	2.160	2.205	2.246	2.156	2.325	2.329	2.230	2.167	2.415	2.272	2.094	2.151	1.943	1.887	1.749	1.775	1.836	1.879	1.833	2.022	1.688	1.714	1.809	1.853	1.683	1.780
430.0	682.2	507.2	528.1	474.0	432.9	423.8	441.9	428.5	375.8	318.4	290.4	278.8	266.2	252.0	234.8	211.2	198.0	185.5	177.6	170.1	166.4	164.5	159.4	152.4	142.6	131.8	121.6	109.3	100.5	99.29	114.2	98.96	54.99	33.94	26.61	20.67	16.74	15.21	20.50	75.90	319.6	793.9	668.0	138.4	7.945	2.224	2.013	2.154	2.038	1.792	1.817	2.119	2.131	2.079	2.072	2.167	2.177	2.322	2.139	2.191	2.257	2.031	1.980	1.873	1.716	1.699	1.672	1.711	1.682	1.776	1.794	1.696	1.744	1.656	1.719	1.720	1.786
435.0	1421	480.1	474.1	443.1	409.5	427.4	425.5	420.2	371.1	313.3	276.9	258.6	245.6	234.6	218.9	198.0	185.1	174.9	165.2	161.0	155.4	153.9	149.0	144.8	136.1	127.4	117.6	108.6	96.76	87.77	85.79	98.95	86.07	44.98	28.67	22.58	18.23	14.83	13.28	23.75	76.77	191.7	551.0	1062	205.6	7.425	2.168	2.085	1.942	1.781	1.746	2.055	2.004	2.035	1.986	1.989	2.006	2.211	2.166	2.313	2.134	2.026	1.949	1.727	1.823	1.699	1.660	1.586	1.474	1.613	1.737	1.585	1.579	1.445	1.734	1.661	1.783
440.0	2061	655.2	439.1	419.0	401.7	416.5	409.4	429.3	360.4	304.2	264.7	248.0	236.5	224.7	206.7	189.0	174.4	165.7	158.5	152.1	147.9	144.3	141.1	138.3	131.0	123.7	114.2	105.8	96.23	85.91	76.70	77.68	93.84	62.54	33.42	23.98	19.31	15.83	12.85	12.70	23.33	48.19	154.0	801.5	945.5	35.05	4.017	2.390	1.946	1.789	1.743	1.992	1.894	1.996	1.964	2.003	2.080	2.250	2.191	2.198	2.148	1.978	1.831	1.697	1.685	1.646	1.709	1.591	1.532	1.535	1.630	1.714	1.573	1.569	1.598	1.543	1.672
445.0	2263	1156	415.8	393.7	384.5	393.5	420.4	409.1	355.5	289.6	260.0	230.7	222.3	212.4	196.3	181.9	168.2	158.5	151.3	145.4	140.5	138.5	133.6	132.7	123.2	117.2	110.5	101.6	93.41	86.19	73.88	65.67	78.99	80.33	43.36	25.71	20.82	16.94	13.59	11.19	12.25	16.41	39.57	237.2	871.8	782.8	28.30	3.064	2.037	1.854	1.898	1.939	1.805	1.848	1.924	1.846	2.123	2.253	2.139	2.299	2.022	2.095	1.897	1.719	1.737	1.534	1.530	1.508	1.488	1.465	1.528	1.538	1.539	1.650	1.366	1.434	1.558
450.0	1360	2052	658.9	362.2	349.9	364.5	389.4	400.5	341.1	282.4	244.2	213.9	207.4	193.6	181.8	168.5	156.1	145.9	140.8	132.7	129.6	125.2	121.8	120.7	114.2	110.5	103.1	95.79	90.03	81.71	72.13	61.56	60.32	69.35	62.52	35.71	22.94	18.14	14.68	12.41	11.04	10.22	14.05	57.98	245.8	650.2	783.3	131.5	8.766	1.937	1.684	1.877	1.820	1.795	1.920	1.917	2.065	2.146	1.963	2.178	2.053	1.827	1.828	1.576	1.641	1.521	1.439	1.410	1.561	1.529	1.460	1.580	1.445	1.438	1.430	1.389	1.394
455.0	601.2	1981	1346	355.0	321.7	342.4	366.5	374.7	321.0	263.9	230.3	199.3	191.6	182.8	167.5	153.9	140.4	134.3	126.8	120.7	116.3	110.4	110.5	108.8	105.1	99.68	95.29	88.59	85.25	77.77	69.26	58.85	52.08	49.24	59.14	53.93	29.05	19.42	16.42	13.67	11.31	9.775	8.904	18.14	59.47	154.2	426.1	878.5	194.3	9.526	1.745	1.981	1.841	1.861	1.673	1.882	1.967	2.115	2.018	2.071	2.112	1.825	1.788	1.690	1.654	1.475	1.498	1.380	1.386	1.371	1.396	1.344	1.303	1.428	1.360	1.362	1.443
460.0	375.1	1217	2231	530.5	305.2	309.4	345.8	352.7	301.7	250.4	213.8	191.1	180.4	168.5	154.9	142.5	132.1	124.5	118.9	112.9	105.0	103.1	102.7	99.47	98.35	92.30	87.94	82.71	80.61	74.30	65.24	55.49	48.65	42.09	45.51	57.28	41.01	21.75	16.64	14.25	11.62	10.11	8.508	9.378	17.64	38.31	108.8	552.5	836.4	151.0	5.303	1.947	1.812	1.886	1.747	1.694	1.922	1.975	1.894	1.965	1.905	1.651	1.693	1.692	1.623	1.430	1.444	1.245	1.388	1.369	1.359	1.322	1.371	1.375	1.360	1.312	1.472
465.0	316.8	590.5	2223	936.8	299.7	296.3	322.2	331.4	287.9	229.8	199.1	178.6	164.9	154.6	145.9	133.0	124.8	114.4	111.0	103.5	97.77	95.76	93.84	91.54	91.03	87.45	82.24	78.34	74.76	70.05	62.38	54.08	46.45	39.00	37.05	46.70	49.81	29.36	17.92	14.45	11.94	10.19	9.134	7.975	8.972	12.82	28.28	149.9	644.9	740.3	25.69	3.768	1.798	1.723	1.889	1.846	1.886	1.934	1.930	1.840	1.748	1.555	1.592	1.627	1.540	1.306	1.285	1.309	1.279	1.267	1.185	1.390	1.228	1.291	1.222	1.229	1.338
470.0	319.8	338.6	1219	1889	492.8	267.6	293.6	304.2	263.2	208.3	182.2	161.9	147.8	138.3	128.6	120.3	109.0	102.2	98.84	93.01	86.32	85.32	82.40	80.19	80.10	77.26	74.26	72.02	68.74	64.06	57.19	50.29	42.50	36.42	32.96	32.90	40.84	38.58	23.99	15.15	12.50	10.83	9.523	8.084	7.212	7.001	9.739	36.57	169.7	476.9	578.2	246.5	11.06	1.864	1.852	1.783	1.775	1.814	1.857	1.761	1.766	1.609	1.477	1.614	1.385	1.305	1.208	1.267	1.280	1.194	1.252	1.192	1.236	1.260	1.141	1.172	1.180
475.0	336.0	264.7	468.8	1683	1271	257.9	256.5	268.8	241.9	192.8	164.0	142.3	133.6	123.1	112.5	105.3	97.40	90.73	84.77	84.30	76.56	74.10	74.16	70.75	71.24	67.87	64.95	62.26	61.19	57.39	51.80	45.75	38.69	34.56	30.42	27.08	27.07	35.45	32.80	18.89	12.91	10.41	8.892	8.281	7.143	5.761	5.531	11.07	40.43	109.5	239.9	617.7	211.3	14.74	1.858	1.860	1.654	1.746	1.693	1.736	1.548	1.489	1.433	1.438	1.419	1.166	1.335	1.193	1.155	1.165	1.167	1.159	1.084	1.104	1.190	1.147	1.159
480.0	333.4	275.7	276.2	976.3	1918	429.5	234.8	248.3	219.5	179.2	150.4	133.1	123.0	109.8	104.7	95.33	90.64	83.79	78.67	74.36	69.01	67.21	66.58	65.28	64.97	61.10	59.95	58.36	56.28	52.64	48.36	43.16	37.37	31.63	28.68	25.38	22.61	26.29	34.13	25.22	14.13	11.02	9.149	7.902	6.841	5.992	4.673	5.683	11.40	26.70	58.42	297.3	658.0	195.9	8.338	1.717	1.738	1.715	1.607	1.540	1.469	1.397	1.408	1.298	1.389	1.196	1.153	1.219	1.175	1.088	1.166	1.173	1.201	1.072	1.145	1.079	1.157
485.0	293.2	300.2	210.0	454.0	1890	680.9	228.8	229.7	206.7	167.8	144.1	125.3	111.7	102.0	97.67	89.49	82.89	76.61	73.74	68.90	63.96	62.82	61.37	59.47	59.17	56.76	55.64	55.48	52.94	50.99	45.03	40.30	35.10	30.90	27.53	23.31	21.11	21.24	27.49	29.81	18.88	11.37	9.620	8.035	6.830	6.138	5.060	4.516	5.003	8.238	15.17	75.93	415.4	671.9	143.9	4.696	1.815	1.692	1.674	1.532	1.448	1.492	1.479	1.299	1.289	1.150	1.193	1.087	1.046	1.049	1.095	1.096	1.150	1.044	1.121	1.064	1.158
490.0	228.5	306.8	214.1	237.3	1012	1583	394.6	208.8	185.7	155.4	128.9	116.4	102.8	94.60	86.50	80.64	74.27	69.65	66.07	61.46	58.57	56.05	54.31	52.77	52.41	51.01	49.65	49.73	48.12	44.94	41.31	36.83	32.21	28.28	25.39	22.21	20.31	18.56	19.55	24.97	24.99	15.23	10.04	8.176	6.784	5.892	5.225	4.398	3.780	4.053	5.558	19.06	104.1	346.4	543.8	289.9	14.90	1.893	1.691	1.626	1.462	1.491	1.342	1.240	1.206	1.113	1.122	1.046	1.016	1.063	1.060	0.998	1.056	1.014	1.071	0.993	1.105
495.0	176.4	252.1	246.0	176.5	363.2	1449	1118	208.1	164.3	138.4	114.2	101.3	92.74	85.01	78.35	71.35	65.93	60.15	58.93	54.35	51.01	49.44	47.03	47.57	46.26	44.19	44.32	43.46	42.57	40.72	36.57	33.60	29.62	25.57	23.57	20.57	18.70	17.13	16.26	17.27	23.02	21.73	12.48	8.247	6.615	5.583	4.977	4.529	3.921	3.311	3.359	6.559	25.32	79.66	197.8	597.9	252.7	20.39	1.806	1.606	1.530	1.446	1.317	1.172	1.234	1.086	1.023	1.100	1.002	1.035	1.008	0.909	1.000	1.025	1.050	0.987	1.169
500.0	159.3	193.2	261.3	158.5	191.9	844.3	1692	328.2	146.9	130.6	105.6	93.03	81.66	76.66	69.57	65.35	60.94	57.19	52.04	49.91	44.86	43.91	43.71	42.72	42.58	40.58	40.46	39.68	38.32	36.92	33.25	30.80	27.48	24.08	22.10	19.39	17.73	15.78	14.48	14.14	16.63	21.73	16.66	9.110	6.490	5.634	4.831	4.597	4.247	3.561	2.996	3.698	7.775	19.82	47.49	248.7	625.8	229.0	12.14	1.552	1.450	1.321	1.292	1.095	1.157	1.010	1.025	1.051	1.079	0.965	1.054	0.962	0.939	1.020	0.939	0.953	1.002
505.0	145.7	150.1	259.3	170.8	143.4	379.7	1718	730.9	142.6	118.6	97.97	85.61	75.59	71.08	64.00	58.00	54.48	51.17	47.91	43.89	42.68	39.96	39.60	38.17	37.29	37.24	36.32	35.15	34.86	34.21	30.59	28.33	25.22	22.47	20.61	18.88	16.22	15.17	13.36	12.23	12.57	17.73	19.66	11.76	7.029	5.525	4.927	4.400	4.026	3.630	3.060	2.831	3.809	6.528	12.72	60.99	325.4	619.9	168.4	5.099	1.367	1.303	1.132	1.127	1.044	1.027	0.991	1.043	0.945	0.997	0.946	1.034	0.846	0.981	0.897	0.933	1.010
510.0	130.5	129.7	189.9	204.2	125.9	177.5	938.3	1464	257.3	105.2	85.84	75.25	69.68	63.93	55.60	50.59	46.68	44.04	41.96	39.30	37.03	35.23	34.45	33.26	32.46	32.54	32.00	31.66	30.20	29.93	27.31	25.07	22.17	19.64	18.22	16.53	14.67	13.66	12.13	11.06	10.25	11.70	16.05	15.41	9.623	5.735	4.881	4.297	3.780	3.448	3.334	2.877	2.905	3.396	4.790	15.51	79.50	280.6	444.5	215.1	14.59	1.491	1.189	1.071	1.116	1.048	0.945	1.045	0.909	0.838	0.966	0.943	0.904	0.885	0.924	0.925	0.922
515.0	115.0	100.5	123.3	211.8	141.7	121.8	322.2	1420	841.5	101.7	76.00	66.92	59.25	53.67	48.15	44.94	41.33	37.77	35.85	34.30	31.55	30.16	29.72	28.78	27.40	28.12	26.96	27.38	26.64	25.81	23.76	21.47	19.33	18.18	15.72	14.49	13.18	11.98	11.23	9.822	8.835	8.613	9.824	14.15	13.14	7.270	4.873	3.981	3.623	3.163	3.250	3.246	2.749	2.641	2.861	5.380	19.47	64.43	147.0	423.6	244.3	19.00	1.383	1.162	1.261	0.948	0.932	0.879	0.849	0.832	0.955	0.891	0.896	0.961	0.867	0.898	0.859
520.0	108.9	99.39	97.30	169.0	167.5	102.0	151.7	835.4	1427	191.1	68.77	61.89	54.05	50.42	43.75	41.30	36.56	34.69	32.95	29.85	28.34	27.03	25.65	25.25	24.63	24.76	23.68	24.93	23.23	23.01	21.52	19.45	17.34	16.44	14.35	13.54	12.32	10.77	10.12	9.029	8.134	7.535	7.621	10.64	14.06	9.785	5.378	3.639	3.378	2.944	2.948	3.388	3.051	2.582	2.252	2.889	6.141	15.96	35.11	171.3	464.9	210.1	11.30	1.172	1.075	1.033	0.875	0.883	0.842	0.873	0.858	0.791	0.853	0.975	0.754	0.867	0.932
525.0	101.0	91.12	88.70	124.2	183.5	104.1	103.7	356.0	1579	348.0	63.71	56.59	50.36	44.46	39.52	35.98	33.22	30.31	29.14	26.12	25.97	24.55	23.88	22.10	21.37	22.24	21.41	21.53	21.16	20.82	19.87	17.95	16.47	14.30	12.73	11.55	10.75	10.01	9.134	8.339	7.615	7.095	6.641	7.465	11.20	11.62	7.217	3.891	3.556	2.830	2.779	2.871	2.885	2.755	2.289	2.225	2.910	5.229	9.421	41.80	229.4	482.8	152.0	4.240	1.203	0.993	0.879	0.869	0.810	0.852	0.830	0.747	0.834	0.955	0.741	0.887	0.761
530.0	94.69	83.80	80.16	85.77	161.8	127.8	86.88	147.4	905.1	1184	161.5	47.43	42.56	38.74	33.98	30.60	28.78	26.69	24.74	23.05	21.77	20.77	20.02	19.16	19.28	18.79	18.04	18.85	17.76	17.79	17.09	15.58	13.81	12.52	11.29	10.38	9.333	9.024	8.302	7.450	6.843	6.472	5.672	5.686	7.169	10.17	9.339	5.332	3.348	2.778	2.449	2.561	2.541	2.858	2.413	2.120	2.110	2.624	3.479	10.79	55.79	217.1	342.0	143.8	13.23	1.210	0.988	0.890	0.824	0.847	0.888	0.812	0.862	0.842	0.801	0.733	0.824
535.0	84.05	79.77	65.69	70.12	104.3	154.6	87.50	86.16	289.0	1301	646.5	50.08	36.89	34.04	29.09	26.72	24.12	22.24	21.08	19.94	18.40	17.21	17.26	15.65	16.39	16.14	15.48	15.90	15.39	14.97	14.37	12.82	11.87	10.78	10.18	8.905	8.323	7.647	7.226	6.758	5.964	5.441	5.192	4.802	5.034	6.437	9.118	7.529	4.180	2.610	2.402	2.420	2.337	2.417	2.581	2.432	1.919	1.866	1.928	3.571	13.55	49.50	107.4	307.5	215.5	16.70	1.175	0.921	0.837	0.732	0.809	0.827	0.794	0.796	0.753	0.778	0.832
540.0	89.71	76.21	59.43	63.13	71.90	152.2	96.72	69.04	108.2	772.0	1203	103.7	31.81	31.30	26.95	23.71	21.20	19.85	18.40	17.60	16.12	16.00	14.89	14.60	13.68	14.23	13.91	13.89	13.57	13.30	12.23	11.02	10.23	9.557	8.612	7.792	7.532	6.743	6.455	6.202	5.455	4.848	4.589	4.126	4.246	4.636	6.706	7.874	5.221	2.898	2.245	2.385	2.060	2.171	2.338	2.573	2.062	1.486	1.664	1.872	4.162	12.17	25.41	123.5	325.7	161.8	8.739	0.923	0.888	0.881	0.865	0.787	0.794	0.769	0.775	0.943	0.782
545.0	78.21	65.70	59.59	54.56	55.16	126.5	119.1	62.49	66.96	305.5	1372	249.7	29.39	28.26	24.48	20.29	19.46	17.46	16.67	15.57	13.41	13.83	13.57	13.40	12.51	12.57	12.42	12.12	12.54	11.77	11.01	9.984	9.571	8.465	8.017	7.374	6.698	6.132	5.618	5.401	4.934	4.638	4.233	3.884	3.707	3.709	4.401	6.985	6.247	3.725	2.438	2.081	1.826	1.940	1.923	2.236	2.345	1.501	1.379	1.398	1.984	3.748	6.734	30.03	152.8	309.5	36.19	3.364	0.977	0.924	0.834	0.787	0.779	0.771	0.809	0.953	0.760
550.0	80.20	64.04	58.71	45.81	47.74	77.05	138.6	70.97	50.71	106.8	767.8	901.8	86.93	23.84	20.39	17.51	16.05	14.73	14.10	12.88	11.60	11.32	11.46	11.23	10.26	10.47	10.28	9.920	10.47	9.683	9.141	8.528	8.064	7.308	6.433	6.100	5.583	5.512	4.929	4.559	4.215	4.045	3.638	3.398	3.123	3.073	3.078	4.293	5.688	4.889	2.895	2.049	1.629	1.749	1.833	1.674	2.071	1.817	1.514	1.305	1.415	1.716	2.432	7.572	36.81	130.8	213.5	118.2	12.13	1.014	0.797	0.760	0.749	0.736	0.767	0.784	0.757
555.0	80.60	57.84	47.91	45.60	39.96	47.42	113.1	96.04	46.76	51.80	228.1	1055	391.9	23.48	16.70	14.60	13.96	12.01	11.58	10.40	9.638	9.171	9.183	9.088	8.802	8.685	8.260	8.301	8.526	8.055	7.400	7.281	6.360	6.161	5.575	5.002	4.790	4.684	4.088	3.798	3.482	3.603	3.054	2.956	2.810	2.467	2.436	2.664	3.644	4.744	4.088	2.564	1.692	1.425	1.547	1.450	1.604	1.736	1.650	1.380	1.232	1.235	1.362	2.530	8.987	30.02	67.59	205.3	153.9	14.49	0.896	0.789	0.719	0.775	0.763	0.707	0.712
560.0	77.90	63.70	44.38	40.33	36.81	36.98	75.78	120.7	47.78	39.08	81.31	668.4	807.6	61.36	13.81	12.75	12.11	10.37	10.06	9.164	8.664	8.523	8.064	7.788	7.034	7.341	7.171	7.271	7.228	7.329	6.331	6.139	5.361	5.286	4.811	4.294	4.125	3.812	3.535	3.341	3.215	3.185	2.761	2.729	2.540	2.255	2.235	2.143	2.411	3.727	4.141	2.927	1.701	1.335	1.390	1.301	1.373	1.373	1.776	1.523	1.185	1.065	1.070	1.348	2.871	7.401	16.21	80.66	221.3	116.9	5.751	0.900	0.698	0.836	0.773	0.808	0.680
565.0	87.85	65.74	54.32	39.20	34.74	32.47	49.39	127.4	63.08	38.10	45.78	261.9	1027	177.4	12.83	11.31	9.537	9.316	9.127	8.268	7.390	7.306	6.754	6.203	6.437	6.541	6.313	6.257	6.473	6.095	5.607	5.324	5.028	4.724	4.056	3.952	3.432	3.484	3.052	2.857	2.801	2.782	2.528	2.350	2.300	2.093	1.856	1.868	1.784	2.593	3.503	3.460	2.017	1.312	1.224	1.124	1.161	1.360	1.573	1.660	1.373	1.060	0.996	1.064	1.515	2.384	4.366	19.66	103.0	216.2	34.85	2.442	0.828	0.783	0.777	0.725	0.770
570.0	99.15	77.81	59.21	40.22	33.36	29.62	34.09	89.37	96.54	44.18	40.57	94.31	631.2	937.1	43.24	9.861	8.337	7.800	7.593	6.908	6.093	6.068	5.890	5.133	5.252	5.115	5.221	5.237	5.299	4.958	4.650	4.301	4.185	3.836	3.447	3.235	3.198	2.987	2.688	2.599	2.437	2.403	2.277	2.162	1.960	1.791	1.677	1.645	1.482	1.713	2.309	3.078	2.422	1.664	1.184	1.070	1.162	1.160	1.172	1.394	1.441	1.256	0.989	1.060	1.049	1.258	1.699	5.174	25.15	91.68	142.7	80.89	8.947	0.860	0.759	0.740	0.712
575.0	100.8	91.99	71.96	42.71	31.96	27.65	29.24	52.22	115.3	62.24	45.56	53.95	198.8	1300	152.5	9.275	7.529	6.627	6.614	5.692	5.087	4.879	5.043	4.463	4.291	4.121	4.245	4.123	4.115	3.973	3.786	3.719	3.305	3.142	2.931	2.856	2.769	2.590	2.432	2.434	2.200	1.997	1.904	1.807	1.872	1.663	1.473	1.577	1.328	1.443	1.493	2.047	2.813	2.146	1.349	1.052	1.161	1.045	0.964	1.107	1.296	1.474	1.214	1.035	1.005	1.080	1.147	1.883	6.421	21.28	46.33	140.3	97.32	8.218	0.821	0.767	0.680
580.0	113.4	102.7	75.52	45.58	30.09	23.88	28.27	36.09	99.00	89.85	50.39	50.36	74.56	862.4	497.4	20.38	6.894	5.510	5.624	5.096	4.500	4.775	4.396	4.324	4.191	3.776	3.815	3.658	3.685	3.327	3.689	3.068	2.855	2.830	2.677	2.722	2.262	2.351	2.008	2.038	1.996	1.773	1.688	1.586	1.780	1.620	1.466	1.513	1.254	1.217	1.143	1.444	2.145	2.201	1.590	1.190	1.097	0.912	0.961	1.052	1.103	1.453	1.428	1.080	0.939	0.933	1.008	1.152	2.202	5.502	11.30	56.34	146.2	36.99	3.690	0.809	0.702
585.0	117.1	97.08	78.28	48.32	30.30	25.48	25.12	33.39	75.69	108.2	56.76	49.48	45.51	339.5	695.4	85.30	6.326	5.200	5.091	4.627	4.211	4.096	3.785	3.662	3.655	3.278	3.533	3.162	3.203	3.228	3.210	2.847	2.725	2.690	2.502	2.234	2.224	1.993	1.892	1.787	1.786	1.756	1.763	1.403	1.476	1.350	1.335	1.351	1.232	1.003	0.998	1.184	1.699	2.147	1.899	1.290	0.978	0.926	0.930	0.918	0.922	1.130	1.481	1.254	0.982	0.852	0.949	0.930	1.229	1.992	3.279	13.88	69.14	125.9	30.66	1.850	0.683
590.0	121.8	101.7	79.93	49.35	32.28	26.88	23.16	28.70	50.24	104.9	78.80	51.80	39.82	100.6	437.1	350.4	18.42	4.738	4.508	3.738	3.594	3.347	3.539	3.251	3.294	2.799	2.900	2.872	2.905	2.624	2.783	2.486	2.261	2.159	2.013	1.917	1.911	1.740	1.754	1.596	1.619	1.530	1.508	1.369	1.298	1.356	1.243	1.275	1.102	0.960	0.867	1.035	1.167	1.604	1.785	1.626	1.117	0.901	0.810	0.892	0.849	0.933	1.139	1.375	1.147	0.881	0.958	1.036	0.999	1.168	1.379	3.743	16.92	55.79	85.70	51.28	6.411
595.0	121.3	110.0	82.99	50.73	30.35	22.01	24.36	28.42	37.56	78.69	102.3	57.99	38.29	40.18	130.7	491.8	97.37	5.106	3.679	3.479	3.094	2.980	2.940	2.744	2.795	2.292	2.482	2.297	2.270	2.344	2.319	1.993	1.990	1.881	1.815	1.736	1.727	1.536	1.502	1.544	1.392	1.389	1.361	1.239	1.144	1.266	1.149	1.231	1.017	0.839	0.844	1.003	0.873	1.054	1.476	1.803	1.323	0.967	0.809	0.848	0.883	0.814	0.900	1.052	1.342	1.166	0.984	0.922	0.959	0.891	1.034	1.482	4.404	13.06	27.63	80.81	38.68
600.0	106.7	107.0	80.63	46.81	27.27	21.73	23.11	28.01	34.09	58.84	109.0	66.26	40.68	28.60	39.85	339.9	284.3	10.35	3.630	3.361	3.145	2.822	3.023	2.555	2.284	2.291	2.358	2.206	2.163	2.236	2.302	1.897	1.900	1.754	1.603	1.572	1.769	1.437	1.350	1.401	1.281	1.190	1.122	1.270	1.149	1.111	1.057	1.089	0.862	0.829	0.821	0.912	0.820	0.935	1.157	1.530	1.357	1.108	0.827	0.835	0.851	0.818	0.834	0.857	1.109	1.298	1.024	0.898	0.966	0.833	0.975	0.929	1.663	3.485	6.923	31.81	78.33
605.0	113.1	102.4	78.96	43.02	28.51	25.36	24.21	27.69	34.37	47.09	101.2	79.56	38.76	25.08	17.73	140.4	416.1	43.80	3.415	2.928	3.022	2.499	2.548	2.310	2.150	2.240	2.180	1.906	2.009	2.027	1.928	1.720	1.559	1.647	1.526	1.507	1.587	1.488	1.215	1.190	1.276	0.977	1.069	1.130	1.102	1.166	0.964	1.018	0.764	0.768	0.704	0.838	0.776	0.788	0.942	1.293	1.528	1.201	0.948	0.854	0.866	0.924	0.822	0.945	0.919	1.075	1.207	0.937	0.964	0.900	0.933	0.756	0.966	1.294	2.124	8.156	37.61
610.0	107.2	96.14	73.89	44.67	31.22	25.83	24.73	27.26	35.67	43.58	72.81	94.74	45.35	24.49	13.74	41.30	287.0	187.3	9.353	2.886	2.656	2.485	2.183	2.031	1.976	1.987	1.910	1.788	1.784	1.694	1.587	1.463	1.405	1.431	1.295	1.333	1.309	1.347	1.195	1.208	1.087	1.090	1.082	1.041	1.078	1.028	0.960	1.010	0.871	0.741	0.691	0.817	0.711	0.745	0.823	0.925	1.258	1.291	0.977	0.913	0.821	0.900	0.863	0.858	0.852	0.953	1.067	1.204	0.965	0.866	0.890	0.710	0.774	0.869	1.074	2.366	9.556
615.0	95.58	90.40	75.60	44.83	30.77	21.41	23.86	26.63	33.72	42.72	53.91	89.29	55.94	23.80	13.51	16.53	88.49	317.0	60.16	2.922	2.683	2.270	2.016	1.941	1.587	1.785	1.537	1.523	1.634	1.830	1.585	1.502	1.334	1.317	1.306	1.109	1.214	1.302	1.162	1.088	1.077	0.937	0.933	0.962	0.878	1.010	0.899	0.929	0.803	0.632	0.661	0.737	0.638	0.666	0.754	0.773	0.979	1.072	1.085	1.019	0.786	0.817	0.792	0.834	0.829	0.981	0.904	1.265	0.985	0.778	0.819	0.734	0.712	0.758	0.809	1.085	2.687
620.0	91.04	80.83	69.44	41.55	28.04	22.55	23.16	24.38	32.30	37.36	49.94	71.01	67.95	25.50	12.02	10.70	27.39	237.8	176.3	5.000	2.518	2.191	1.789	1.958	1.548	1.649	1.585	1.674	1.473	1.542	1.406	1.377	1.357	1.252	1.181	1.175	1.198	1.268	1.228	1.003	0.941	0.903	0.926	1.062	0.910	1.001	0.907	0.821	0.769	0.694	0.675	0.740	0.679	0.617	0.698	0.759	0.814	0.880	1.117	0.964	0.889	0.848	0.740	0.764	0.730	0.901	0.919	1.036	1.013	0.868	0.897	0.795	0.721	0.742	0.759	0.814	1.165
625.0	96.28	80.39	59.44	42.76	27.75	20.18	22.40	24.18	28.58	37.61	41.95	56.08	72.68	28.77	12.66	8.959	11.55	102.0	284.2	22.80	2.435	2.079	1.955	1.793	1.485	1.628	1.629	1.641	1.566	1.510	1.265	1.291	1.294	1.238	1.098	1.022	0.999	1.159	1.092	1.121	0.882	0.872	0.908	0.990	0.930	0.905	0.865	0.781	0.774	0.644	0.663	0.685	0.659	0.673	0.641	0.701	0.725	0.814	1.012	0.995	0.925	0.796	0.781	0.776	0.840	0.816	0.887	0.847	0.919	0.937	0.980	0.831	0.672	0.702	0.683	0.710	0.880
630.0	92.84	75.61	58.59	38.22	25.71	19.85	19.24	22.71	26.56	34.22	38.61	43.39	62.50	40.83	14.07	9.304	8.139	29.71	212.1	127.8	5.076	1.976	1.868	1.677	1.565	1.540	1.500	1.400	1.486	1.440	1.241	1.158	1.125	1.172	1.125	1.071	1.044	1.076	0.989	1.131	0.975	0.848	0.836	0.885	0.803	0.829	0.766	0.870	0.739	0.624	0.591	0.694	0.630	0.629	0.685	0.670	0.671	0.721	0.787	0.969	0.932	0.782	0.755	0.799	0.757	0.765	0.842	0.819	0.869	0.944	0.960	0.797	0.714	0.701	0.682	0.653	0.760
635.0	92.80	90.80	58.70	37.13	25.36	21.83	21.15	22.54	24.98	33.01	39.19	40.43	48.40	52.27	20.24	11.74	8.435	11.94	68.24	233.8	35.79	2.262	1.782	1.564	1.568	1.341	1.391	1.446	1.387	1.210	1.351	1.129	1.115	0.982	0.959	0.976	0.992	1.059	0.899	0.930	0.989	0.859	0.795	0.816	0.836	0.793	0.810	0.848	0.696	0.608	0.607	0.641	0.598	0.654	0.672	0.646	0.629	0.685	0.684	0.879	0.828	1.063	0.764	0.764	0.814	0.756	0.751	0.889	0.754	0.858	0.927	0.939	0.813	0.619	0.663	0.715	0.766
640.0	114.2	115.2	71.76	36.80	23.60	21.55	22.00	24.61	29.42	33.59	43.30	45.75	46.76	59.33	31.36	15.74	12.19	8.832	21.22	184.0	83.03	3.414	1.761	1.535	1.412	1.425	1.308	1.374	1.258	1.184	1.309	1.129	1.035	0.952	0.949	0.900	0.862	0.863	0.985	0.803	0.896	0.938	0.800	0.863	0.888	0.823	0.887	0.819	0.693	0.561	0.546	0.646	0.590	0.630	0.570	0.600	0.716	0.640	0.779	0.808	0.910	0.840	0.727	0.831	0.811	0.793	0.864	0.799	0.797	0.712	0.845	0.933	0.873	0.700	0.808	0.723	0.704
645.0	126.7	136.7	81.73	42.38	27.21	23.21	23.35	24.31	31.38	38.51	43.79	52.21	48.58	57.55	43.61	22.27	14.92	9.365	9.884	86.02	182.6	13.68	1.590	1.617	1.412	1.420	1.326	1.306	1.148	1.138	1.241	0.998	0.968	0.993	0.934	0.900	0.910	0.979	0.906	0.789	0.849	1.085	0.865	0.867	0.838	0.964	0.855	0.836	0.747	0.546	0.550	0.659	0.630	0.658	0.585	0.627	0.644	0.649	0.655	0.721	0.829	0.815	0.856	0.785	0.769	0.770	0.785	0.985	0.778	0.788	0.880	0.859	0.930	0.847	0.783	0.812	0.747
650.0	135.4	145.2	99.68	51.59	29.13	23.51	21.48	26.04	31.60	39.22	46.09	53.59	46.57	51.33	51.14	25.39	15.84	10.00	7.199	28.78	189.1	54.74	2.163	1.629	1.535	1.248	1.334	1.247	1.233	1.240	1.139	1.066	1.018	0.873	0.880	0.937	0.834	0.865	0.777	0.844	0.860	1.049	0.922	0.943	0.827	0.981	0.865	0.898	0.792	0.641	0.578	0.656	0.636	0.674	0.632	0.601	0.613	0.649	0.615	0.686	0.731	0.776	0.828	0.827	0.804	0.801	0.735	0.849	0.898	0.823	0.848	0.807	0.894	0.998	0.803	0.725	0.800
