Sample:	'1
File name:	c2024122603小清河滨州魏桥大沟  100倍.FD3
Run date:	'18:40:54, 01/02/2025
Operator:	Administrator
Comment:	'

Instrument
Model:	F-2700 FL Spectrophotometer
Serial number:	23B8-004
ROM Version:	4J14000 07

Instrument parameters
Measurement type:	3-D scan
Data mode:	Fluorescence
EX  Start WL:	220.0 nm
EX  End WL:	600.0 nm
EX Sampling interval:	5.0 nm
EM  Start WL:	230.0 nm
EM  End WL:	650.0 nm
EM Sampling interval:	5.0 nm
Scan speed:	12000 nm/min
EX Slit:	5.0 nm
EM Slit:	5.0 nm
PMT Voltage:	700 V
Response:	Auto 
Corrected spectra:	Off
Contour interval:	50.000

Peak integration
Integration method:	Rectangular
Sensitivity:	1
Threshold:	1.000

Peaks
No.	ApexEX/EM(nm)	Height(Data)
1	225.0/400.0	250.7
2	225.0/490.0	184.3
3	230.0/505.0	160.4
4	235.0/515.0	135.1
5	240.0/265.0	423.5
6	240.0/525.0	115.9
7	245.0/270.0	418.5
8	245.0/540.0	105.2
9	250.0/550.0	101.3
10	270.0/300.0	9181
11	270.0/590.0	698.3
12	300.0/335.0	357.0
13	305.0/345.0	278.8
14	310.0/350.0	219.8
15	315.0/355.0	202.4
16	320.0/360.0	187.9
17	325.0/370.0	145.8
18	330.0/375.0	137.7
19	335.0/380.0	141.1
20	345.0/395.0	93.87
21	350.0/400.0	100.1
22	355.0/405.0	81.85
23	360.0/415.0	64.98
24	365.0/420.0	68.83
25	370.0/425.0	60.03
26	380.0/440.0	46.12
27	385.0/445.0	38.95
28	390.0/300.0	19.20
29	390.0/450.0	30.06
30	390.0/590.0	1.786
31	395.0/460.0	28.98
32	400.0/465.0	25.09
33	405.0/470.0	18.50
34	410.0/480.0	17.08
35	415.0/485.0	15.63
36	420.0/490.0	12.03
37	425.0/500.0	11.39
38	430.0/505.0	10.78
39	435.0/510.0	8.211
40	440.0/300.0	13.94
41	440.0/520.0	7.853
42	445.0/525.0	6.654
43	455.0/540.0	4.946
44	460.0/545.0	4.031
45	465.0/555.0	3.089
46	470.0/560.0	2.726
47	480.0/575.0	1.677
48	485.0/580.0	1.582
49	540.0/595.0	3.235
50	545.0/300.0	38.80

Data points
	220.0	225.0	230.0	235.0	240.0	245.0	250.0	255.0	260.0	265.0	270.0	275.0	280.0	285.0	290.0	295.0	300.0	305.0	310.0	315.0	320.0	325.0	330.0	335.0	340.0	345.0	350.0	355.0	360.0	365.0	370.0	375.0	380.0	385.0	390.0	395.0	400.0	405.0	410.0	415.0	420.0	425.0	430.0	435.0	440.0	445.0	450.0	455.0	460.0	465.0	470.0	475.0	480.0	485.0	490.0	495.0	500.0	505.0	510.0	515.0	520.0	525.0	530.0	535.0	540.0	545.0	550.0	555.0	560.0	565.0	570.0	575.0	580.0	585.0	590.0	595.0	600.0
230.0	154.4	2490	3403	624.4	18.87	2.966	3.156	2.193	2.344	3.360	2.761	2.817	1.428	1.118	0.832	0.467	0.397	0.372	0.239	0.239	0.163	0.120	0.145	0.150	0.074	0.060	0.081	0.048	0.034	0.023	0.109	0.041	0.052	0.055	0.043	0.130	0.067	0.070	0.092	0.111	0.293	0.554	0.425	0.192	0.089	0.170	2.383	8.026	10.02	5.706	1.688	0.224	0.028	0.012	0.029	0.041	0.020	0.022	0.031	-0.002	-0.007	-0.021	-0.020	-0.009	-0.019	-0.011	-0.012	-0.021	-0.009	-0.040	-0.002	-0.054	-0.028	-0.026	-0.023	-0.046	-0.042
235.0	182.1	735.0	2874	3335	543.4	27.98	4.433	2.589	2.685	3.798	3.331	3.185	1.768	0.995	0.950	0.611	0.273	0.467	0.330	0.388	0.240	0.154	0.096	0.125	0.153	0.034	0.016	0.086	0.005	0.073	0.121	0.044	0.081	0.029	0.052	0.053	0.073	0.136	0.083	0.165	0.138	0.256	0.465	0.506	0.405	0.188	0.543	2.084	4.757	7.799	9.787	9.098	3.421	0.501	0.067	0.040	0.060	-0.007	0.005	-0.019	-0.005	0.013	-0.011	-0.005	-0.014	0.024	-0.001	0.013	0.050	-0.021	-0.042	-0.040	-0.018	-0.006	-0.032	-0.030	-0.079
240.0	263.6	280.9	981.3	3638	3424	419.5	14.10	4.387	3.977	3.600	4.221	2.804	1.863	1.188	0.710	0.711	0.394	0.498	0.294	0.275	0.244	0.161	0.070	0.225	0.138	0.077	0.063	0.137	0.097	0.105	0.103	0.022	0.076	0.106	0.111	0.096	0.031	0.126	0.144	0.098	0.054	0.082	0.161	0.387	0.604	0.681	0.369	0.570	1.164	2.491	6.303	14.15	14.81	8.540	2.776	0.217	0.120	0.025	0.035	0.024	0.026	0.005	-0.045	0.003	-0.010	0.012	-0.009	0.000	0.038	-0.012	-0.061	-0.039	-0.044	0.001	0.023	-0.070	-0.061
245.0	205.9	312.4	283.9	1451	4703	3248	298.0	8.085	5.021	3.977	5.301	3.344	2.300	1.390	0.999	0.812	0.673	0.401	0.343	0.248	0.371	0.148	0.121	0.237	0.123	0.075	0.177	0.099	0.042	0.080	0.036	0.024	0.077	0.141	0.090	0.069	0.022	0.051	0.069	0.106	0.107	0.067	0.138	0.139	0.300	0.659	0.596	0.556	0.375	0.638	1.584	5.319	12.63	18.65	16.51	7.826	1.658	0.129	0.023	0.002	0.022	0.049	0.007	-0.010	-0.015	0.036	0.007	-0.026	0.004	-0.011	-0.051	0.003	-0.032	0.017	-0.045	0.002	-0.061
250.0	74.89	229.1	309.2	421.4	1685	4277	4539	1138	50.43	6.372	6.002	4.663	2.785	1.612	0.957	0.802	0.704	0.671	0.394	0.303	0.447	0.199	0.131	0.196	0.178	0.204	0.164	0.143	0.075	0.073	0.098	0.033	0.045	0.124	0.077	0.126	0.033	0.049	0.093	0.086	0.149	0.025	0.068	0.060	0.163	0.218	0.395	0.746	0.843	0.724	0.566	1.298	3.147	6.340	11.49	17.15	20.22	17.26	8.350	1.786	0.105	0.047	0.000	0.030	-0.024	0.019	0.019	-0.022	-0.010	-0.001	-0.035	-0.013	-0.068	-0.007	-0.042	-0.040	-0.047
255.0	25.75	66.62	242.7	384.4	459.0	1137	4422	6750	1535	45.67	8.135	5.383	3.831	2.163	1.379	1.266	0.873	0.737	0.631	0.451	0.421	0.193	0.199	0.354	0.305	0.323	0.216	0.228	0.190	0.042	0.048	0.077	0.100	0.060	0.070	0.104	0.061	0.097	0.026	0.114	0.117	0.032	0.038	0.031	0.125	0.052	0.198	0.287	0.460	0.761	1.132	1.192	0.969	1.530	2.734	4.260	8.030	21.52	32.21	25.73	12.20	1.919	0.121	0.014	0.021	-0.006	0.058	0.016	0.065	0.002	-0.013	0.026	-0.035	-0.029	-0.001	-0.001	-0.034
260.0	19.25	23.91	94.86	345.9	348.3	305.9	1402	6290	6818	272.8	23.90	8.557	4.319	2.679	1.665	1.346	1.157	0.703	0.707	0.550	0.400	0.277	0.135	0.217	0.327	0.274	0.139	0.214	0.236	0.097	0.089	0.185	0.122	0.023	0.092	0.123	0.080	0.068	0.041	0.034	0.074	0.050	0.104	0.102	0.176	0.116	0.142	0.180	0.163	0.369	0.783	1.551	1.436	0.918	0.821	1.118	1.930	5.792	14.84	29.45	38.79	23.64	8.485	0.783	0.067	0.072	0.060	0.049	0.020	0.008	-0.023	-0.028	-0.012	-0.016	-0.018	-0.005	-0.014
265.0	17.57	19.41	29.41	172.5	423.5	244.8	355.6	2222	8084	6040	213.7	14.52	5.868	4.118	2.534	1.441	1.302	0.965	0.872	0.656	0.546	0.476	0.405	0.304	0.227	0.229	0.224	0.131	0.215	0.114	0.111	0.215	0.159	0.207	0.183	0.112	0.054	0.129	0.067	0.080	0.091	0.082	0.146	0.119	0.114	0.073	0.112	0.061	0.111	0.115	0.294	0.671	1.387	1.842	1.159	0.538	0.527	1.365	3.511	8.863	22.42	38.44	31.71	19.44	4.451	0.335	0.103	0.094	0.124	0.031	0.012	-0.022	0.040	-0.036	0.004	0.000	-0.022
270.0	51.60	36.51	29.61	61.79	217.5	418.5	310.0	566.0	2691	7026	7459	854.9	52.32	7.182	3.862	2.275	1.688	1.160	1.021	0.783	0.682	0.607	0.320	0.363	0.303	0.249	0.293	0.237	0.141	0.153	0.165	0.298	0.237	0.288	0.277	0.239	0.095	0.172	0.128	0.103	0.175	0.155	0.084	0.198	0.162	0.198	0.116	0.095	0.085	0.113	0.130	0.263	0.497	1.042	1.511	1.858	1.563	0.853	1.031	2.190	5.451	11.46	19.03	30.98	31.72	31.11	13.66	4.173	0.507	0.042	0.004	0.023	-0.010	-0.003	0.032	0.012	-0.006
275.0	494.2	287.3	163.4	119.0	136.1	274.3	622.8	450.9	869.7	2258	6814	9999.9	1215	59.47	7.515	4.034	2.552	1.627	1.352	1.088	1.082	0.767	0.481	0.539	0.466	0.282	0.310	0.254	0.342	0.211	0.196	0.603	0.971	1.075	1.005	0.948	0.815	0.791	0.637	0.750	0.790	0.841	0.821	0.799	0.879	0.775	0.552	0.494	0.456	0.439	0.360	0.361	0.385	0.573	0.690	1.016	2.119	3.228	2.500	1.800	2.388	4.071	6.218	9.171	12.25	26.30	46.49	32.11	21.22	4.558	0.404	0.108	0.111	0.129	0.038	0.093	0.014
280.0	1684	1093	694.6	482.5	327.7	333.9	728.7	1274	1472	2132	3784	9999.9	9448	871.3	27.05	6.549	3.812	2.249	1.963	1.212	1.112	0.987	0.773	0.680	0.564	0.533	0.484	0.387	0.396	0.393	0.388	1.421	2.986	4.083	3.661	2.745	2.520	2.359	2.171	2.385	2.564	2.888	2.753	2.903	3.006	2.742	2.097	1.886	1.721	1.332	1.342	1.537	1.039	1.088	1.034	1.165	1.871	3.321	5.118	5.463	5.229	6.069	7.438	9.028	10.20	13.43	22.95	38.39	55.92	31.43	16.10	2.277	0.272	0.260	0.203	0.254	0.100
285.0	2954	2038	1347	953.3	680.8	561.9	946.8	2006	2702	3678	4299	5971	9999.9	7210	124.2	12.48	5.600	3.291	2.568	1.701	1.438	1.145	0.950	0.783	0.665	0.628	0.668	0.492	0.572	0.338	0.944	2.788	5.616	8.340	7.735	5.874	5.158	4.592	4.553	4.414	5.113	5.260	5.524	6.312	5.972	5.501	4.672	4.201	3.777	3.256	3.084	3.224	2.494	1.949	2.016	2.095	2.809	4.003	5.847	8.737	11.25	12.40	13.30	15.48	17.72	17.14	18.41	21.13	31.33	44.97	54.33	27.29	9.530	1.086	0.424	0.382	0.279
290.0	5877	4153	2974	2103	1266	957.0	1396	2643	4527	6295	6616	5896	5036	7817	7054	1558	30.96	5.663	3.911	2.908	1.973	1.615	1.203	0.963	0.993	0.687	0.835	0.646	0.634	0.598	1.179	4.100	9.343	13.26	13.52	10.91	9.497	8.309	7.694	8.052	8.397	9.113	9.668	10.66	10.10	9.685	8.179	8.025	6.885	6.209	5.735	6.006	4.566	3.609	3.192	3.247	4.358	5.820	8.124	11.17	15.05	19.82	24.16	26.95	28.72	26.55	25.42	23.82	20.59	18.52	24.47	32.52	32.84	35.26	18.03	7.667	1.187
295.0	7739	5726	4095	2927	1750	1230	1728	3122	5308	7833	8644	6950	3624	2536	5314	8700	693.5	30.55	5.957	4.237	3.016	2.250	1.777	1.342	1.212	1.029	1.021	0.739	0.541	0.712	1.546	5.123	11.95	16.92	18.21	14.53	12.63	11.12	10.02	10.24	10.44	11.47	12.50	13.09	13.49	12.42	10.96	10.91	9.343	8.566	7.516	8.158	6.142	4.603	3.954	4.159	5.573	6.986	9.698	12.86	17.44	22.63	27.23	33.47	38.62	34.86	31.82	29.07	21.48	13.62	10.39	10.62	10.75	19.47	39.06	51.52	27.29
300.0	8077	6151	4483	3207	1891	1291	1800	3217	5337	7801	9181	7444	3460	1375	1677	6667	5837	527.7	14.68	5.546	3.542	2.784	1.983	1.704	1.355	1.118	0.985	0.875	0.691	0.639	1.592	5.567	12.71	18.42	19.20	15.84	13.90	11.92	10.88	10.88	11.21	12.44	13.66	13.93	13.94	13.61	12.05	11.58	10.36	9.349	8.594	8.702	6.841	5.258	4.347	4.329	5.618	7.115	10.02	13.38	18.04	22.57	27.61	33.28	38.68	38.80	35.84	30.94	22.69	13.29	8.105	6.204	4.668	6.319	12.40	29.12	48.12
305.0	7958	5960	4440	3141	1861	1249	1678	3006	5018	7245	8478	7515	3494	1204	678.8	2053	6982	4831	75.63	7.688	4.051	3.397	2.447	1.919	1.331	1.208	1.111	0.955	0.905	0.788	1.426	5.389	11.83	18.32	18.55	15.76	14.29	11.76	10.36	10.47	10.83	11.86	12.88	13.50	13.71	13.67	11.63	11.16	10.41	8.978	8.209	8.500	6.700	5.136	3.930	4.245	5.091	6.720	9.782	12.75	16.70	21.48	26.42	30.80	34.54	34.97	34.65	32.39	22.94	13.19	7.964	5.594	3.941	3.501	4.204	7.973	16.93
310.0	6712	5221	3894	2716	1601	1061	1409	2475	4182	5976	6913	6278	3503	1288	504.3	587.7	2048	4928	5042	1225	21.34	4.516	2.855	2.201	1.640	1.346	1.092	0.890	0.840	0.791	1.477	4.435	10.26	15.63	16.53	14.28	12.54	10.68	9.337	8.771	9.294	10.07	10.98	11.57	11.72	11.65	10.51	10.01	9.373	7.860	7.096	7.397	5.709	4.313	3.651	3.487	4.382	5.885	7.937	10.67	13.95	18.01	21.69	25.43	28.79	27.96	27.48	26.62	21.40	14.21	8.989	5.918	3.863	2.971	2.452	2.997	4.720
315.0	5254	4207	3123	2190	1292	829.2	1083	1871	3163	4530	5255	4725	2856	1528	539.8	270.6	517.3	1173	3266	6198	488.3	20.17	4.199	2.708	2.119	1.611	1.104	1.193	0.834	0.717	1.393	3.474	8.032	12.13	13.27	11.77	10.51	8.705	7.480	6.761	7.543	7.939	8.740	9.123	9.172	9.401	8.356	8.409	7.522	6.440	5.765	6.071	4.634	3.527	2.915	2.798	3.543	4.673	6.116	8.082	10.64	13.80	16.38	19.54	21.89	21.76	20.56	19.50	16.25	11.49	9.204	7.123	4.581	2.855	1.991	1.723	1.982
320.0	4193	3431	2536	1778	1045	673.8	855.5	1483	2472	3544	4135	3728	2236	1380	733.2	221.6	178.5	293.0	856.5	4278	4123	381.4	8.935	2.988	2.458	1.666	1.301	0.961	0.881	0.854	1.342	2.753	6.523	9.815	10.61	10.14	8.832	7.404	6.340	5.753	5.968	6.426	6.831	7.301	7.614	7.432	7.038	6.731	6.217	5.039	4.821	5.008	3.911	2.969	2.376	2.110	2.826	3.506	4.955	6.465	8.692	10.97	13.03	15.66	16.95	16.94	16.72	15.74	12.87	8.800	6.988	6.566	5.953	4.020	2.289	1.337	1.131
325.0	3430	2824	2127	1450	864.9	552.8	688.5	1160	1927	2785	3247	2967	1804	1046	809.5	317.6	106.6	95.96	212.5	1227	4686	3543	56.18	4.949	3.072	2.025	1.421	1.050	1.115	0.854	1.297	2.565	4.816	8.053	8.657	8.283	7.342	6.251	5.300	4.804	4.798	5.421	5.488	6.083	6.036	6.297	5.637	5.524	5.294	4.378	3.860	3.936	3.220	2.222	1.986	1.668	2.496	3.054	3.776	4.936	6.718	8.454	10.46	11.94	13.58	13.43	13.47	12.77	9.991	7.260	5.464	4.631	4.759	4.584	3.507	1.867	1.183
330.0	2598	2182	1654	1136	647.7	421.3	506.6	843.2	1395	2010	2372	2207	1387	792.3	553.5	459.4	192.3	60.45	67.94	291.6	1334	3480	3559	898.3	15.68	2.869	1.917	1.400	1.242	1.017	1.028	2.059	4.001	6.014	6.857	6.231	5.783	4.751	4.081	3.643	3.543	3.959	4.067	4.371	4.646	4.682	4.089	4.257	4.084	3.345	3.037	3.151	2.543	1.734	1.461	1.389	1.775	2.248	2.783	3.618	4.776	5.903	7.254	8.730	10.12	9.927	9.542	9.376	7.507	5.731	4.321	3.516	3.137	2.825	2.835	2.794	2.221
335.0	1920	1691	1290	876.9	513.1	324.3	370.1	607.9	974.9	1403	1667	1594	1057	615.8	369.9	297.3	357.0	94.51	40.82	83.92	311.6	821.2	2389	4474	389.3	13.77	2.774	1.845	1.492	1.114	1.187	1.616	2.877	4.665	5.050	4.898	4.469	3.585	2.982	2.766	2.744	2.862	3.010	3.330	3.389	3.489	3.244	3.265	3.027	2.563	2.308	2.422	1.912	1.479	1.190	1.080	1.241	1.612	2.095	2.670	3.459	4.188	5.045	6.108	6.775	6.921	6.778	7.044	5.617	4.492	3.567	2.737	2.426	1.890	1.677	1.428	2.040
340.0	1546	1334	1019	712.9	427.2	266.4	296.3	470.6	737.6	1068	1279	1231	859.7	522.3	299.8	191.9	273.3	264.9	64.39	38.75	85.84	197.0	634.6	3283	3267	302.0	5.713	2.110	1.745	1.116	1.251	1.400	2.384	3.835	4.218	4.044	3.599	2.989	2.500	2.300	2.145	2.169	2.240	2.471	2.742	2.869	2.594	2.706	2.661	2.110	1.927	2.039	1.734	1.262	0.988	0.806	1.109	1.206	1.772	1.996	2.656	3.128	3.738	4.665	5.004	5.480	5.123	5.316	4.522	3.682	2.791	2.291	1.808	1.506	1.221	1.009	1.281
345.0	1227	1091	847.2	599.6	361.2	241.2	255.2	376.2	578.9	827.0	991.8	976.5	707.0	455.8	266.8	150.9	148.8	278.8	172.2	38.01	35.85	57.89	153.9	960.2	3567	2762	45.98	3.143	2.089	1.414	1.166	1.315	1.984	3.136	3.408	3.374	2.932	2.437	1.967	1.948	1.747	1.742	1.859	2.062	2.154	2.360	2.259	2.204	2.064	1.707	1.582	1.638	1.480	1.088	0.770	0.730	0.813	1.158	1.381	1.475	2.117	2.409	3.114	3.741	3.998	4.074	4.098	4.088	3.606	3.024	2.374	1.973	1.740	1.330	1.074	0.848	0.796
350.0	965.4	858.7	673.2	483.0	302.9	204.0	207.7	291.9	433.5	604.9	735.3	737.7	562.0	377.1	228.7	130.8	94.51	140.2	219.8	124.4	36.30	27.18	46.20	225.2	1052	2688	2612	207.9	11.57	1.861	1.458	1.380	1.690	2.548	2.763	2.714	2.449	2.085	1.703	1.564	1.415	1.401	1.425	1.579	1.727	1.825	1.724	1.786	1.723	1.401	1.197	1.320	1.069	0.873	0.695	0.752	0.720	0.931	1.100	1.165	1.663	1.911	2.316	2.647	3.123	3.035	3.218	3.193	2.815	2.260	2.036	1.814	1.409	1.202	0.902	0.742	0.672
355.0	743.9	674.0	524.7	382.8	257.7	168.5	166.9	226.3	318.7	443.2	536.7	553.1	438.9	313.5	197.0	118.0	80.42	75.93	111.7	202.4	110.0	26.55	22.52	59.86	242.7	637.5	1919	3047	324.6	7.990	1.936	1.572	1.705	2.140	2.380	2.031	2.017	1.601	1.418	1.268	1.193	1.100	1.085	1.302	1.413	1.346	1.311	1.420	1.346	1.072	0.992	1.113	0.861	0.752	0.505	0.547	0.566	0.741	0.824	0.861	1.106	1.264	1.515	1.863	2.133	2.246	2.326	2.239	2.256	1.747	1.625	1.428	1.248	1.017	0.745	0.681	0.587
360.0	612.9	537.9	464.6	332.3	223.1	155.2	149.9	187.9	266.5	353.2	433.5	442.2	366.3	276.7	177.2	111.5	75.99	60.54	64.89	138.7	187.9	54.98	20.06	24.27	63.22	150.3	523.9	2593	2694	48.53	3.725	1.824	1.868	1.943	2.099	1.796	2.061	1.346	1.174	1.139	0.935	0.864	1.049	1.100	1.199	1.126	1.119	1.292	1.296	1.002	0.883	0.946	0.721	0.687	0.635	0.428	0.626	0.548	0.782	0.725	1.007	1.208	1.265	1.469	1.844	1.840	1.896	1.732	1.633	1.541	1.413	1.330	1.089	0.899	0.732	0.576	0.590
365.0	504.9	504.0	404.4	292.6	196.9	143.2	143.9	169.6	222.7	293.5	358.0	371.1	319.0	244.7	162.2	105.3	76.71	57.79	52.98	73.71	169.8	133.1	31.58	17.34	23.57	41.98	125.6	803.0	3025	2088	39.69	2.618	1.837	1.835	1.777	1.626	1.558	1.233	1.104	0.998	0.814	0.702	0.831	0.784	1.001	1.003	1.000	1.022	1.035	0.983	0.693	0.801	0.616	0.581	0.498	0.369	0.514	0.536	0.659	0.617	0.904	1.040	1.046	1.163	1.537	1.507	1.609	1.419	1.433	1.344	1.323	0.996	0.904	0.775	0.692	0.554	0.513
370.0	438.4	413.1	338.1	244.7	172.2	131.0	128.8	146.0	186.0	235.8	282.6	300.9	266.7	210.8	145.7	99.92	74.99	61.20	52.46	51.40	83.62	145.8	99.44	29.74	15.74	18.21	35.64	187.3	924.0	2261	2122	180.9	8.662	2.006	1.826	1.620	1.394	1.313	0.979	0.826	0.815	0.728	0.797	0.796	0.952	0.932	0.875	0.897	0.795	0.777	0.691	0.692	0.627	0.527	0.490	0.398	0.445	0.476	0.568	0.622	0.756	0.838	0.874	0.979	1.139	1.248	1.247	1.163	1.200	1.165	1.150	0.944	0.919	0.770	0.658	0.534	0.549
375.0	396.2	336.6	293.8	216.5	151.0	123.3	113.9	129.7	157.5	192.8	226.9	243.2	215.5	180.7	129.5	96.83	75.02	62.81	54.05	47.86	49.44	72.62	137.7	95.08	21.89	13.64	16.26	48.36	211.5	546.0	1737	2531	262.5	5.965	1.894	1.485	1.377	1.097	1.040	0.789	0.766	0.628	0.726	0.705	0.836	0.846	0.770	0.786	0.758	0.561	0.687	0.674	0.533	0.468	0.386	0.355	0.479	0.496	0.468	0.476	0.639	0.665	0.736	0.724	0.921	0.978	1.018	0.960	0.962	1.022	0.943	0.749	0.769	0.663	0.628	0.521	0.530
380.0	332.5	320.3	265.5	206.3	150.2	120.0	107.4	117.2	136.8	162.6	190.6	206.6	187.1	163.6	119.8	93.53	75.49	65.09	54.97	48.59	42.73	45.08	89.38	141.1	49.15	14.88	11.90	17.37	52.74	127.4	487.2	2228	2022	39.99	2.890	1.761	1.500	1.222	0.871	0.768	0.738	0.561	0.576	0.659	0.674	0.740	0.637	0.703	0.657	0.531	0.542	0.585	0.558	0.399	0.396	0.388	0.424	0.400	0.400	0.457	0.472	0.608	0.635	0.614	0.870	0.784	0.820	0.792	0.776	0.893	0.880	0.672	0.720	0.573	0.584	0.496	0.404
385.0	310.9	275.6	239.9	185.7	139.1	108.2	102.3	110.3	123.1	141.6	169.5	179.6	167.4	148.2	112.5	88.30	74.56	66.49	57.17	50.70	43.23	38.45	50.79	115.2	108.2	27.09	11.91	11.20	17.73	33.57	114.8	705.8	2316	1472	30.49	2.177	1.533	1.141	0.843	0.778	0.645	0.627	0.555	0.659	0.655	0.664	0.563	0.687	0.580	0.530	0.472	0.564	0.487	0.321	0.378	0.354	0.331	0.463	0.439	0.502	0.352	0.511	0.578	0.518	0.747	0.660	0.643	0.688	0.708	0.744	0.755	0.662	0.577	0.492	0.485	0.513	0.402
390.0	270.7	253.3	214.5	174.2	123.5	99.56	95.84	99.59	111.7	125.4	143.0	153.9	144.9	128.7	102.1	85.92	75.14	66.44	59.57	52.05	44.92	38.47	36.72	55.92	102.1	76.34	26.04	10.27	9.944	12.70	30.07	163.2	711.1	1638	1457	139.0	6.798	1.435	0.960	0.945	0.686	0.641	0.550	0.547	0.602	0.649	0.586	0.631	0.589	0.508	0.503	0.566	0.460	0.440	0.400	0.337	0.299	0.455	0.373	0.487	0.451	0.506	0.513	0.493	0.636	0.624	0.620	0.614	0.576	0.653	0.569	0.561	0.538	0.574	0.451	0.534	0.406
395.0	230.5	238.9	211.2	158.3	116.7	88.21	90.30	87.81	95.82	108.5	122.3	129.6	125.0	114.3	96.09	80.88	74.73	67.19	61.74	54.53	46.48	40.42	34.50	33.62	48.40	93.87	75.21	18.30	8.484	8.221	11.87	40.41	162.3	398.3	1235	1773	210.7	4.180	1.099	0.951	0.792	0.650	0.588	0.595	0.663	0.629	0.566	0.512	0.585	0.478	0.484	0.519	0.446	0.406	0.301	0.339	0.336	0.293	0.368	0.405	0.446	0.462	0.508	0.426	0.532	0.488	0.625	0.603	0.493	0.511	0.594	0.477	0.559	0.575	0.410	0.524	0.421
400.0	229.1	250.7	195.5	163.1	110.4	88.15	85.54	82.24	87.81	96.87	105.7	118.6	113.9	107.5	90.65	80.31	74.11	66.95	61.40	55.33	46.51	40.82	34.71	28.24	29.62	58.21	100.1	44.38	10.98	7.291	7.571	13.18	39.59	92.58	353.0	1577	1460	33.78	1.868	0.984	0.796	0.671	0.608	0.573	0.591	0.718	0.507	0.607	0.568	0.548	0.477	0.468	0.576	0.421	0.381	0.318	0.372	0.309	0.354	0.360	0.366	0.407	0.455	0.426	0.435	0.409	0.525	0.511	0.458	0.578	0.487	0.417	0.427	0.521	0.455	0.460	0.556
405.0	211.6	223.6	198.3	156.0	114.0	83.25	78.76	79.85	82.97	90.05	97.50	110.7	101.8	98.75	88.42	80.25	73.28	66.88	60.24	55.04	47.16	41.59	34.77	28.34	25.17	31.94	76.07	81.85	23.06	7.657	6.462	7.180	12.27	23.73	82.68	503.5	1676	1069	26.01	1.448	0.890	0.721	0.576	0.618	0.616	0.651	0.550	0.688	0.499	0.521	0.458	0.428	0.466	0.356	0.308	0.365	0.336	0.326	0.348	0.344	0.348	0.401	0.363	0.320	0.461	0.427	0.424	0.455	0.486	0.524	0.591	0.488	0.453	0.443	0.409	0.450	0.432
410.0	212.4	216.4	198.3	148.5	109.6	79.50	70.37	75.38	77.92	80.29	89.51	95.39	93.77	90.72	85.15	79.20	72.29	66.39	59.64	54.08	46.85	40.62	34.73	28.15	24.10	23.10	36.35	69.88	61.01	20.33	7.065	5.690	6.269	8.269	21.08	116.2	515.1	1204	854.6	126.3	4.812	0.898	0.745	0.661	0.652	0.557	0.516	0.589	0.537	0.478	0.437	0.417	0.435	0.350	0.276	0.286	0.342	0.323	0.406	0.330	0.300	0.361	0.360	0.325	0.334	0.419	0.388	0.388	0.356	0.313	0.493	0.405	0.419	0.432	0.401	0.430	0.392
415.0	197.9	211.9	196.0	139.7	111.1	77.80	62.72	66.51	70.60	74.72	77.41	85.22	86.78	84.64	78.80	75.08	69.30	63.06	58.61	52.69	46.82	39.65	33.67	27.26	23.38	20.72	20.99	31.79	64.98	51.05	14.53	5.842	4.577	4.809	7.406	28.16	117.1	294.2	848.0	1271	179.7	3.321	0.839	0.760	0.620	0.604	0.677	0.615	0.586	0.499	0.412	0.446	0.547	0.305	0.300	0.312	0.295	0.286	0.353	0.302	0.273	0.316	0.251	0.339	0.298	0.300	0.332	0.298	0.381	0.338	0.525	0.345	0.449	0.441	0.486	0.370	0.396
420.0	195.2	199.9	186.7	145.7	96.30	72.74	63.03	63.64	63.38	70.30	73.01	79.21	78.22	79.24	75.87	69.62	66.08	62.04	56.60	50.47	44.62	38.95	32.79	26.30	22.87	20.20	17.88	18.24	37.22	68.83	36.52	8.008	4.411	4.013	4.588	8.517	28.39	68.17	241.5	1095	1077	31.01	1.657	0.837	0.605	0.582	0.551	0.554	0.548	0.512	0.379	0.528	0.346	0.327	0.276	0.241	0.368	0.303	0.340	0.250	0.311	0.311	0.204	0.331	0.336	0.278	0.411	0.326	0.344	0.453	0.367	0.326	0.396	0.345	0.333	0.301	0.339
425.0	191.5	186.5	176.3	139.0	95.01	69.22	59.71	59.03	61.07	62.34	67.38	74.39	74.61	74.08	71.42	67.03	63.78	58.36	54.13	48.26	43.53	38.22	31.95	27.01	22.80	19.32	16.84	14.35	19.08	50.68	60.03	18.37	4.814	3.802	3.618	4.369	8.339	17.10	56.52	343.5	1168	819.6	24.61	1.272	0.759	0.636	0.537	0.554	0.501	0.416	0.459	0.419	0.324	0.321	0.295	0.252	0.251	0.272	0.352	0.240	0.247	0.241	0.294	0.275	0.288	0.304	0.305	0.268	0.372	0.312	0.347	0.261	0.403	0.390	0.420	0.342	0.324
430.0	451.5	176.5	174.1	136.5	89.95	62.02	54.65	56.29	56.88	57.61	63.10	69.01	65.54	69.25	65.99	63.41	60.41	55.01	51.06	46.55	40.37	34.89	30.53	25.73	22.10	18.51	15.65	12.99	13.07	22.74	47.66	44.77	15.03	4.220	3.124	3.240	3.931	5.556	14.27	78.97	346.6	842.3	685.4	121.5	5.706	0.826	0.614	0.621	0.581	0.474	0.454	0.417	0.323	0.401	0.276	0.224	0.273	0.260	0.308	0.239	0.232	0.281	0.249	0.238	0.339	0.282	0.282	0.335	0.242	0.301	0.342	0.344	0.328	0.348	0.319	0.354	0.272
435.0	1521	182.1	161.3	126.3	82.13	58.96	50.06	50.11	49.71	54.57	54.90	64.37	61.79	61.84	61.37	59.56	56.64	52.36	47.74	43.33	37.64	32.56	28.80	24.21	20.17	18.08	14.90	12.88	11.81	12.49	20.62	42.67	39.61	10.94	3.427	2.716	2.704	3.253	4.871	19.07	78.76	201.3	605.9	1103	189.1	4.552	0.669	0.726	0.661	0.501	0.453	0.416	0.423	0.319	0.266	0.235	0.169	0.282	0.263	0.247	0.230	0.309	0.210	0.214	0.198	0.317	0.285	0.322	0.300	0.328	0.279	0.278	0.236	0.292	0.344	0.332	0.380
440.0	2585	390.8	158.1	127.7	83.34	53.30	51.48	45.92	50.89	48.82	53.22	59.61	57.79	58.87	57.83	53.85	51.71	48.49	44.71	41.79	36.18	31.05	27.20	23.34	19.74	17.77	14.74	12.39	10.73	9.892	11.17	23.98	46.12	25.31	5.206	2.727	2.364	2.647	2.965	5.917	18.93	46.68	166.9	873.7	1075	30.15	1.978	0.957	0.806	0.578	0.444	0.488	0.343	0.391	0.285	0.299	0.224	0.269	0.258	0.234	0.238	0.199	0.215	0.238	0.264	0.279	0.255	0.318	0.330	0.276	0.237	0.192	0.247	0.211	0.258	0.225	0.319
445.0	2812	1081	162.2	127.6	82.73	51.90	44.33	43.68	44.62	46.28	51.62	55.98	52.48	54.48	53.59	52.22	49.00	46.06	43.36	38.98	34.17	29.71	24.79	21.68	19.11	16.74	14.70	12.12	10.56	8.612	8.834	11.75	32.47	38.95	13.46	3.169	2.288	2.400	2.522	2.854	5.521	11.76	39.07	260.7	1047	840.3	23.76	1.384	0.829	0.569	0.451	0.479	0.396	0.332	0.273	0.262	0.264	0.225	0.259	0.169	0.245	0.145	0.189	0.217	0.312	0.291	0.196	0.247	0.266	0.251	0.144	0.263	0.301	0.279	0.354	0.213	0.178
450.0	1680	2300	396.7	112.8	70.74	46.08	40.41	41.51	41.27	44.05	46.44	48.73	47.85	49.31	48.07	47.47	44.96	40.50	38.69	35.69	30.83	27.15	22.96	20.07	17.32	15.01	13.34	10.98	9.816	8.262	7.626	7.459	13.66	29.55	30.06	10.37	2.946	2.237	2.063	2.277	2.767	3.887	9.974	59.88	296.2	752.2	832.3	116.7	6.142	0.739	0.530	0.438	0.414	0.310	0.267	0.273	0.233	0.283	0.178	0.295	0.251	0.174	0.221	0.241	0.192	0.266	0.192	0.202	0.229	0.218	0.180	0.195	0.292	0.256	0.280	0.294	0.250
455.0	557.4	2469	1228	114.2	61.97	41.60	36.50	35.86	38.50	36.65	40.41	42.45	43.13	42.76	45.05	40.96	39.61	36.19	33.57	30.57	27.53	23.93	20.66	18.80	16.01	14.05	12.21	10.41	8.995	8.002	6.926	5.973	7.183	11.79	26.57	25.79	8.140	2.247	1.762	1.915	2.071	2.088	3.131	14.57	67.33	175.4	480.0	972.9	173.7	6.737	0.634	0.523	0.415	0.315	0.257	0.203	0.257	0.313	0.213	0.231	0.277	0.174	0.154	0.116	0.108	0.221	0.208	0.194	0.203	0.177	0.222	0.158	0.227	0.232	0.252	0.193	0.245
460.0	220.5	1580	2481	287.6	56.48	35.61	32.99	32.59	33.03	33.86	37.39	37.11	41.99	38.87	38.69	36.14	34.69	32.14	30.07	28.15	25.61	21.04	19.34	16.39	14.26	12.29	10.56	9.835	8.630	7.373	6.510	5.358	5.344	6.297	14.07	28.98	17.38	4.048	1.754	1.682	1.870	1.859	1.933	4.193	16.11	40.44	120.9	638.0	996.4	133.7	3.101	0.724	0.493	0.397	0.338	0.220	0.266	0.204	0.228	0.233	0.218	0.211	0.168	0.129	0.159	0.193	0.078	0.148	0.200	0.152	0.212	0.231	0.128	0.252	0.180	0.167	0.140
465.0	139.9	687.9	2756	808.3	56.26	36.36	28.96	31.14	30.92	31.93	34.06	34.07	35.29	35.21	34.23	33.01	30.88	28.88	28.24	25.12	22.80	19.39	17.63	15.01	13.19	11.20	10.21	8.821	8.382	6.712	5.899	5.160	4.733	4.730	6.529	18.69	25.09	9.960	2.102	1.654	1.456	1.712	1.746	2.042	4.698	10.20	28.36	172.3	839.9	767.6	21.92	1.632	0.595	0.492	0.345	0.247	0.312	0.204	0.162	0.246	0.205	0.165	0.177	0.138	0.096	0.141	0.118	0.140	0.154	0.186	0.169	0.184	0.144	0.274	0.167	0.167	0.165
470.0	150.3	232.9	1582	2224	295.1	32.92	26.90	25.10	28.14	27.01	29.47	30.17	30.74	31.24	30.39	28.40	25.97	24.98	23.40	21.56	19.96	16.99	15.10	13.49	11.29	9.894	9.031	7.738	7.482	6.588	5.509	4.740	4.352	3.691	4.039	7.718	17.94	18.50	7.781	2.105	1.308	1.326	1.491	1.540	2.101	3.229	7.195	39.55	222.1	524.7	622.5	258.5	8.319	0.643	0.430	0.285	0.261	0.247	0.207	0.199	0.182	0.141	0.144	0.177	0.181	0.145	0.157	0.152	0.100	0.116	0.129	0.160	0.107	0.180	0.071	0.163	0.114
475.0	207.8	122.6	479.7	2309	1400	47.88	24.30	20.89	25.03	23.04	26.28	26.96	26.62	25.46	25.76	25.00	22.58	21.74	19.77	17.64	16.87	14.41	13.16	11.44	10.08	8.419	7.604	7.087	6.340	5.899	5.002	4.493	3.793	3.443	3.029	3.831	7.142	15.32	16.50	5.478	1.576	1.209	1.171	1.254	1.681	1.583	2.321	9.627	50.22	119.1	261.6	699.1	191.6	11.62	0.531	0.416	0.267	0.328	0.249	0.226	0.182	0.089	0.143	0.132	0.140	0.115	0.164	0.164	0.134	0.104	0.121	0.077	0.084	0.144	0.022	0.164	0.108
480.0	209.4	132.2	161.3	1387	2466	226.2	24.39	19.61	22.05	21.26	23.36	24.37	22.45	22.64	22.14	21.41	20.35	19.68	17.57	16.04	14.90	12.77	11.68	10.18	9.180	7.896	7.186	6.265	5.912	5.383	4.615	4.284	3.546	2.967	2.853	2.679	3.556	8.218	17.08	11.41	2.793	1.240	1.145	1.077	1.368	1.347	1.201	2.859	11.86	27.45	62.27	342.1	710.6	175.6	5.672	0.533	0.286	0.314	0.226	0.232	0.129	0.165	0.159	0.201	0.108	0.136	0.107	0.097	0.150	0.066	0.096	0.127	0.120	0.128	0.042	0.148	0.128
485.0	176.9	144.8	84.75	559.8	2725	581.1	25.44	20.14	20.75	19.44	20.61	21.93	20.63	20.26	20.26	18.02	18.60	16.94	15.88	15.12	13.69	11.37	10.31	9.174	8.264	7.582	6.351	6.048	5.284	4.806	4.352	3.813	3.468	2.980	2.660	2.342	2.522	4.100	11.71	15.63	6.638	1.535	1.062	0.960	0.976	1.395	1.192	1.259	3.278	6.717	14.76	85.81	465.9	687.7	27.89	2.618	0.385	0.388	0.292	0.153	0.105	0.178	0.153	0.197	0.091	0.125	0.113	0.075	0.090	0.103	0.069	0.111	0.120	0.103	0.075	0.097	0.142
490.0	99.12	184.3	89.60	170.4	1503	2174	220.9	20.22	19.54	18.48	18.28	19.94	18.18	18.31	17.51	17.04	16.29	14.86	13.98	13.35	12.09	10.26	9.079	8.054	7.296	6.564	5.918	5.107	5.001	4.389	4.046	3.667	3.259	2.759	2.332	2.241	2.190	2.591	5.038	11.03	12.03	5.136	1.471	0.871	0.929	0.966	1.127	1.173	1.280	1.983	3.896	19.93	115.7	368.7	570.3	283.9	11.47	0.614	0.390	0.199	0.204	0.226	0.133	0.157	0.127	0.094	0.106	0.073	0.108	0.158	0.102	0.049	0.066	0.081	0.028	0.081	0.110
495.0	55.16	161.9	134.6	70.53	423.3	2271	1332	28.68	16.89	17.33	17.66	17.46	17.06	14.91	15.48	14.00	14.09	12.64	12.13	11.03	10.58	8.920	8.070	7.033	6.136	5.723	5.348	4.627	4.136	3.841	3.529	3.286	2.866	2.419	2.190	1.980	1.846	1.991	2.534	4.648	10.77	10.78	4.009	1.087	0.852	0.861	0.755	1.098	1.255	0.985	1.329	4.853	26.39	83.32	218.3	657.8	228.6	17.03	0.476	0.288	0.191	0.174	0.133	0.158	0.106	0.059	0.099	0.080	0.099	0.062	0.020	0.064	0.071	0.097	0.095	0.053	0.048
500.0	38.84	102.9	159.9	53.97	122.2	1306	2399	158.5	17.78	14.83	14.95	15.17	15.00	13.90	12.97	12.81	12.19	11.37	10.31	10.18	9.317	8.118	7.380	6.509	5.421	5.352	4.525	3.887	3.968	3.667	3.306	3.064	2.595	2.506	2.135	2.007	1.781	1.714	1.821	2.294	5.773	11.39	8.106	2.172	0.770	0.861	0.783	0.869	1.179	0.925	0.820	1.514	6.416	19.14	50.94	281.9	700.1	214.7	10.53	0.383	0.303	0.232	0.187	0.154	0.108	0.094	0.143	0.082	0.037	0.107	0.095	0.069	0.097	0.004	0.118	0.076	0.016
505.0	37.15	60.08	160.4	71.19	47.25	498.9	2634	405.3	17.87	14.70	14.15	13.53	12.01	13.20	11.33	11.61	10.56	10.56	9.395	8.683	8.190	7.170	6.653	5.704	4.953	4.922	4.151	3.666	3.498	3.259	2.980	2.856	2.688	2.260	1.722	1.758	1.590	1.529	1.334	1.613	2.856	7.951	10.78	4.779	1.134	0.893	0.651	0.738	1.026	1.011	0.741	0.733	1.885	4.784	11.97	67.56	376.1	729.4	170.5	3.799	0.302	0.290	0.197	0.180	0.099	0.113	0.174	0.031	-0.003	0.082	0.048	0.065	0.023	0.023	0.057	-0.019	-0.003
510.0	28.88	41.85	105.2	119.5	34.45	133.9	1441	1907	154.8	14.28	13.19	12.83	10.82	11.45	10.13	9.802	8.887	8.441	7.780	7.700	6.611	6.227	5.200	5.218	4.489	4.125	3.674	3.376	3.130	2.785	2.647	2.410	2.284	2.078	1.760	1.735	1.442	1.417	1.192	1.346	1.510	3.497	7.882	8.211	3.468	0.977	0.649	0.653	0.722	0.840	1.018	0.822	0.803	1.443	3.155	15.65	90.39	339.4	572.4	276.1	12.35	0.456	0.261	0.224	0.121	0.129	0.140	0.070	0.004	0.068	0.043	0.070	0.028	0.027	0.077	0.009	0.043
515.0	26.17	25.34	53.17	135.1	59.44	42.33	407.6	2139	1028	23.16	12.70	10.82	10.31	9.600	9.296	8.106	7.960	6.765	6.453	6.128	5.726	5.237	4.699	4.306	3.809	3.322	3.377	2.957	2.944	2.630	2.315	2.282	1.970	1.832	1.621	1.477	1.360	1.186	1.095	1.016	1.058	1.677	3.496	7.565	6.946	2.806	0.725	0.591	0.585	0.590	0.758	0.973	0.811	0.691	1.105	3.903	20.66	76.32	188.5	564.3	232.1	16.45	0.500	0.191	0.149	0.085	0.114	0.078	0.048	0.069	0.002	0.051	-0.004	0.074	0.081	0.004	0.048
520.0	22.60	20.04	31.11	103.8	89.62	23.93	107.3	1270	2077	116.3	10.85	10.33	10.28	8.081	7.871	7.569	6.690	5.873	6.011	5.672	4.886	4.437	4.325	3.728	3.338	3.470	2.904	2.506	2.422	2.191	2.196	1.921	1.768	1.621	1.357	1.336	1.219	1.163	0.995	0.869	0.804	1.098	1.664	4.503	7.853	5.277	1.246	0.594	0.535	0.558	0.537	0.911	1.079	0.538	0.604	1.255	5.026	17.44	43.47	228.2	564.7	202.5	9.687	0.252	0.140	0.039	0.132	0.136	0.095	0.028	0.029	0.042	0.009	0.081	0.015	0.003	0.011
525.0	26.07	19.65	21.15	62.11	115.9	27.53	35.28	489.3	2500	292.5	13.10	9.665	9.029	7.489	7.253	6.782	5.851	5.882	4.941	4.953	4.374	4.186	3.837	3.462	2.975	2.846	2.510	2.275	2.320	2.100	1.899	1.800	1.575	1.333	1.333	1.340	1.208	0.981	0.931	0.803	0.819	0.847	1.061	2.037	5.704	6.654	3.036	0.798	0.457	0.444	0.432	0.713	1.009	0.774	0.502	0.630	1.430	4.339	10.19	54.08	285.2	526.2	151.3	2.970	0.235	0.161	0.150	0.149	0.058	-0.016	0.031	-0.009	0.021	0.029	0.065	0.025	-0.040
530.0	18.61	18.40	16.18	29.61	105.7	60.17	18.91	130.9	1467	1623	111.3	10.09	7.088	6.376	5.923	5.451	5.205	5.019	4.345	4.090	3.760	3.404	3.304	2.725	2.659	2.510	2.291	1.923	2.026	1.749	1.710	1.627	1.476	1.244	1.277	1.075	1.045	0.843	0.843	0.753	0.713	0.632	0.714	1.029	2.556	5.639	5.257	2.273	0.648	0.483	0.406	0.396	0.636	0.915	0.629	0.538	0.595	1.364	2.664	12.48	67.88	234.8	392.1	134.7	11.79	0.304	0.169	0.102	0.058	0.041	0.075	0.032	0.060	0.042	0.030	0.044	-0.003
535.0	22.46	18.50	13.91	14.96	63.09	102.6	23.71	37.46	424.8	1951	767.9	14.09	6.897	5.922	4.724	5.085	4.137	3.900	3.567	3.540	3.233	3.128	2.668	2.412	2.220	2.082	1.934	1.614	1.712	1.664	1.479	1.560	1.291	0.969	1.194	0.953	0.950	0.841	0.761	0.725	0.580	0.570	0.504	0.674	1.092	2.502	5.052	4.143	1.546	0.498	0.285	0.361	0.360	0.553	0.747	0.697	0.435	0.556	0.855	3.021	15.50	52.84	122.7	343.5	220.1	14.66	0.226	0.141	0.176	0.058	0.052	0.156	0.086	0.056	0.079	0.008	-0.018
540.0	13.47	13.59	12.02	9.572	30.66	105.2	42.29	18.45	112.3	1220	1609	65.21	6.932	4.702	4.670	4.118	3.949	3.461	3.049	3.139	2.715	2.228	2.494	1.996	1.980	1.737	1.673	1.453	1.491	1.389	1.212	1.213	1.094	0.901	0.992	0.931	0.839	0.757	0.700	0.586	0.524	0.500	0.397	0.594	0.619	1.053	3.079	4.946	2.764	0.809	0.334	0.338	0.283	0.484	0.536	0.852	0.578	0.422	0.355	0.910	3.784	12.14	28.09	136.6	389.1	173.5	7.623	0.156	0.175	0.048	0.008	0.075	0.095	0.045	0.033	0.036	-0.015
545.0	22.43	11.67	12.42	9.616	17.04	85.57	71.32	17.00	38.17	496.9	1989	211.9	8.673	5.097	4.056	3.432	3.263	2.984	2.896	2.735	2.650	2.259	1.999	1.877	1.555	1.392	1.468	1.459	1.281	1.151	1.027	1.145	1.065	0.857	0.779	0.874	0.704	0.789	0.645	0.396	0.539	0.344	0.451	0.534	0.521	0.639	1.516	3.846	4.031	1.472	0.517	0.269	0.257	0.328	0.395	0.775	0.798	0.445	0.341	0.474	1.156	3.002	6.570	32.14	184.8	361.5	113.2	2.380	0.166	0.062	-0.007	0.075	0.066	0.013	0.022	0.016	-0.006
550.0	32.39	21.85	15.64	12.77	13.53	45.96	101.3	39.33	35.30	158.8	1243	1189	70.12	5.103	3.747	2.939	2.799	2.598	2.615	2.127	2.072	1.843	1.728	1.643	1.188	1.210	1.191	1.055	1.231	1.074	0.849	0.850	0.937	0.784	0.732	0.649	0.580	0.657	0.634	0.446	0.436	0.424	0.427	0.381	0.431	0.468	0.672	1.845	3.512	2.785	1.226	0.371	0.273	0.237	0.236	0.429	0.811	0.702	0.387	0.342	0.498	0.929	1.782	7.487	43.72	152.8	235.2	125.7	10.81	0.256	0.040	0.079	0.009	0.020	-0.001	0.048	0.005
555.0	98.44	61.00	31.39	28.67	21.00	29.19	100.6	102.1	78.36	129.9	469.6	1592	461.5	8.920	3.951	2.659	2.734	2.166	2.143	1.941	1.737	1.379	1.540	1.218	1.084	1.049	0.954	0.846	1.003	0.821	0.766	0.735	0.886	0.773	0.760	0.612	0.554	0.652	0.610	0.490	0.439	0.509	0.613	0.419	0.506	0.549	0.489	0.741	1.970	3.089	2.296	0.925	0.273	0.262	0.171	0.304	0.451	0.716	0.839	0.544	0.399	0.750	0.866	2.178	10.26	34.75	74.85	235.1	171.0	12.70	0.195	0.108	0.002	-0.005	-0.030	-0.005	0.008
560.0	178.4	117.2	72.18	47.18	35.84	35.15	92.99	165.2	149.2	206.9	292.7	1183	1074	39.29	4.030	2.806	2.421	1.987	1.833	1.720	1.389	1.196	1.418	1.164	0.993	0.841	0.950	0.927	0.810	0.765	0.710	0.693	0.938	0.896	0.948	0.899	0.669	0.590	0.601	0.698	0.493	0.588	0.681	0.503	0.594	0.503	0.428	0.552	0.922	2.279	2.726	1.645	0.399	0.282	0.189	0.255	0.385	0.496	0.965	0.907	0.673	0.739	0.921	1.363	3.259	8.568	17.88	90.80	251.6	115.9	4.733	0.175	0.076	0.117	0.065	0.009	0.030
565.0	270.0	183.0	123.3	85.95	56.26	48.17	93.68	217.7	233.8	291.8	337.1	672.9	1453	142.7	4.526	2.796	2.131	1.689	1.441	1.271	1.075	0.935	0.953	1.083	0.662	0.998	0.750	0.712	0.790	0.674	0.697	0.729	0.879	1.176	1.021	0.912	0.764	0.768	0.722	0.781	0.676	0.696	0.810	0.693	0.671	0.578	0.512	0.460	0.622	1.340	2.347	2.221	0.791	0.392	0.318	0.257	0.384	0.404	0.816	1.244	1.077	0.973	1.076	1.441	1.869	3.156	5.188	22.32	114.1	225.4	32.16	1.301	0.174	0.168	0.043	0.001	0.019
570.0	402.4	282.3	192.8	139.4	80.81	66.84	105.6	236.9	357.5	407.5	448.4	464.9	1051	741.1	32.40	2.687	1.804	1.389	1.319	1.328	1.018	0.940	0.888	0.880	0.663	0.716	0.605	0.576	0.582	0.520	0.605	0.668	1.116	1.297	1.258	1.031	0.898	0.802	0.807	0.764	0.831	0.905	0.905	0.835	0.922	0.696	0.738	0.671	0.642	0.807	1.388	1.995	1.480	0.704	0.380	0.304	0.414	0.462	0.797	1.208	1.587	1.515	1.515	1.883	1.995	2.281	2.608	6.327	27.81	96.11	146.4	80.43	8.191	0.285	0.073	0.011	0.048
575.0	479.5	352.2	249.3	179.6	104.9	82.56	121.8	239.6	443.9	539.5	563.7	478.2	459.2	1052	130.0	3.727	1.984	1.340	1.191	0.998	0.896	0.892	0.683	0.591	0.709	0.655	0.497	0.488	0.443	0.335	0.539	0.537	1.172	1.642	1.482	1.141	0.924	0.924	1.001	1.001	0.946	0.947	1.010	1.042	1.193	0.837	0.787	0.735	0.759	0.694	0.828	1.539	1.677	1.286	0.645	0.320	0.517	0.632	0.809	1.175	1.572	2.110	2.010	2.370	2.388	2.518	2.202	3.007	7.378	22.00	46.32	143.0	99.22	7.193	0.102	0.022	0.044
580.0	571.1	409.2	292.6	204.1	124.1	90.66	139.0	245.6	466.9	614.2	639.5	523.2	277.7	757.1	573.1	14.24	1.812	1.139	1.090	1.133	0.892	0.755	0.754	0.602	0.739	0.491	0.572	0.452	0.312	0.310	0.513	0.553	1.074	1.559	1.538	1.160	1.023	0.959	0.949	0.920	1.021	1.077	1.084	0.985	1.118	1.006	0.889	0.758	0.833	0.632	0.712	1.067	1.554	1.582	0.803	0.520	0.596	0.560	0.742	1.007	1.394	2.335	2.346	2.455	2.798	2.570	2.555	2.446	2.876	5.545	10.98	56.26	150.0	34.03	2.954	0.111	0.076
585.0	585.0	431.6	322.5	219.2	143.8	100.4	139.4	258.2	460.9	671.3	672.9	551.5	244.1	347.3	845.5	75.15	1.976	1.264	1.105	0.862	0.815	0.641	0.563	0.406	0.517	0.387	0.490	0.400	0.352	0.295	0.412	0.513	1.169	1.663	1.742	1.312	1.093	1.050	0.930	0.797	1.062	1.135	1.181	1.190	1.165	1.175	0.970	0.788	0.751	0.703	0.793	0.873	1.120	1.397	1.240	0.658	0.576	0.612	0.967	1.147	1.607	1.963	2.712	2.699	2.839	2.669	2.509	2.356	2.031	1.979	2.857	13.52	70.64	127.1	28.96	0.857	0.068
590.0	599.6	449.3	331.8	235.1	142.1	99.03	141.8	258.2	439.7	670.3	698.3	553.3	240.0	134.0	579.1	388.9	13.92	1.270	1.025	0.749	0.713	0.630	0.510	0.451	0.360	0.371	0.380	0.315	0.257	0.266	0.278	0.537	1.059	1.702	1.786	1.381	1.146	0.991	0.940	0.999	1.036	1.087	1.205	1.131	1.127	1.146	0.911	0.919	0.752	0.807	0.641	0.782	0.717	1.045	1.272	0.991	0.674	0.693	0.867	1.147	1.501	1.866	2.439	2.773	3.054	2.802	2.689	2.392	1.875	1.118	1.017	3.257	16.76	55.45	93.06	52.81	5.480
595.0	580.1	443.6	332.9	222.4	136.9	98.46	130.2	242.4	405.6	602.9	687.1	536.8	236.0	80.07	184.7	578.5	84.71	1.192	0.761	0.589	0.571	0.593	0.552	0.363	0.355	0.436	0.334	0.318	0.196	0.163	0.312	0.539	1.107	1.672	1.401	1.354	1.025	1.038	0.868	0.882	1.003	1.032	1.160	0.952	1.020	0.994	0.766	0.873	0.797	0.710	0.717	0.742	0.509	0.798	0.886	1.087	0.941	0.693	0.830	1.123	1.450	1.697	2.090	2.528	3.235	2.770	2.515	2.358	1.734	0.975	0.614	1.073	3.905	12.51	28.84	86.78	36.12
600.0	548.4	406.1	311.9	218.0	123.3	87.15	122.2	228.1	374.0	550.5	654.3	510.9	228.3	70.54	59.40	416.4	307.0	6.077	0.937	0.544	0.547	0.541	0.480	0.434	0.342	0.221	0.140	0.175	0.213	0.292	0.281	0.462	1.054	1.370	1.493	1.356	1.051	0.966	0.787	0.798	0.851	0.988	1.055	1.004	1.120	0.987	0.777	0.829	0.800	0.608	0.616	0.742	0.452	0.401	0.618	0.950	1.118	0.889	0.775	0.936	1.249	1.648	1.980	2.406	2.830	2.862	2.581	2.208	1.710	0.792	0.581	0.541	1.024	2.874	6.681	33.36	83.96
605.0	538.0	388.1	290.6	212.9	119.2	83.97	114.3	207.7	344.5	492.8	596.4	494.8	220.4	67.96	30.45	177.3	480.8	36.10	0.892	0.602	0.381	0.342	0.509	0.343	0.285	0.114	0.212	0.150	0.128	0.251	0.183	0.302	0.792	1.239	1.235	1.290	1.043	0.912	0.801	0.763	0.832	0.925	0.963	0.922	0.971	0.965	0.834	0.786	0.730	0.656	0.640	0.580	0.473	0.381	0.389	0.723	0.910	0.961	0.826	0.982	1.223	1.355	1.964	2.069	2.537	2.467	2.300	2.181	1.506	0.802	0.561	0.341	0.411	0.740	1.612	7.907	39.42
610.0	468.6	349.8	264.5	193.5	110.6	75.35	101.9	181.6	299.9	433.5	513.3	461.7	209.2	67.45	24.93	51.28	338.4	188.5	5.928	0.516	0.493	0.449	0.346	0.283	0.211	0.223	0.222	0.119	0.130	0.216	0.192	0.407	0.807	1.296	1.069	1.029	1.037	0.887	0.651	0.662	0.715	0.802	0.808	0.738	0.889	0.821	0.727	0.672	0.714	0.555	0.524	0.509	0.413	0.304	0.250	0.370	0.691	0.933	0.912	0.946	1.046	1.274	1.505	1.751	2.149	2.073	2.125	2.074	1.371	0.791	0.428	0.260	0.222	0.253	0.434	1.815	9.258
615.0	421.1	312.7	229.0	167.7	94.19	64.61	90.80	157.8	257.9	367.3	431.2	403.7	200.9	66.95	23.73	18.37	104.0	345.1	53.43	0.657	0.521	0.383	0.410	0.238	0.161	0.178	0.074	0.069	0.125	0.067	0.197	0.361	0.725	0.968	0.924	0.887	0.821	0.816	0.601	0.589	0.697	0.663	0.723	0.879	0.760	0.818	0.776	0.622	0.533	0.507	0.467	0.593	0.306	0.312	0.202	0.198	0.449	0.685	0.778	0.805	0.902	1.115	1.239	1.635	1.738	1.807	1.700	1.798	1.390	0.737	0.420	0.272	0.117	0.147	0.176	0.458	2.069
620.0	356.3	275.7	208.7	152.4	79.03	55.29	74.28	136.0	224.8	325.3	368.0	348.8	192.5	64.79	23.97	10.55	28.37	261.9	179.5	2.448	0.526	0.393	0.322	0.201	0.194	0.123	0.059	0.092	0.111	0.104	0.175	0.392	0.576	0.686	0.935	0.742	0.776	0.695	0.665	0.597	0.577	0.550	0.533	0.674	0.576	0.699	0.634	0.558	0.492	0.477	0.406	0.468	0.273	0.254	0.197	0.156	0.329	0.512	0.694	0.786	0.827	0.954	1.190	1.495	1.447	1.582	1.446	1.379	1.149	0.867	0.318	0.245	0.140	0.114	0.138	0.133	0.483
625.0	325.2	249.2	189.6	134.0	73.70	49.41	67.50	120.4	196.6	278.9	323.7	297.3	181.9	65.96	22.66	8.816	9.074	114.3	297.6	17.74	0.637	0.241	0.317	0.243	0.204	0.158	0.143	0.092	0.065	0.176	0.155	0.386	0.537	0.791	0.716	0.657	0.710	0.512	0.421	0.536	0.525	0.475	0.484	0.578	0.530	0.470	0.499	0.442	0.443	0.347	0.370	0.358	0.180	0.216	0.138	0.235	0.234	0.377	0.571	0.778	0.810	0.766	0.975	1.181	1.459	1.350	1.312	1.145	0.947	0.897	0.449	0.242	0.134	0.068	0.122	0.090	0.139
630.0	261.5	211.0	155.8	110.2	63.22	41.61	55.29	102.8	165.8	233.9	272.1	244.3	156.5	71.95	22.45	8.622	4.834	30.83	227.3	123.2	2.690	0.304	0.362	0.238	0.198	0.106	0.117	0.149	0.070	0.028	0.111	0.257	0.379	0.622	0.742	0.633	0.608	0.499	0.398	0.470	0.491	0.470	0.470	0.449	0.505	0.547	0.414	0.427	0.342	0.304	0.292	0.306	0.263	0.179	0.120	0.154	0.148	0.282	0.422	0.686	0.765	0.778	0.886	1.021	1.132	1.168	1.032	1.072	0.817	0.632	0.539	0.268	0.158	0.045	0.066	0.055	0.051
635.0	220.6	175.0	129.0	88.79	53.56	35.40	43.92	83.37	129.7	185.8	216.2	197.7	123.3	75.74	24.54	8.088	3.792	8.630	72.08	234.4	30.41	0.436	0.283	0.246	0.161	0.103	0.062	0.086	0.072	0.064	0.086	0.175	0.416	0.497	0.587	0.530	0.492	0.362	0.333	0.279	0.487	0.438	0.432	0.364	0.384	0.430	0.338	0.336	0.408	0.309	0.282	0.241	0.196	0.151	0.146	0.043	0.128	0.206	0.307	0.384	0.652	0.657	0.704	0.873	0.926	0.928	0.907	0.842	0.666	0.464	0.478	0.327	0.230	0.092	0.048	0.027	0.043
640.0	194.1	154.2	111.7	76.15	44.40	28.88	40.44	66.35	110.3	156.7	186.2	168.7	99.88	68.86	27.83	8.255	3.461	3.466	19.25	188.5	106.5	1.531	0.310	0.129	0.028	0.121	0.240	0.114	0.058	0.032	0.090	0.173	0.264	0.423	0.421	0.497	0.398	0.351	0.342	0.280	0.307	0.330	0.304	0.305	0.327	0.284	0.289	0.372	0.286	0.267	0.246	0.202	0.172	0.145	0.082	0.028	0.125	0.122	0.248	0.320	0.522	0.585	0.686	0.743	0.703	0.659	0.796	0.697	0.631	0.425	0.371	0.295	0.274	0.086	0.026	0.037	0.021
645.0	164.0	136.2	96.95	66.63	42.25	23.63	33.30	58.59	92.64	132.5	153.8	146.0	83.42	58.26	33.22	8.487	3.776	2.022	5.502	87.42	186.3	10.36	0.359	0.091	0.069	0.140	0.115	0.267	0.177	0.060	0.051	0.102	0.225	0.427	0.430	0.432	0.385	0.267	0.351	0.256	0.296	0.292	0.315	0.358	0.244	0.296	0.314	0.221	0.248	0.204	0.218	0.146	0.144	0.102	0.089	0.088	0.078	0.129	0.126	0.195	0.332	0.420	0.614	0.583	0.645	0.624	0.577	0.594	0.438	0.391	0.237	0.185	0.279	0.118	-0.015	0.050	0.193
650.0	143.6	107.6	88.19	58.16	35.03	21.24	28.12	49.18	81.57	111.9	130.8	127.0	72.90	45.63	36.74	9.420	3.426	1.638	2.252	26.45	191.3	49.02	0.481	0.156	0.080	0.200	0.189	0.118	0.041	0.067	0.079	0.156	0.205	0.346	0.325	0.453	0.326	0.309	0.212	0.171	0.189	0.361	0.394	0.235	0.262	0.222	0.219	0.141	0.243	0.218	0.190	0.108	0.157	0.056	0.056	0.059	0.085	0.082	0.114	0.159	0.311	0.390	0.594	0.539	0.611	0.554	0.576	0.522	0.381	0.365	0.226	0.237	0.277	0.245	0.076	-0.009	0.107
