Sample:	'1
File name:	Default_20231031_145902.FD3
Run date:	'14:52:40, 10/31/2023
Operator:	dsjg
Comment:	'

Instrument
Model:	F-2700 FL Spectrophotometer
Serial number:	2198-001
ROM Version:	4J14000 07

Instrument parameters
Measurement type:	3-D scan
Data mode:	Fluorescence
EX  Start WL:	220.0 nm
EX  End WL:	600.0 nm
EX Sampling interval:	5.0 nm
EM  Start WL:	230.0 nm
EM  End WL:	650.0 nm
EM Sampling interval:	5.0 nm
Scan speed:	12000 nm/min
EX Slit:	5.0 nm
EM Slit:	5.0 nm
PMT Voltage:	700 V
Response:	Auto 
Corrected spectra:	Off
Contour interval:	50.000

Peak integration
Integration method:	Rectangular
Sensitivity:	1
Threshold:	1.000

Peaks
No.	ApexEX/EM(nm)	Height(Data)
1	225.0/615.0	24.41
2	230.0/380.0	 2522
3	230.0/625.0	20.06
4	240.0/265.0	74.81
5	275.0/375.0	 1410
6	275.0/425.0	 2133
7	275.0/610.0	54.92
8	280.0/350.0	 1368
9	280.0/620.0	50.19
10	285.0/635.0	41.65
11	340.0/400.0	 2131
12	475.0/395.0	8.547

Data points
	220.0	225.0	230.0	235.0	240.0	245.0	250.0	255.0	260.0	265.0	270.0	275.0	280.0	285.0	290.0	295.0	300.0	305.0	310.0	315.0	320.0	325.0	330.0	335.0	340.0	345.0	350.0	355.0	360.0	365.0	370.0	375.0	380.0	385.0	390.0	395.0	400.0	405.0	410.0	415.0	420.0	425.0	430.0	435.0	440.0	445.0	450.0	455.0	460.0	465.0	470.0	475.0	480.0	485.0	490.0	495.0	500.0	505.0	510.0	515.0	520.0	525.0	530.0	535.0	540.0	545.0	550.0	555.0	560.0	565.0	570.0	575.0	580.0	585.0	590.0	595.0	600.0
230.0	39.43	520.3	775.3	145.0	4.747	2.506	2.826	2.349	2.698	2.496	2.510	2.201	1.958	1.854	1.560	1.563	1.547	1.358	1.152	1.073	1.214	1.155	1.217	1.178	1.286	1.116	1.073	1.033	0.867	0.849	0.752	0.592	0.575	0.482	0.543	0.638	0.575	0.550	0.493	0.505	0.491	0.416	0.434	0.411	0.389	0.350	0.495	1.522	2.872	2.499	1.105	0.379	0.224	0.224	0.213	0.214	0.235	0.199	0.195	0.207	0.185	0.168	0.160	0.171	0.180	0.151	0.171	0.188	0.164	0.146	0.126	0.147	0.125	0.148	0.146	0.126	0.129
235.0	25.71	162.5	604.5	640.8	151.4	5.128	3.009	2.634	2.573	2.499	2.401	2.219	2.137	2.089	1.664	1.665	1.635	1.332	1.158	1.131	1.082	1.233	1.068	1.157	1.168	1.012	1.144	0.993	0.978	0.815	0.625	0.596	0.526	0.595	0.519	0.568	0.563	0.572	0.550	0.494	0.510	0.448	0.480	0.536	0.496	0.482	0.395	0.589	1.162	1.659	2.457	2.622	1.426	0.400	0.202	0.224	0.251	0.229	0.200	0.195	0.185	0.168	0.200	0.183	0.174	0.162	0.160	0.190	0.155	0.128	0.146	0.139	0.116	0.119	0.115	0.154	0.144
240.0	31.15	50.10	218.5	691.2	525.7	91.40	3.557	2.818	2.863	2.611	2.921	2.309	2.540	2.182	1.789	1.870	1.564	1.306	1.245	1.163	1.252	1.212	1.179	1.188	1.167	1.141	1.133	1.039	1.030	0.765	0.671	0.636	0.470	0.594	0.515	0.472	0.513	0.582	0.589	0.516	0.426	0.409	0.363	0.459	0.475	0.456	0.299	0.375	0.551	0.685	1.248	2.721	3.185	2.499	1.010	0.356	0.257	0.200	0.214	0.188	0.197	0.202	0.178	0.194	0.132	0.177	0.223	0.198	0.157	0.145	0.160	0.191	0.110	0.121	0.092	0.140	0.134
245.0	31.53	41.42	58.75	305.2	760.9	420.7	54.14	2.961	2.970	3.453	3.263	2.749	2.391	2.291	1.930	1.724	1.583	1.293	1.277	1.280	1.502	1.257	1.266	1.205	1.165	1.202	1.039	1.080	1.027	0.830	0.614	0.656	0.568	0.532	0.622	0.451	0.497	0.548	0.473	0.518	0.458	0.412	0.369	0.432	0.413	0.449	0.464	0.387	0.395	0.331	0.524	1.071	1.972	3.508	3.561	2.085	0.751	0.211	0.208	0.168	0.174	0.172	0.130	0.169	0.163	0.134	0.179	0.187	0.185	0.145	0.142	0.121	0.127	0.098	0.093	0.133	0.118
250.0	17.77	39.70	43.51	84.50	310.6	692.2	674.0	152.3	11.04	4.015	3.238	3.129	3.011	2.459	1.756	1.840	1.538	1.423	1.450	1.356	1.391	1.173	1.106	1.271	1.270	1.137	1.169	1.056	0.987	0.778	0.776	0.717	0.573	0.542	0.511	0.477	0.408	0.439	0.464	0.461	0.461	0.467	0.437	0.455	0.432	0.407	0.407	0.443	0.443	0.347	0.432	0.451	0.679	1.355	2.101	3.164	4.166	3.720	2.214	0.793	0.240	0.202	0.160	0.188	0.163	0.170	0.163	0.175	0.152	0.135	0.136	0.124	0.129	0.116	0.117	0.140	0.116
255.0	12.98	17.44	44.39	64.25	81.26	216.0	844.0	 1371	229.2	12.37	4.238	3.978	3.457	2.548	2.486	1.905	1.791	1.478	1.439	1.395	1.389	1.277	1.264	1.270	1.388	1.184	1.179	1.101	1.048	0.906	0.695	0.702	0.525	0.510	0.521	0.505	0.386	0.438	0.410	0.377	0.486	0.528	0.464	0.454	0.388	0.397	0.379	0.371	0.358	0.370	0.430	0.491	0.431	0.517	0.707	0.951	1.829	3.870	6.814	7.942	4.264	1.148	0.228	0.209	0.210	0.212	0.164	0.192	0.176	0.117	0.134	0.151	0.137	0.134	0.129	0.108	0.179
260.0	12.15	9.802	24.98	68.36	53.91	58.74	333.5	 1541	 1746	190.8	7.905	4.720	3.771	3.213	2.955	1.721	1.993	1.652	1.372	1.267	1.383	1.215	1.195	1.350	1.403	1.164	1.166	1.122	1.038	0.880	0.886	0.718	0.616	0.541	0.572	0.480	0.417	0.465	0.397	0.404	0.428	0.455	0.483	0.503	0.415	0.422	0.361	0.386	0.311	0.331	0.397	0.493	0.527	0.429	0.403	0.425	0.614	1.261	3.338	7.876	11.27	9.897	3.521	0.567	0.239	0.210	0.207	0.179	0.209	0.113	0.131	0.139	0.134	0.132	0.175	0.125	0.141
265.0	11.42	8.550	14.68	42.59	74.81	41.84	87.95	679.8	 2411	 1705	151.9	6.533	4.138	3.488	2.823	2.224	2.057	1.706	1.452	1.479	1.673	1.438	1.392	1.234	1.674	1.287	1.111	1.063	1.131	0.917	0.887	0.720	0.563	0.540	0.527	0.570	0.381	0.433	0.409	0.370	0.361	0.473	0.543	0.512	0.473	0.426	0.359	0.414	0.314	0.343	0.336	0.421	0.490	0.611	0.458	0.344	0.395	0.490	0.995	2.654	6.939	13.67	15.57	9.377	2.555	0.282	0.294	0.195	0.193	0.179	0.129	0.165	0.145	0.142	0.170	0.103	0.147
270.0	14.44	11.37	12.35	17.76	49.56	76.77	58.73	175.9	919.1	 2464	 2559	705.0	39.95	4.672	3.890	2.955	2.409	2.091	1.607	1.516	1.621	1.445	1.591	1.416	1.735	1.336	1.275	1.103	1.090	0.938	0.775	0.660	0.631	0.535	0.555	0.531	0.428	0.475	0.418	0.380	0.356	0.401	0.479	0.560	0.495	0.532	0.419	0.419	0.375	0.375	0.322	0.332	0.356	0.517	0.535	0.562	0.639	0.438	0.494	0.841	1.843	4.338	8.304	13.15	16.35	14.45	8.978	2.498	0.385	0.212	0.166	0.165	0.191	0.142	0.156	0.151	0.141
275.0	24.45	18.97	18.10	18.01	26.29	58.29	103.9	98.65	235.5	708.0	 2342	 4059	 1046	42.48	4.940	3.532	2.840	2.391	1.921	1.729	1.833	1.626	1.611	1.642	1.909	1.506	1.279	1.453	1.180	1.089	0.800	0.712	0.697	0.584	0.588	0.560	0.466	0.508	0.438	0.366	0.403	0.433	0.388	0.464	0.549	0.547	0.481	0.491	0.420	0.384	0.314	0.355	0.328	0.385	0.376	0.499	0.716	0.686	0.716	0.580	0.724	1.298	2.172	3.378	5.702	12.44	23.08	22.40	11.89	2.124	0.253	0.193	0.191	0.143	0.168	0.151	0.187
280.0	37.59	31.34	29.76	25.00	29.52	45.77	98.63	145.1	118.5	215.5	813.1	 3296	 4135	779.5	18.63	4.337	3.473	2.716	2.235	1.979	1.948	1.844	1.790	1.615	1.786	1.534	1.383	1.366	1.167	0.966	1.039	0.770	0.714	0.641	0.595	0.672	0.569	0.510	0.481	0.472	0.461	0.456	0.412	0.431	0.558	0.637	0.584	0.522	0.452	0.442	0.363	0.393	0.434	0.363	0.357	0.410	0.549	0.647	0.903	0.933	0.770	0.686	0.940	1.159	1.827	3.597	9.643	18.06	25.25	20.01	7.750	0.904	0.196	0.175	0.179	0.193	0.193
285.0	51.44	48.42	46.25	39.89	38.13	43.49	72.86	151.0	161.0	133.6	269.2	 1224	 3787	 3792	114.6	8.773	4.014	3.076	2.665	2.313	2.095	2.219	1.786	1.612	1.806	1.685	1.477	1.446	1.318	1.029	1.166	0.839	0.615	0.707	0.594	0.756	0.657	0.695	0.529	0.505	0.434	0.513	0.499	0.470	0.500	0.567	0.678	0.667	0.533	0.436	0.426	0.445	0.465	0.367	0.425	0.444	0.457	0.557	0.769	0.979	1.135	0.882	0.823	0.724	0.995	1.346	2.709	5.800	12.81	21.89	25.92	16.44	3.870	0.359	0.245	0.209	0.161
290.0	80.05	80.45	72.64	58.99	55.34	54.28	67.53	111.3	194.5	225.1	206.8	400.8	 1269	 2951	 3542	 1441	31.74	4.917	3.398	2.874	2.615	2.362	2.058	1.873	2.148	1.661	1.540	1.509	1.283	1.117	1.071	0.851	0.717	0.723	0.744	0.771	0.791	0.696	0.617	0.522	0.512	0.440	0.593	0.477	0.486	0.498	0.642	0.650	0.621	0.552	0.505	0.565	0.491	0.511	0.481	0.480	0.536	0.568	0.602	0.695	0.982	1.155	1.465	1.271	1.185	1.053	1.333	2.074	3.595	6.554	11.77	17.87	21.41	18.94	11.19	3.028	0.344
295.0	102.1	108.1	103.6	81.40	67.63	70.46	81.78	104.6	163.5	286.1	338.3	263.9	415.7	815.6	 2136	 4410	 2223	37.56	5.291	3.947	3.198	2.508	2.185	2.259	2.302	1.921	1.775	1.638	1.356	1.286	1.098	0.897	0.783	0.733	0.750	0.822	0.869	0.720	0.673	0.590	0.530	0.540	0.489	0.472	0.519	0.575	0.637	0.659	0.725	0.690	0.650	0.666	0.607	0.629	0.575	0.572	0.595	0.601	0.688	0.715	0.880	0.986	1.300	1.729	1.998	1.643	1.283	1.480	1.581	2.223	3.205	4.567	6.995	14.27	27.03	28.77	15.58
300.0	138.8	154.0	142.8	106.2	89.80	96.02	108.0	136.4	188.7	307.3	459.9	419.9	336.5	310.2	738.9	 2853	 5004	565.1	23.91	5.194	3.757	3.048	2.715	2.619	2.688	1.918	1.865	1.531	1.559	1.342	1.194	0.865	0.930	0.691	0.764	0.807	0.844	0.840	0.747	0.693	0.612	0.584	0.602	0.542	0.563	0.662	0.703	0.755	0.720	0.772	0.674	0.706	0.716	0.687	0.635	0.618	0.701	0.718	0.818	0.912	0.989	1.090	1.373	1.675	2.133	2.432	2.150	1.914	1.677	1.561	1.703	1.880	2.359	4.322	10.61	23.32	34.22
305.0	192.9	207.1	174.9	133.0	117.4	123.2	148.4	199.7	272.6	398.0	566.1	673.1	529.2	377.5	414.0	 1070	 3626	 4582	439.4	10.87	5.057	3.913	3.251	2.861	2.667	2.069	1.924	1.688	1.751	1.413	1.291	0.971	0.865	0.656	0.852	0.801	0.993	0.826	0.862	0.771	0.789	0.633	0.605	0.601	0.652	0.733	0.820	0.971	0.838	0.865	0.740	0.789	0.779	0.827	0.734	0.866	0.910	0.929	1.087	1.181	1.369	1.583	1.834	2.104	2.556	2.967	3.197	3.291	2.784	2.148	2.026	1.854	1.987	2.225	3.517	7.607	16.81
310.0	235.2	273.3	230.7	163.8	143.4	154.2	195.1	246.9	334.6	467.5	615.8	764.4	760.5	557.7	437.1	493.0	 1248	 3043	 3855	 1604	27.08	5.074	4.078	3.567	3.390	2.297	2.161	1.861	1.787	1.548	1.293	1.075	1.096	0.820	0.946	0.946	0.962	0.991	0.877	0.789	0.796	0.724	0.679	0.822	0.784	0.849	0.935	1.118	1.016	0.917	0.846	0.922	0.934	0.981	0.877	0.989	1.102	1.202	1.273	1.477	1.618	1.976	2.122	2.486	2.754	3.166	3.393	3.795	3.961	3.774	3.177	2.521	2.407	2.333	2.318	2.934	5.291
315.0	316.6	370.4	290.7	212.4	175.7	188.0	231.1	288.7	388.4	536.1	694.2	820.2	864.7	807.3	580.5	445.7	548.7	890.8	 1908	 4737	 2494	32.90	5.454	4.371	4.006	3.013	2.562	2.222	1.910	1.644	1.339	1.194	1.126	0.952	0.972	1.053	1.093	0.910	0.879	0.904	0.909	0.873	0.911	0.909	0.964	1.158	1.122	1.373	1.230	1.089	0.929	0.987	1.030	1.036	0.987	1.012	1.144	1.476	1.497	1.720	1.793	2.102	2.530	2.807	3.100	3.488	3.705	3.785	3.989	4.176	4.513	3.760	3.486	2.808	2.472	2.499	2.824
320.0	454.1	495.0	383.5	252.2	197.2	211.2	258.7	321.6	430.9	592.0	771.3	905.1	932.3	908.7	765.3	518.4	439.6	403.5	596.3	 2591	 5626	436.0	22.12	5.826	5.182	3.450	2.851	2.506	2.141	1.862	1.306	1.436	1.123	0.990	1.018	1.147	1.017	1.013	1.007	0.956	1.057	0.953	0.943	1.050	1.254	1.443	1.480	1.683	1.626	1.347	1.035	1.152	1.139	1.115	1.090	1.204	1.398	1.547	1.673	1.812	1.930	2.228	2.685	3.119	3.411	3.880	4.066	4.368	4.449	4.525	4.507	4.750	4.580	3.779	3.118	2.575	2.581
325.0	586.2	683.4	539.1	343.5	244.0	233.5	281.5	349.2	456.7	647.1	832.8	986.6	 1008	961.4	883.3	651.4	463.9	324.0	249.9	806.8	 3589	 5020	365.8	12.46	6.546	4.265	3.473	2.538	2.440	1.996	1.684	1.340	1.338	1.065	0.950	1.096	1.118	1.038	1.037	1.071	1.130	1.025	1.122	1.211	1.513	1.971	2.014	2.208	2.224	1.637	1.597	1.489	1.356	1.289	1.414	1.434	1.499	1.657	1.787	1.928	2.101	2.519	2.905	3.396	3.772	4.144	4.629	4.656	4.651	4.799	4.867	4.638	5.035	4.698	4.007	3.050	2.939
330.0	805.8	971.5	850.7	589.3	394.0	308.5	328.5	395.2	514.3	696.1	906.8	 1084	 1129	 1063	944.4	805.9	606.9	381.4	240.0	310.0	 1050	 3033	 3788	 1473	26.60	5.912	4.377	3.407	2.639	2.286	1.984	1.472	1.403	1.244	1.104	1.131	1.230	1.127	1.284	1.126	1.111	1.227	1.340	1.510	1.858	2.400	2.658	3.042	3.019	2.480	2.324	2.448	2.039	1.861	1.874	1.725	1.824	1.806	1.931	2.168	2.432	2.745	3.245	3.637	4.126	4.589	5.029	5.087	4.998	5.418	5.563	5.269	5.235	5.028	4.760	4.321	3.904
335.0	969.7	 1259	 1173	895.2	600.4	433.4	399.4	462.0	586.8	767.4	991.7	 1186	 1252	 1193	 1053	886.4	773.1	526.5	322.7	264.3	384.6	818.8	 1816	 5434	 2744	31.43	5.727	4.343	3.492	2.651	2.217	1.859	1.551	1.350	1.132	1.308	1.318	1.214	1.243	1.208	1.191	1.325	1.653	1.710	2.197	2.814	3.241	3.743	3.719	3.589	3.210	3.695	3.030	2.729	2.488	2.178	2.245	2.187	2.377	2.408	2.796	2.998	3.576	3.725	4.424	4.990	5.338	5.705	5.793	6.149	6.353	5.917	5.867	5.093	5.056	4.912	4.955
340.0	 1055	 1378	 1353	 1075	755.9	512.4	454.0	511.0	632.5	808.0	 1035	 1231	 1307	 1265	 1124	927.8	807.0	640.5	399.5	294.5	271.7	333.5	567.5	 2817	 8754	370.7	22.31	5.989	4.349	3.255	2.497	1.951	1.664	1.364	1.255	1.290	1.308	1.310	1.225	1.265	1.343	1.497	1.625	1.855	2.611	3.029	3.665	4.009	4.160	4.081	3.768	4.166	3.886	3.162	2.620	2.460	2.423	2.400	2.524	2.682	3.020	3.294	3.894	4.103	4.784	5.290	5.436	5.849	6.327	6.378	6.515	6.469	6.105	5.799	5.512	5.213	4.808
345.0	 1093	 1447	 1448	 1179	854.3	583.4	519.0	570.5	685.3	851.6	 1062	 1251	 1316	 1279	 1154	958.9	803.3	671.7	503.1	339.4	277.2	253.5	264.5	842.5	 5333	 5344	325.0	13.02	6.137	4.402	2.818	2.280	1.785	1.617	1.349	1.452	1.434	1.364	1.255	1.350	1.404	1.481	1.733	1.997	2.549	3.079	3.604	4.115	4.393	4.196	4.051	4.642	4.267	3.727	3.142	2.750	2.825	2.795	2.839	3.010	3.254	3.474	4.036	4.433	4.965	5.243	5.398	5.680	5.987	6.192	6.585	6.441	6.330	5.882	5.746	5.438	5.013
350.0	 1099	 1455	 1549	 1333	 1014	766.9	720.7	779.2	840.8	982.1	 1155	 1308	 1368	 1326	 1208	 1026	871.9	685.3	573.9	461.4	342.6	292.1	248.4	323.6	 1431	 3235	 3656	 1340	25.76	9.261	5.183	3.160	2.155	1.756	1.431	1.449	1.464	1.480	1.377	1.382	1.398	1.554	1.753	1.839	2.444	3.306	3.587	4.314	4.721	4.371	4.550	5.008	4.926	4.395	3.725	3.457	3.377	3.608	3.813	3.985	4.126	4.224	4.700	5.004	5.428	5.496	5.802	5.986	6.396	6.404	6.452	6.665	6.703	6.214	6.089	5.922	5.514
355.0	 1058	 1458	 1580	 1430	 1120	879.5	854.3	905.9	947.5	 1068	 1215	 1323	 1359	 1323	 1213	 1065	922.0	726.6	597.7	560.0	476.3	382.0	324.2	289.2	487.0	863.7	 1769	 5287	 2252	38.26	13.39	5.889	3.344	2.159	1.799	1.521	1.594	1.510	1.509	1.412	1.539	1.620	1.790	2.095	2.636	2.955	3.551	4.500	4.633	4.424	4.773	5.460	5.271	4.907	4.147	4.007	3.864	4.279	4.440	4.720	4.665	4.812	5.094	5.559	5.805	5.941	5.992	6.068	6.060	6.480	6.660	6.569	6.571	6.528	6.329	6.067	5.788
360.0	 1064	 1479	 1653	 1469	 1169	912.6	889.1	940.2	985.2	 1077	 1208	 1303	 1320	 1296	 1202	 1067	936.1	770.7	648.0	614.1	615.3	502.6	446.2	397.7	401.4	441.0	637.5	 2806	 6092	 1733	36.49	11.58	4.877	2.861	2.064	1.748	1.698	1.549	1.555	1.605	1.669	1.735	1.934	2.245	2.588	2.981	3.586	4.488	4.683	4.800	4.825	5.585	5.402	4.949	4.419	4.053	4.134	4.413	4.565	4.845	4.836	4.790	5.216	5.616	5.902	5.950	6.009	5.999	6.005	6.253	6.446	6.771	6.547	6.485	6.330	6.112	5.820
365.0	 1083	 1527	 1784	 1596	 1223	954.1	925.9	984.7	 1023	 1111	 1227	 1302	 1314	 1285	 1198	 1093	988.4	852.9	762.3	736.7	770.9	764.6	689.5	637.4	594.4	460.1	486.9	 1057	 4128	 6026	326.0	26.67	8.014	3.885	2.604	2.117	1.843	1.890	1.735	1.773	1.726	1.786	1.732	2.184	2.503	3.105	3.825	4.826	5.180	5.368	5.508	5.978	5.775	5.009	4.559	4.081	4.425	4.520	4.807	4.986	5.115	5.007	5.481	5.766	6.049	6.055	6.062	6.209	6.019	6.151	6.609	6.599	6.724	6.412	6.165	6.256	5.658
370.0	 1223	 1820	 2152	 1872	 1391	 1081	 1047	 1107	 1137	 1237	 1337	 1370	 1360	 1317	 1249	 1177	 1124	 1034	987.9	 1015	 1082	 1168	 1193	 1153	 1102	 1008	916.7	926.6	 1565	 3824	 4968	 1345	25.67	6.779	3.841	2.637	2.332	2.209	1.976	2.065	1.971	1.983	2.138	2.347	2.795	3.618	4.216	5.365	6.208	6.321	6.506	7.245	6.529	5.783	5.172	4.733	4.836	4.954	5.234	5.520	5.748	5.609	6.016	6.532	6.488	6.568	6.384	6.516	6.246	6.568	6.612	6.632	6.883	6.815	6.654	6.896	6.906
375.0	 1303	 2068	 2431	 2081	 1486	 1132	 1077	 1135	 1172	 1267	 1375	 1410	 1382	 1336	 1278	 1228	 1223	 1188	 1192	 1256	 1367	 1483	 1588	 1632	 1575	 1472	 1329	 1184	 1082	 1296	 2329	 5584	 1991	27.72	6.102	3.723	3.110	2.637	2.223	2.276	2.171	2.183	2.316	2.701	3.021	3.863	4.721	6.267	6.824	6.919	7.099	8.064	6.918	6.202	5.420	4.891	5.006	5.290	5.534	5.820	5.573	5.920	6.157	6.579	6.788	6.652	6.591	6.658	6.524	6.571	6.549	6.788	6.891	6.754	6.947	7.280	7.364
380.0	 1329	 2114	 2522	 2126	 1481	 1133	 1055	 1109	 1156	 1240	 1352	 1388	 1378	 1329	 1275	 1255	 1259	 1254	 1272	 1361	 1497	 1619	 1724	 1821	 1790	 1668	 1512	 1318	 1044	764.9	791.9	 3018	 5799	 1391	18.27	5.326	3.992	3.212	2.584	2.314	2.239	2.417	2.575	2.750	2.994	3.906	4.633	6.255	7.075	7.371	7.394	8.258	7.194	6.221	5.699	4.801	4.961	5.174	5.228	5.603	5.803	5.653	5.996	6.400	6.649	6.369	6.644	6.712	6.393	6.582	6.642	6.782	7.087	6.977	7.252	7.218	7.526
385.0	 1347	 2126	 2508	 2129	 1470	 1115	 1036	 1087	 1134	 1227	 1337	 1379	 1373	 1322	 1282	 1270	 1277	 1286	 1323	 1423	 1565	 1689	 1785	 1887	 1914	 1784	 1602	 1397	 1075	673.4	430.4	904.5	 3986	 4967	251.9	9.516	5.223	4.027	2.933	2.553	2.366	2.586	2.718	2.778	3.078	4.035	4.599	6.331	7.107	7.340	7.431	8.172	7.360	5.894	5.575	4.949	5.235	5.076	5.308	5.461	5.829	5.624	5.950	6.138	6.355	6.461	6.366	6.608	6.281	6.503	6.481	6.698	6.862	6.985	7.434	7.388	7.581
390.0	 1363	 2104	 2508	 2109	 1475	 1126	 1061	 1115	 1154	 1274	 1378	 1419	 1408	 1371	 1327	 1323	 1343	 1364	 1400	 1506	 1661	 1791	 1900	 1985	 2026	 1943	 1735	 1505	 1153	712.3	394.0	347.2	 1101	 3123	 3178	988.5	18.87	5.511	3.950	2.920	2.708	2.581	2.634	2.960	3.141	3.944	4.666	6.281	7.353	7.372	7.575	8.133	7.255	6.068	5.499	4.890	4.983	5.089	5.286	5.579	5.687	5.817	6.096	6.356	6.432	6.669	6.472	6.543	6.537	6.573	6.515	6.854	7.136	7.432	7.397	7.641	7.950
395.0	 1345	 2112	 2494	 2094	 1463	 1144	 1088	 1135	 1227	 1351	 1478	 1541	 1524	 1480	 1425	 1406	 1421	 1434	 1487	 1585	 1751	 1886	 2001	 2085	 2112	 2049	 1869	 1611	 1245	784.9	434.4	265.3	349.0	772.1	 1678	 4767	 1719	23.00	6.007	3.969	3.199	2.841	2.861	2.779	3.078	4.128	4.793	6.574	7.257	7.356	7.610	8.547	7.167	5.937	5.368	4.810	5.150	5.068	5.320	5.611	5.903	5.876	6.078	6.425	6.818	6.962	6.694	6.655	7.005	6.938	7.037	7.194	7.499	7.692	7.485	8.091	8.136
400.0	 1332	 2032	 2393	 2048	 1454	 1165	 1116	 1195	 1297	 1454	 1603	 1684	 1673	 1618	 1531	 1482	 1471	 1479	 1522	 1622	 1782	 1919	 2026	 2113	 2131	 2052	 1905	 1666	 1283	829.5	476.2	282.9	214.1	263.0	470.0	 2666	 5284	258.2	16.40	5.513	3.732	3.239	3.076	2.893	3.464	4.121	4.634	6.245	6.941	7.249	7.248	8.083	6.926	5.913	5.306	4.810	5.415	5.360	5.256	5.512	5.979	5.983	6.318	6.341	6.979	7.176	6.851	6.962	7.075	7.583	7.239	7.201	7.941	8.042	7.729	7.870	8.291
405.0	 1238	 1934	 2264	 1934	 1427	 1171	 1139	 1255	 1374	 1586	 1765	 1850	 1837	 1758	 1642	 1557	 1508	 1500	 1540	 1631	 1781	 1910	 2017	 2092	 2100	 2013	 1862	 1664	 1298	858.3	520.1	323.6	217.2	175.7	188.5	753.7	 3600	 3960	217.2	9.598	4.414	3.562	3.220	3.284	3.426	3.844	4.539	6.134	6.695	6.899	6.722	7.648	6.739	5.777	5.359	5.085	5.441	5.420	5.582	5.612	5.950	6.166	6.671	6.761	7.043	6.891	7.007	7.490	7.086	7.856	7.454	7.485	8.164	7.933	8.000	8.299	8.077
410.0	 1195	 1769	 2052	 1812	 1379	 1191	 1213	 1350	 1512	 1741	 1944	 2028	 2011	 1906	 1752	 1616	 1525	 1501	 1522	 1606	 1741	 1856	 1953	 2014	 2014	 1922	 1762	 1584	 1293	884.9	568.8	375.0	261.4	197.6	159.5	252.2	983.4	 2715	 2781	855.0	15.57	4.627	3.916	3.344	3.401	3.758	4.297	5.582	6.169	6.219	6.326	7.079	6.197	5.760	5.331	5.138	5.593	5.482	5.837	6.072	6.256	6.543	6.741	7.104	7.247	7.314	7.411	7.740	7.517	7.888	7.750	7.832	8.019	8.206	8.130	8.343	8.361
415.0	 1125	 1601	 1889	 1685	 1343	 1219	 1272	 1431	 1604	 1825	 2023	 2118	 2084	 1976	 1786	 1617	 1508	 1466	 1477	 1546	 1655	 1761	 1849	 1900	 1895	 1808	 1656	 1478	 1230	909.7	604.5	411.9	300.6	232.2	177.6	160.9	294.0	667.4	 1554	 3754	 1257	18.62	4.962	3.930	3.782	3.824	3.918	5.116	5.709	5.634	5.870	6.804	6.103	5.818	5.282	5.152	5.587	5.775	5.827	6.237	6.433	6.728	6.921	7.420	7.722	7.317	7.486	7.734	7.880	7.756	7.999	8.101	8.062	8.069	8.286	8.102	8.377
420.0	 1033	 1494	 1733	 1563	 1295	 1212	 1309	 1468	 1632	 1847	 2039	 2127	 2094	 1983	 1773	 1588	 1469	 1413	 1420	 1482	 1586	 1678	 1759	 1802	 1790	 1713	 1564	 1395	 1168	895.3	630.7	435.6	321.4	251.6	193.1	150.9	147.2	204.9	418.1	 2197	 3745	235.9	12.63	4.557	3.992	3.813	4.163	5.032	5.306	5.451	5.494	6.264	5.485	5.672	5.109	5.234	5.591	5.778	5.994	6.235	6.527	6.799	7.007	7.249	7.363	7.511	7.398	7.505	7.787	7.727	7.737	8.037	8.116	7.843	8.099	7.744	8.279
425.0	 1000	 1412	 1622	 1480	 1239	 1198	 1325	 1482	 1640	 1862	 2045	 2133	 2081	 1970	 1766	 1562	 1430	 1367	 1369	 1426	 1514	 1600	 1672	 1712	 1693	 1621	 1479	 1325	 1111	859.4	645.8	463.0	337.5	263.6	207.2	156.8	122.5	107.3	135.0	614.4	 2832	 2932	192.0	6.967	4.723	4.103	4.142	4.659	4.943	4.994	5.138	6.044	5.466	5.397	5.351	5.336	5.697	5.668	6.197	6.408	6.552	6.846	7.027	7.337	7.542	7.358	7.509	7.305	7.454	7.521	7.500	7.607	7.964	7.612	7.602	7.717	7.643
430.0	913.9	 1285	 1481	 1377	 1218	 1219	 1352	 1532	 1688	 1882	 2059	 2129	 2080	 1952	 1733	 1529	 1376	 1315	 1311	 1353	 1422	 1494	 1556	 1586	 1568	 1497	 1369	 1233	 1051	821.9	633.8	497.4	373.6	289.1	227.5	175.2	132.6	98.11	82.04	173.8	781.3	 2156	 2386	733.7	13.78	4.841	4.497	4.743	4.853	4.739	4.710	5.544	5.173	5.230	5.154	5.450	5.936	6.027	6.547	6.568	6.713	7.020	6.959	7.385	7.568	7.351	7.553	7.369	7.484	7.450	7.504	7.395	7.340	7.571	7.352	7.355	7.416
435.0	905.0	 1146	 1318	 1270	 1192	 1244	 1413	 1577	 1733	 1902	 2061	 2123	 2067	 1919	 1694	 1482	 1318	 1257	 1243	 1276	 1326	 1379	 1435	 1459	 1442	 1372	 1260	 1141	987.2	791.3	622.5	502.7	413.1	323.1	252.5	196.3	150.7	109.8	82.93	85.13	207.0	515.6	 1368	 3366	 1118	15.84	5.129	4.811	4.651	4.462	4.348	5.149	5.069	5.245	4.992	5.174	6.080	6.435	6.869	6.944	6.900	7.115	6.943	7.560	7.416	7.440	7.354	7.078	7.300	7.428	7.348	7.315	7.113	7.185	7.209	7.241	7.311
440.0	941.3	 1075	 1220	 1202	 1173	 1253	 1437	 1620	 1735	 1892	 2029	 2076	 1996	 1863	 1650	 1432	 1275	 1207	 1190	 1215	 1250	 1296	 1345	 1364	 1343	 1281	 1184	 1070	935.1	766.0	617.9	498.9	425.0	347.1	269.2	208.1	163.0	120.9	89.57	71.74	84.74	142.4	364.0	 2206	 3506	207.1	8.845	5.154	4.694	4.345	4.442	5.223	4.990	4.874	5.210	5.388	6.012	6.575	6.900	7.074	7.118	7.113	7.039	7.300	7.215	7.350	7.133	7.169	7.068	7.291	7.011	7.168	7.118	7.027	6.735	7.091	6.816
445.0	 1039	 1041	 1132	 1152	 1162	 1227	 1434	 1618	 1708	 1833	 1935	 1988	 1923	 1784	 1569	 1376	 1223	 1150	 1124	 1152	 1172	 1211	 1252	 1271	 1250	 1197	 1102	 1010	887.3	736.9	606.7	490.7	416.4	359.4	281.5	217.3	170.4	129.1	97.03	74.48	62.07	63.39	105.9	644.6	 2984	 1773	26.67	6.476	5.160	4.589	4.328	4.933	4.898	4.967	5.287	5.402	6.153	6.474	6.774	7.200	7.194	7.187	6.939	6.978	7.201	7.212	6.800	6.966	6.849	6.794	6.779	6.669	7.111	6.659	6.674	6.642	6.467
450.0	994.5	 1119	 1062	 1061	 1095	 1198	 1399	 1577	 1632	 1713	 1797	 1846	 1763	 1637	 1446	 1261	 1121	 1055	 1034	 1046	 1062	 1085	 1119	 1137	 1120	 1069	995.5	917.5	814.2	692.2	577.7	475.2	398.8	347.1	292.8	229.7	177.7	136.8	104.8	82.47	64.14	52.18	52.59	165.6	831.8	 2092	 2304	641.5	11.68	4.860	4.326	4.941	4.773	4.796	5.012	5.394	6.174	6.455	6.887	6.990	7.002	6.951	6.644	6.625	6.717	6.637	6.343	6.569	6.331	6.469	6.266	6.314	6.399	6.248	6.215	6.051	6.079
455.0	789.5	 1231	 1040	973.7	 1022	 1158	 1343	 1495	 1536	 1585	 1640	 1661	 1591	 1477	 1307	 1138	 1014	958.8	930.3	933.7	944.5	952.7	980.7	992.6	979.7	934.6	874.8	814.7	739.1	637.1	538.2	454.7	384.4	326.7	283.3	243.2	187.6	144.1	113.7	90.89	70.73	55.34	45.66	62.28	204.3	497.5	 1412	 3129	892.6	12.42	4.726	4.851	4.792	5.024	4.942	5.060	5.928	6.285	6.542	6.830	6.515	6.374	6.276	6.161	6.298	6.109	5.867	6.224	5.558	5.885	5.753	5.922	5.747	5.733	5.601	5.502	5.609
460.0	648.8	 1178	 1103	905.4	975.0	 1102	 1279	 1428	 1460	 1476	 1532	 1553	 1467	 1358	 1203	 1041	930.4	882.8	857.4	855.9	859.4	862.3	887.2	893.6	880.3	846.1	795.2	740.3	678.6	595.1	513.4	434.4	370.4	317.0	273.1	241.5	197.9	150.5	119.1	96.03	76.05	59.61	47.66	42.53	66.82	127.2	364.5	 2027	 2848	156.9	8.355	5.202	4.923	4.882	4.674	5.067	5.673	5.870	6.228	6.438	6.435	6.316	6.173	5.772	5.853	5.933	5.598	5.808	5.262	5.511	5.226	5.348	5.625	5.361	5.260	5.162	4.991
465.0	602.6	972.7	 1219	901.3	904.3	 1049	 1224	 1358	 1371	 1392	 1425	 1436	 1359	 1252	 1109	971.8	866.9	811.8	793.8	789.3	782.0	785.9	802.8	815.6	798.2	773.7	727.2	680.6	627.1	557.3	483.1	417.2	358.4	308.2	264.6	232.0	201.8	156.7	122.9	100.3	80.70	63.76	51.54	41.04	38.75	46.30	95.67	576.9	 2455	 1345	120.5	6.153	5.075	4.914	4.640	5.032	5.593	5.726	6.146	6.311	6.135	5.873	5.837	5.772	5.422	5.530	5.158	5.384	5.070	5.144	5.060	5.067	5.064	4.788	5.002	4.700	4.803
470.0	525.1	721.8	 1120	987.9	841.3	965.4	 1119	 1246	 1256	 1259	 1279	 1278	 1205	 1105	979.9	855.9	766.8	718.8	702.6	695.6	684.0	685.0	695.1	704.7	697.8	673.6	638.0	599.4	558.0	505.5	444.3	385.5	334.7	290.1	249.9	216.2	191.9	162.6	129.1	103.7	85.34	68.07	55.76	44.23	36.59	31.82	37.87	142.4	684.9	 1569	 1653	572.7	11.76	5.314	4.808	4.744	5.329	5.415	5.679	5.867	5.795	5.598	5.405	5.297	5.073	5.029	4.857	4.776	4.530	4.723	4.607	4.569	4.433	4.473	4.402	4.282	4.362
475.0	477.6	608.9	803.1	 1084	837.0	871.4	 1015	 1116	 1118	 1110	 1122	 1122	 1045	963.1	853.1	745.9	670.5	627.0	613.8	601.1	588.1	588.6	593.9	603.7	598.3	575.8	547.3	521.1	490.4	447.3	400.6	351.2	308.2	269.4	234.1	203.2	177.9	155.3	138.4	110.3	87.93	71.80	59.10	48.56	39.87	31.95	28.86	47.94	165.2	370.4	924.0	 2242	190.1	13.78	5.101	4.951	5.097	5.055	5.158	5.188	5.486	5.033	4.979	4.843	4.637	4.532	4.348	4.108	3.868	4.080	4.085	3.818	4.085	4.042	3.947	3.805	3.730
480.0	428.1	530.4	631.8	997.9	916.6	805.2	940.3	 1028	 1033	 1019	 1034	 1016	948.5	868.6	765.2	671.0	605.9	571.0	551.9	547.9	527.0	523.3	528.0	537.9	531.1	516.4	491.6	468.5	444.8	409.0	369.4	328.7	288.7	255.3	221.8	195.8	169.6	149.6	137.1	116.6	91.06	73.87	61.60	51.13	42.92	34.08	29.01	28.66	51.68	94.82	238.9	 1325	 2003	176.7	8.912	5.242	4.926	4.986	4.824	5.036	5.041	4.583	4.556	4.325	4.408	4.012	4.030	3.836	3.512	3.702	3.728	3.593	3.665	3.464	3.585	3.557	3.455
485.0	401.9	494.7	558.5	810.4	 1009	790.6	866.1	954.0	953.3	937.5	945.4	919.2	868.2	787.3	694.2	610.8	557.7	520.7	501.2	498.1	474.1	471.1	476.0	482.7	480.1	465.8	446.0	426.3	407.0	377.8	343.8	306.3	272.2	240.8	210.7	187.5	165.8	143.4	130.2	118.4	95.79	75.88	64.42	54.19	45.66	37.11	30.96	27.48	27.72	34.64	65.81	363.2	 1685	 1516	137.7	6.459	5.111	4.915	4.783	4.822	4.857	4.495	4.212	4.108	4.060	3.598	3.858	3.858	3.442	3.536	3.241	3.394	3.396	3.246	3.241	3.164	3.304
490.0	360.0	437.2	486.4	590.7	909.6	866.3	787.2	860.9	855.8	837.2	845.7	822.3	764.7	689.8	611.0	538.1	485.8	455.5	443.1	433.9	416.3	410.4	413.6	420.4	418.7	406.4	390.0	376.1	361.8	340.2	310.0	278.8	249.5	223.9	197.7	176.2	155.9	137.2	121.8	112.5	99.35	80.27	66.56	55.70	48.34	39.89	33.94	30.09	25.01	23.33	29.19	93.92	455.6	 1244	 1592	561.2	12.48	5.255	4.718	4.683	4.366	4.138	3.882	3.892	3.710	3.392	3.475	3.450	3.153	3.121	3.015	3.047	3.058	2.966	2.924	2.799	3.031
495.0	321.8	393.8	434.2	477.7	634.8	938.5	762.3	756.9	756.6	741.3	735.7	714.3	661.1	601.2	529.1	466.0	422.3	394.9	382.7	373.6	360.6	352.7	355.4	361.1	359.1	346.4	333.8	325.6	316.8	298.3	275.3	250.4	223.2	200.8	181.5	161.3	145.9	129.9	115.6	104.3	94.55	83.12	68.97	57.06	49.35	42.46	36.35	32.11	26.02	22.47	22.21	35.36	113.6	294.7	886.2	 2066	209.2	14.90	5.150	4.539	4.156	3.852	3.509	3.647	3.462	3.179	3.082	3.033	2.855	2.723	2.688	2.635	2.666	2.690	2.774	2.449	2.515
500.0	280.5	358.4	400.9	423.9	500.9	839.4	849.4	679.6	680.0	666.3	659.1	638.0	590.4	540.4	471.5	413.9	375.0	350.6	340.2	331.2	318.1	308.9	311.6	316.2	315.9	307.8	297.8	291.5	282.9	267.3	249.1	227.9	203.7	185.5	167.2	152.9	135.1	122.1	110.4	99.54	88.02	81.49	71.42	57.28	50.15	42.54	37.15	33.89	27.49	23.52	21.91	23.13	38.38	77.29	226.6	 1190	 1692	192.8	10.25	4.626	4.097	3.711	3.469	3.230	2.990	3.056	2.826	2.796	2.761	2.480	2.460	2.328	2.507	2.389	2.454	2.400	2.200
505.0	267.0	303.3	363.4	386.3	430.6	651.2	936.3	658.4	604.8	597.2	596.2	579.6	531.1	478.2	416.9	374.0	332.6	311.7	302.4	293.7	282.4	273.8	275.6	282.0	280.0	273.3	265.9	258.6	253.6	240.1	227.5	206.7	185.6	170.8	155.0	141.8	127.5	114.9	103.4	94.26	83.02	76.14	71.26	60.11	49.73	43.36	37.96	33.99	28.72	24.75	22.94	21.51	22.17	29.59	60.85	321.1	 1455	 1616	154.8	6.109	4.215	3.711	3.246	3.074	2.977	2.744	2.649	2.501	2.536	2.178	2.283	2.158	2.212	2.111	2.272	2.160	2.102
510.0	223.3	274.7	323.0	338.3	362.0	461.4	818.0	804.0	541.0	522.2	516.6	498.3	461.9	410.7	354.6	317.8	287.5	266.5	257.5	250.9	240.4	233.9	235.7	238.3	237.6	231.7	225.4	220.7	218.5	208.8	197.8	180.9	164.4	150.8	137.9	126.3	114.9	105.2	95.31	86.27	76.96	67.94	65.27	59.89	50.66	43.70	38.30	33.95	29.44	26.06	24.25	22.39	19.87	19.97	25.31	82.33	389.0	 1153	 1458	529.1	12.64	3.741	3.289	2.945	2.658	2.498	2.580	2.376	2.224	2.069	1.988	1.955	1.879	1.952	1.924	1.812	1.824
515.0	183.5	231.0	270.5	287.2	309.8	359.9	534.4	952.6	593.1	446.7	440.2	423.8	391.5	348.4	302.8	265.4	239.4	226.5	217.1	210.7	200.7	195.5	198.6	197.9	197.7	192.1	189.8	188.7	184.3	176.7	169.1	156.2	141.8	131.8	120.0	110.3	102.1	93.54	85.06	78.08	69.62	62.06	58.43	55.63	51.94	43.63	38.31	33.44	29.84	27.07	25.27	23.34	20.46	18.70	18.41	29.85	96.94	269.7	666.1	 1667	212.8	14.20	3.379	2.780	2.523	2.260	2.303	2.091	1.954	1.749	1.757	1.785	1.748	1.790	1.766	1.618	1.661
520.0	168.8	218.5	230.8	263.7	276.0	309.5	388.6	825.5	806.5	414.0	395.0	378.3	346.0	305.4	267.9	232.3	212.4	198.6	190.2	183.9	177.9	169.4	173.3	174.7	173.9	169.3	165.5	164.3	161.2	157.1	148.9	140.0	128.9	118.1	107.0	99.50	92.74	85.68	78.15	72.00	64.37	57.50	53.40	50.49	49.94	43.62	37.66	33.54	29.95	26.49	25.51	23.48	20.83	18.83	17.11	18.99	32.64	69.55	166.7	900.7	 1534	191.0	7.742	3.045	2.450	2.155	2.127	2.056	1.741	1.694	1.592	1.507	1.517	1.552	1.466	1.478	1.327
525.0	153.5	191.0	206.6	228.8	254.5	275.8	323.8	577.6	998.6	493.4	354.0	337.3	306.5	271.2	240.7	210.8	188.3	176.5	169.9	163.8	157.2	150.5	152.2	154.9	152.3	148.9	147.8	145.5	143.2	140.4	133.5	126.1	116.0	106.1	96.95	90.08	84.25	79.07	72.30	66.26	59.90	54.43	50.25	46.26	45.72	43.32	37.41	33.28	29.40	26.09	24.65	23.16	20.85	18.84	16.98	16.19	18.63	25.18	45.45	235.9	 1080	 1344	28.60	4.361	2.739	2.259	2.001	1.864	1.564	1.544	1.474	1.315	1.383	1.291	1.414	1.183	1.200
530.0	132.2	166.1	184.2	193.8	219.0	236.3	266.3	359.2	813.9	909.2	348.3	298.6	265.0	234.2	204.7	179.8	161.6	149.8	143.4	139.4	132.7	128.3	128.7	129.6	129.3	127.2	123.9	122.7	123.4	119.3	115.5	107.7	100.2	92.01	85.22	79.59	74.34	69.77	64.08	59.49	54.24	48.91	45.38	42.02	40.96	39.49	37.47	33.26	28.53	25.36	24.48	22.63	20.75	19.39	16.94	16.00	15.57	15.70	18.90	60.07	279.0	844.7	 1061	400.5	10.99	2.557	2.047	2.026	1.572	1.412	1.345	1.230	1.212	1.239	1.195	1.052	1.136
535.0	107.5	140.3	147.1	161.1	187.8	208.9	221.0	255.8	442.6	 1083	577.1	255.7	225.4	198.5	171.3	153.5	136.5	129.2	121.7	116.6	111.2	108.3	106.5	107.6	107.6	106.8	104.9	104.3	104.3	101.8	96.88	90.87	85.95	78.31	73.42	68.98	63.82	61.00	55.85	52.53	47.33	42.94	40.60	37.81	36.31	34.69	34.70	32.80	27.07	24.07	23.33	21.36	20.30	18.53	17.40	15.70	14.99	13.48	13.32	21.20	68.57	195.9	449.8	 1203	215.6	16.34	2.406	2.182	1.530	1.402	1.214	1.105	1.133	1.076	0.909	1.040	0.890
540.0	102.0	125.8	129.3	141.8	161.2	184.7	199.5	219.8	276.1	820.8	894.0	261.7	203.3	177.3	153.2	134.6	122.0	112.7	105.8	101.1	97.29	95.78	93.33	94.12	92.71	92.98	91.21	91.92	91.68	89.24	86.35	80.77	75.58	70.31	64.99	61.34	57.80	54.12	50.47	47.65	42.78	39.35	37.28	34.77	33.40	31.46	30.78	31.14	27.19	23.08	21.89	21.01	19.30	18.09	16.96	15.88	14.57	13.12	12.17	12.21	21.91	49.08	110.6	613.6	 1135	212.0	7.747	2.261	1.502	1.269	1.089	0.978	1.189	0.971	0.884	0.947	0.865
545.0	94.23	109.8	120.0	126.7	138.2	163.3	180.2	196.7	212.6	481.9	 1038	401.8	183.3	159.8	137.2	122.1	107.3	99.28	93.98	90.00	86.71	83.62	83.66	83.51	82.84	80.90	81.64	81.97	81.47	80.05	77.96	72.17	66.90	63.13	58.44	54.29	52.85	49.85	45.74	43.21	39.37	36.47	34.32	32.20	30.64	29.02	27.41	28.00	26.65	22.79	21.13	19.69	18.41	17.17	16.24	15.57	14.06	12.72	11.50	10.44	11.26	16.69	29.85	158.5	762.4	 1213	165.4	3.931	1.581	1.146	1.094	0.988	1.013	0.917	0.918	0.811	0.901
550.0	80.95	93.92	98.79	110.6	115.8	135.4	156.9	163.6	173.9	252.9	700.3	778.8	214.1	137.1	117.3	103.6	91.58	85.89	79.70	77.36	73.75	71.35	70.32	69.71	69.48	68.86	68.93	68.06	68.88	68.42	65.51	61.51	57.24	52.79	50.00	47.40	44.83	42.52	39.84	37.65	34.31	31.56	29.78	28.48	27.07	25.86	24.55	23.77	23.86	22.03	20.16	18.36	16.99	16.00	15.10	14.90	13.41	12.25	10.92	10.08	9.048	9.574	11.77	39.62	194.6	662.8	 1482	670.1	9.814	1.414	1.094	0.965	0.920	0.832	0.857	0.736	0.820
555.0	72.81	75.69	85.18	91.17	99.57	104.1	130.8	142.8	144.8	169.2	320.4	804.0	497.6	114.5	98.16	85.40	77.68	71.77	67.12	63.11	60.93	59.07	58.09	57.73	57.48	56.26	56.70	55.21	57.17	55.50	53.93	50.58	47.29	43.76	41.93	39.48	37.22	35.13	33.80	31.17	28.22	26.48	25.09	24.12	23.29	22.31	22.16	20.35	19.95	19.60	18.94	17.02	15.07	14.36	13.87	13.46	12.56	11.40	10.04	9.386	8.316	7.580	7.429	13.02	47.02	151.9	580.8	 2040	212.5	11.15	1.241	0.931	0.811	0.806	0.816	0.629	0.707
560.0	57.78	64.78	73.17	74.86	82.21	88.13	114.2	128.2	122.5	134.1	176.6	545.8	765.8	136.2	84.67	75.28	65.55	59.66	57.04	52.96	51.05	50.54	49.51	49.44	49.49	47.86	47.41	47.39	48.45	47.20	45.45	43.48	40.96	37.95	35.46	33.55	31.89	30.20	28.84	27.22	24.69	23.60	21.75	21.00	20.35	20.06	19.07	18.12	16.99	17.19	17.50	15.56	14.00	13.02	12.37	12.31	11.59	11.07	9.727	9.243	7.977	7.011	6.334	6.933	13.94	36.80	137.4	968.8	829.0	168.9	4.144	0.983	0.851	0.731	0.744	0.627	0.706
565.0	52.16	58.20	65.29	66.04	68.70	74.87	92.33	111.7	109.8	112.5	125.3	289.4	797.2	309.0	72.57	63.67	56.22	51.70	49.05	45.59	44.56	42.46	41.98	41.44	41.64	40.42	41.23	40.50	40.77	40.56	38.87	36.65	34.25	32.29	30.55	28.90	27.76	25.51	24.67	23.73	21.37	20.22	19.05	18.60	18.20	17.20	16.95	15.90	14.94	14.46	14.96	14.50	12.69	11.58	10.83	11.00	10.63	10.05	9.211	8.199	7.185	6.140	5.764	5.513	6.380	10.97	33.29	235.4	517.4	663.4	28.42	1.667	0.821	0.697	0.644	0.531	0.528
570.0	45.29	52.25	51.80	54.89	58.24	62.27	72.65	88.13	96.45	93.70	97.45	138.4	461.0	602.6	97.57	51.52	44.31	40.95	38.53	36.88	34.76	33.78	33.46	32.88	32.85	32.53	32.06	31.86	32.15	31.90	30.99	28.83	26.75	26.00	24.39	22.95	22.03	20.62	19.61	18.93	17.49	16.26	15.48	15.02	14.60	14.13	13.77	13.01	12.13	11.59	11.63	11.84	11.05	10.03	8.915	9.163	8.998	8.386	7.754	6.929	6.388	5.473	5.073	4.694	4.273	5.088	9.689	54.56	129.0	373.4	464.5	120.0	7.306	0.738	0.622	0.504	0.447
575.0	38.15	40.24	40.13	42.16	44.95	48.49	54.22	66.44	81.87	78.57	78.33	84.75	173.4	527.5	392.1	43.28	34.84	31.02	29.94	27.55	26.87	26.14	25.51	25.12	25.01	24.82	24.21	24.35	24.53	23.97	23.44	21.94	20.76	19.83	18.20	17.48	16.99	16.27	15.07	14.46	13.51	12.85	12.38	11.98	11.39	11.01	10.73	10.14	9.793	9.147	8.737	8.976	9.139	8.525	7.584	7.625	7.352	6.942	6.213	5.721	5.389	4.904	4.184	4.020	3.453	3.164	4.159	13.90	30.14	85.00	181.3	458.4	179.2	6.125	0.680	0.524	0.449
580.0	27.83	35.75	36.95	34.77	37.00	42.99	45.21	53.16	66.94	72.12	67.27	65.93	80.71	321.3	593.4	77.82	29.04	25.28	24.24	22.46	21.70	20.90	20.64	20.63	20.40	20.49	19.55	20.08	19.88	19.59	18.81	18.33	16.71	15.80	14.72	14.14	14.00	13.25	12.34	12.04	11.16	10.13	10.03	9.596	9.173	9.012	8.737	8.498	7.945	7.491	7.206	7.076	7.654	7.589	6.863	6.734	6.136	6.047	5.299	4.849	4.506	4.282	3.659	3.374	3.046	2.615	2.687	4.760	8.075	20.07	43.27	226.2	441.1	30.24	2.045	0.460	0.447
585.0	23.51	34.78	34.37	31.27	32.97	34.03	38.63	46.04	54.19	67.02	59.30	56.12	54.87	149.6	548.4	245.2	24.24	20.91	20.48	18.79	18.47	17.37	16.81	16.76	17.51	16.89	15.76	16.96	16.69	16.24	15.73	15.63	14.10	13.12	12.52	11.99	11.84	10.84	10.03	9.856	9.676	8.354	8.281	8.023	7.858	7.500	7.566	7.391	6.906	6.205	6.107	6.375	6.301	6.388	5.929	5.547	5.268	5.059	4.714	4.244	4.096	3.699	3.357	2.889	2.748	2.185	2.174	2.495	2.941	5.385	10.43	56.91	274.0	338.8	26.23	0.713	0.429
590.0	25.49	30.84	26.98	26.49	27.78	28.90	30.29	37.92	43.22	57.92	56.41	48.29	44.26	61.00	278.3	458.0	59.98	17.60	16.18	15.02	14.45	14.22	13.84	13.73	13.24	13.46	13.03	13.02	13.07	12.88	12.55	11.76	11.24	10.68	9.759	9.592	9.371	8.763	7.997	7.660	7.462	6.667	6.667	6.495	6.430	5.931	5.846	5.814	5.372	5.032	5.047	4.795	4.647	4.915	5.030	4.986	4.461	4.186	3.922	3.643	3.442	3.062	2.934	2.528	2.266	2.005	1.802	1.805	1.625	2.059	3.062	13.27	68.53	196.5	264.7	96.02	4.809
595.0	22.66	25.55	25.14	22.67	21.23	24.44	23.99	30.70	35.82	48.09	54.26	44.82	38.01	35.40	91.12	356.7	312.5	17.06	13.19	11.76	11.28	10.82	10.94	10.94	10.39	10.21	10.26	10.50	10.26	9.934	9.894	9.272	8.735	8.489	7.566	7.638	7.478	6.831	6.075	5.760	5.808	5.297	5.239	4.981	4.778	4.881	4.782	4.837	4.331	4.040	3.800	3.840	3.826	3.642	3.770	3.957	3.838	3.349	3.229	2.956	2.825	2.454	2.441	2.156	1.819	1.659	1.432	1.430	1.191	1.185	1.331	3.503	15.65	44.51	110.8	259.2	112.8
600.0	20.88	25.20	20.31	19.19	17.23	20.25	22.75	26.43	31.42	39.88	51.75	45.12	34.99	29.38	38.53	191.5	458.9	54.30	11.00	10.05	9.876	9.472	9.118	9.111	8.606	8.759	8.395	8.417	8.357	8.455	7.941	7.732	7.014	7.027	6.247	6.083	5.808	5.750	5.174	4.872	4.748	4.649	4.505	4.089	4.120	4.015	4.174	3.695	3.635	3.303	3.272	3.171	3.201	2.999	2.946	3.442	3.360	2.899	2.815	2.514	2.315	2.116	2.057	1.944	1.661	1.586	1.397	1.225	1.053	0.955	0.829	1.284	4.006	10.29	26.45	127.5	247.1
605.0	23.19	20.39	20.05	17.60	16.79	17.29	22.03	23.30	30.14	38.33	49.61	49.79	38.18	30.29	27.95	85.31	395.6	209.1	10.13	8.339	8.410	8.061	7.778	7.525	7.314	7.555	7.303	7.129	7.442	7.149	6.452	6.510	6.057	5.723	5.260	5.079	4.834	4.947	4.592	4.278	4.158	3.844	3.688	3.615	3.655	3.413	3.306	3.089	3.059	2.839	2.830	2.764	2.548	2.441	2.484	2.827	2.978	2.607	2.336	2.083	1.953	2.020	1.583	1.783	1.586	1.423	1.336	1.133	0.946	0.888	0.776	0.765	1.380	2.656	6.322	32.25	155.5
610.0	23.02	23.25	19.28	16.97	15.89	17.57	19.88	22.82	29.94	37.18	47.28	54.92	44.41	33.43	28.82	36.80	192.8	366.5	45.99	7.186	6.784	6.580	6.293	6.189	5.974	6.071	5.798	5.785	5.955	5.776	5.587	5.256	5.054	4.706	4.219	4.057	3.966	3.802	3.678	3.507	3.408	3.092	2.996	2.988	2.870	2.747	2.694	2.646	2.473	2.306	2.295	2.288	2.168	2.033	2.092	2.099	2.386	2.243	2.055	1.847	1.642	1.653	1.434	1.365	1.260	1.286	1.202	1.074	0.912	0.813	0.656	0.632	0.684	1.014	1.743	7.514	38.94
615.0	20.68	24.41	18.14	14.66	14.31	16.57	19.49	21.74	27.70	35.55	40.36	51.31	48.11	33.58	28.09	24.88	63.83	261.3	261.0	9.584	5.706	5.337	4.863	5.281	5.159	4.869	4.773	4.891	4.700	4.200	4.461	4.074	3.984	3.489	3.396	3.139	2.929	2.986	2.904	2.471	2.594	2.325	2.362	2.248	2.414	2.046	2.052	2.146	1.950	1.842	1.795	1.799	1.724	1.616	1.633	1.634	1.649	1.811	1.826	1.508	1.405	1.192	1.153	1.183	1.055	1.111	0.931	0.923	0.717	0.715	0.611	0.493	0.539	0.557	0.680	1.918	8.922
620.0	18.91	19.91	15.77	15.57	11.96	14.76	15.35	19.75	26.82	31.29	38.28	45.54	50.19	34.25	26.36	21.33	27.80	133.2	364.1	48.14	4.990	4.180	4.268	4.392	4.286	3.969	3.865	3.732	3.853	3.731	3.568	3.433	3.280	2.846	2.755	2.629	2.538	2.619	2.354	2.169	2.032	1.921	1.975	1.826	1.837	1.910	1.680	1.759	1.686	1.536	1.478	1.578	1.374	1.329	1.297	1.371	1.313	1.313	1.531	1.430	1.219	1.075	0.995	1.032	0.924	0.864	0.787	0.838	0.627	0.708	0.550	0.486	0.423	0.434	0.406	0.671	2.205
625.0	19.53	17.54	20.06	14.81	13.17	12.33	15.77	20.22	23.92	28.85	37.94	42.67	45.43	35.41	26.92	19.85	19.70	55.40	295.5	195.9	5.511	4.105	3.710	3.726	3.665	3.521	3.619	3.400	3.370	3.407	3.032	3.055	2.564	2.558	2.158	2.195	2.176	2.099	1.866	1.820	1.800	1.740	1.593	1.633	1.602	1.680	1.515	1.506	1.377	1.261	1.225	1.227	1.213	1.132	1.224	1.123	1.060	1.228	1.272	1.278	1.108	1.051	0.933	0.889	0.931	0.809	0.713	0.815	0.591	0.614	0.591	0.447	0.395	0.405	0.397	0.402	0.719
630.0	20.03	19.79	18.06	14.50	12.33	13.93	14.63	17.78	23.05	29.86	35.78	40.15	42.14	39.76	27.87	20.76	18.16	22.44	128.2	316.4	39.97	3.608	3.256	3.053	3.017	2.943	2.847	2.711	2.656	2.739	2.476	2.464	2.159	1.995	1.881	1.861	1.746	1.600	1.630	1.473	1.440	1.308	1.322	1.333	1.289	1.323	1.227	1.256	1.165	1.025	1.031	0.966	0.974	0.974	0.901	0.973	0.898	1.038	0.975	0.980	1.013	0.922	0.777	0.696	0.823	0.686	0.745	0.678	0.591	0.553	0.494	0.415	0.397	0.340	0.338	0.329	0.422
635.0	19.25	23.37	16.94	15.13	12.46	12.29	13.43	17.41	21.60	27.70	34.23	39.25	41.29	41.65	30.85	21.79	18.05	14.38	36.43	198.6	263.1	6.588	2.791	2.618	2.612	2.504	2.519	2.261	2.266	2.234	2.002	2.032	1.753	1.715	1.565	1.436	1.418	1.225	1.301	1.167	1.115	1.068	1.193	1.096	1.092	1.012	1.063	0.960	0.961	0.849	0.786	0.829	0.744	0.755	0.721	0.837	0.707	0.830	0.736	0.755	0.763	0.803	0.789	0.680	0.620	0.610	0.663	0.557	0.529	0.564	0.454	0.484	0.414	0.363	0.280	0.338	0.300
640.0	25.17	26.59	20.11	13.97	11.51	13.31	13.64	17.77	21.87	27.00	34.50	39.73	39.18	39.37	34.35	21.80	17.89	13.02	13.33	89.47	353.1	41.77	2.447	2.302	2.274	2.229	2.122	2.084	2.004	1.912	1.744	1.678	1.545	1.547	1.296	1.204	1.152	1.205	1.158	1.040	0.907	0.896	1.031	0.929	0.913	0.909	0.837	0.820	0.778	0.733	0.725	0.720	0.570	0.625	0.671	0.675	0.669	0.736	0.609	0.620	0.636	0.627	0.679	0.554	0.541	0.531	0.586	0.567	0.563	0.468	0.437	0.407	0.451	0.430	0.283	0.306	0.258
645.0	28.03	28.89	21.14	16.62	11.65	11.89	12.57	15.75	20.69	26.06	33.41	39.13	39.75	37.81	34.93	23.54	17.72	12.17	7.926	31.75	265.6	170.1	2.999	2.157	2.009	1.929	1.874	1.745	1.614	1.625	1.639	1.350	1.300	1.237	1.097	1.117	1.089	1.018	1.013	0.826	0.882	0.795	0.895	0.728	0.744	0.794	0.691	0.722	0.689	0.674	0.643	0.573	0.557	0.572	0.591	0.545	0.600	0.609	0.556	0.509	0.468	0.635	0.615	0.510	0.432	0.512	0.450	0.509	0.440	0.398	0.422	0.379	0.413	0.330	0.294	0.309	0.271
650.0	27.28	28.21	21.28	17.05	11.97	10.34	12.33	14.60	19.08	25.69	33.53	37.97	38.78	36.48	33.90	24.74	17.56	12.32	7.161	11.68	131.7	279.8	18.84	2.096	2.042	1.610	1.780	1.792	1.569	1.593	1.439	1.228	1.248	1.135	1.065	1.045	0.988	0.871	0.854	0.824	0.825	0.726	0.776	0.647	0.688	0.734	0.601	0.574	0.642	0.587	0.562	0.532	0.606	0.546	0.430	0.495	0.513	0.524	0.459	0.494	0.456	0.577	0.586	0.521	0.431	0.483	0.470	0.498	0.446	0.405	0.395	0.361	0.358	0.338	0.328	0.348	0.284
