Sample:	'1
File name:	T2025031414Â³Ì©´óµÀ.FD3
Run date:	'11:16:22, 03/17/2025
Operator:	Administrator
Comment:	'

Instrument
Model:	F-2700 FL Spectrophotometer
Serial number:	23B8-004
ROM Version:	4J14000 07

Instrument parameters
Measurement type:	3-D scan
Data mode:	Fluorescence
EX  Start WL:	220.0 nm
EX  End WL:	600.0 nm
EX Sampling interval:	5.0 nm
EM  Start WL:	230.0 nm
EM  End WL:	650.0 nm
EM Sampling interval:	5.0 nm
Scan speed:	12000 nm/min
EX Slit:	5.0 nm
EM Slit:	5.0 nm
PMT Voltage:	700 V
Response:	Auto 
Corrected spectra:	Off
Contour interval:	50.000

Peak integration
Integration method:	Rectangular
Sensitivity:	1
Threshold:	1.000

Peaks
No.	ApexEX/EM(nm)	Height(Data)
1	225.0/595.0	32.74
2	225.0/615.0	39.94
3	225.0/640.0	46.99
4	230.0/580.0	32.91
5	230.0/630.0	42.50
6	235.0/345.0	2063
7	240.0/265.0	357.4
8	240.0/385.0	1999
9	240.0/400.0	1630
10	240.0/520.0	236.0
11	245.0/270.0	356.4
12	245.0/535.0	207.1
13	250.0/275.0	453.3
14	250.0/550.0	153.6
15	255.0/280.0	528.4
16	255.0/565.0	122.0
17	260.0/290.0	497.7
18	260.0/575.0	99.42
19	265.0/585.0	90.10
20	270.0/600.0	84.87
21	275.0/615.0	101.0
22	280.0/315.0	1525
23	280.0/385.0	2235
24	280.0/405.0	1888
25	280.0/625.0	93.71
26	285.0/320.0	1499
27	285.0/635.0	71.96
28	320.0/360.0	406.2
29	335.0/385.0	718.9
30	335.0/405.0	791.3
31	355.0/385.0	1035
32	355.0/405.0	1105
33	370.0/405.0	1047
34	430.0/505.0	23.43
35	445.0/525.0	14.81
36	475.0/345.0	6.590
37	475.0/565.0	3.793
38	485.0/385.0	7.688
39	490.0/380.0	7.416
40	495.0/270.0	2.159
41	505.0/275.0	2.861
42	515.0/280.0	3.076
43	520.0/285.0	3.765
44	530.0/290.0	3.305
45	545.0/385.0	7.893
46	555.0/305.0	7.551
47	560.0/310.0	7.815
48	570.0/385.0	11.99
49	575.0/315.0	8.408
50	580.0/320.0	8.439
51	585.0/325.0	8.500

Data points
	220.0	225.0	230.0	235.0	240.0	245.0	250.0	255.0	260.0	265.0	270.0	275.0	280.0	285.0	290.0	295.0	300.0	305.0	310.0	315.0	320.0	325.0	330.0	335.0	340.0	345.0	350.0	355.0	360.0	365.0	370.0	375.0	380.0	385.0	390.0	395.0	400.0	405.0	410.0	415.0	420.0	425.0	430.0	435.0	440.0	445.0	450.0	455.0	460.0	465.0	470.0	475.0	480.0	485.0	490.0	495.0	500.0	505.0	510.0	515.0	520.0	525.0	530.0	535.0	540.0	545.0	550.0	555.0	560.0	565.0	570.0	575.0	580.0	585.0	590.0	595.0	600.0
230.0	31.03	495.9	1372	487.4	23.16	5.186	3.904	3.592	2.865	2.827	2.706	2.800	2.323	2.064	1.601	1.417	1.188	1.102	0.962	0.911	0.759	0.758	0.721	0.692	0.584	0.638	0.600	0.637	0.593	0.558	0.523	0.505	0.450	0.379	0.344	0.361	0.297	0.265	0.291	0.275	0.253	0.296	0.302	0.253	0.258	0.218	0.577	2.252	4.485	3.778	1.668	0.418	0.203	0.197	0.187	0.194	0.178	0.189	0.178	0.183	0.203	0.199	0.177	0.193	0.187	0.170	0.190	0.192	0.167	0.196	0.192	0.194	0.190	0.201	0.203	0.184	0.202
235.0	57.19	156.3	945.2	1838	498.3	36.91	5.544	4.046	3.186	2.822	3.053	2.959	2.631	1.993	1.739	1.309	1.310	1.302	0.940	0.829	0.695	0.706	0.748	0.662	0.600	0.598	0.607	0.713	0.528	0.564	0.515	0.517	0.471	0.359	0.328	0.339	0.291	0.251	0.225	0.303	0.239	0.282	0.319	0.308	0.380	0.317	0.328	0.723	1.721	3.580	5.684	6.740	3.658	0.905	0.202	0.209	0.204	0.210	0.221	0.204	0.206	0.198	0.198	0.182	0.191	0.185	0.209	0.175	0.166	0.187	0.176	0.194	0.180	0.185	0.206	0.187	0.234
240.0	86.60	92.28	304.7	1641	2185	402.0	19.48	4.936	4.457	3.117	3.132	3.033	2.800	2.457	1.785	1.422	1.264	1.139	1.058	0.865	0.761	0.771	0.773	0.622	0.665	0.572	0.665	0.706	0.520	0.561	0.583	0.614	0.384	0.401	0.370	0.315	0.343	0.248	0.319	0.280	0.245	0.261	0.254	0.269	0.417	0.469	0.386	0.319	0.570	1.140	2.884	7.914	10.99	7.964	3.432	0.495	0.201	0.215	0.204	0.151	0.190	0.181	0.204	0.198	0.175	0.192	0.183	0.178	0.228	0.189	0.178	0.180	0.226	0.176	0.203	0.169	0.228
245.0	77.90	152.3	126.8	575.9	2399	2295	288.1	10.36	4.894	4.390	3.711	2.815	3.001	2.282	2.190	1.559	1.475	1.206	1.007	0.939	0.904	0.789	0.787	0.627	0.725	0.561	0.640	0.642	0.612	0.576	0.577	0.575	0.348	0.394	0.370	0.302	0.296	0.289	0.339	0.272	0.261	0.259	0.288	0.266	0.374	0.456	0.579	0.511	0.427	0.390	0.855	2.656	6.688	12.61	13.35	7.732	2.304	0.319	0.195	0.174	0.248	0.197	0.194	0.208	0.167	0.168	0.188	0.211	0.194	0.172	0.182	0.167	0.191	0.186	0.206	0.199	0.221
250.0	38.21	114.7	198.6	207.0	774.8	2285	2916	992.8	57.03	6.172	4.914	3.517	3.267	2.613	2.292	1.746	1.528	1.252	1.179	1.049	0.931	0.864	0.825	0.785	0.780	0.592	0.666	0.757	0.609	0.622	0.639	0.595	0.424	0.422	0.405	0.369	0.310	0.320	0.305	0.259	0.292	0.256	0.267	0.250	0.302	0.318	0.393	0.597	0.839	0.686	0.537	0.852	1.734	3.925	7.359	11.55	15.36	14.08	8.244	2.318	0.405	0.216	0.216	0.215	0.159	0.197	0.243	0.200	0.200	0.194	0.206	0.185	0.189	0.205	0.191	0.204	0.201
255.0	25.61	43.32	149.7	288.6	260.9	583.4	2249	4469	1382	56.92	6.091	5.208	4.167	3.593	2.930	1.659	1.643	1.455	1.327	1.042	0.959	0.937	0.801	0.776	0.824	0.759	0.723	0.693	0.639	0.579	0.574	0.629	0.477	0.488	0.415	0.316	0.338	0.335	0.297	0.291	0.324	0.275	0.314	0.236	0.257	0.264	0.255	0.321	0.508	0.609	1.127	1.187	0.851	1.134	1.913	2.859	5.107	12.18	23.51	24.42	12.07	2.672	0.309	0.314	0.199	0.219	0.228	0.200	0.225	0.187	0.210	0.253	0.181	0.215	0.229	0.194	0.216
260.0	28.51	23.18	62.43	254.8	306.4	183.9	673.4	3628	4937	255.1	24.80	6.415	4.798	4.004	2.672	2.156	1.778	1.535	1.319	1.145	1.093	0.935	0.803	0.751	0.736	0.676	0.757	0.671	0.720	0.666	0.535	0.648	0.467	0.406	0.426	0.323	0.331	0.339	0.282	0.335	0.336	0.348	0.347	0.269	0.266	0.293	0.278	0.249	0.338	0.320	0.731	1.383	1.576	1.171	0.754	0.872	1.396	3.207	9.079	20.85	30.26	23.73	9.678	1.441	0.259	0.282	0.213	0.226	0.234	0.216	0.207	0.252	0.249	0.194	0.240	0.209	0.220
265.0	25.24	20.44	28.54	122.3	357.4	227.9	190.1	1208	5126	4802	200.8	13.73	6.661	4.921	3.451	2.328	2.056	1.785	1.390	1.218	1.038	0.881	0.926	0.951	0.837	0.827	0.762	0.738	0.692	0.684	0.636	0.691	0.558	0.460	0.417	0.409	0.372	0.346	0.367	0.307	0.301	0.315	0.385	0.319	0.294	0.312	0.281	0.294	0.265	0.244	0.352	0.739	1.505	2.055	1.372	0.666	0.592	1.037	2.307	6.016	14.89	29.58	31.86	21.12	5.514	0.653	0.262	0.229	0.253	0.231	0.213	0.219	0.232	0.236	0.245	0.226	0.193
270.0	34.40	31.33	30.40	47.73	170.4	356.4	266.2	323.9	1604	4735	5813	783.6	50.19	7.278	4.940	3.276	2.493	2.072	1.685	1.329	1.242	1.096	1.097	0.948	0.936	0.812	0.882	0.792	0.706	0.675	0.686	0.596	0.544	0.482	0.478	0.456	0.412	0.325	0.366	0.293	0.309	0.333	0.342	0.335	0.307	0.309	0.269	0.300	0.260	0.220	0.266	0.355	0.636	1.070	1.635	2.159	1.724	1.089	0.897	1.631	3.641	8.156	15.15	25.89	28.33	30.38	14.57	5.420	0.668	0.310	0.251	0.225	0.247	0.252	0.237	0.249	0.235
275.0	61.16	59.51	50.02	41.71	63.62	165.1	453.3	310.1	402.2	1172	3984	8266	1113	53.12	6.898	4.498	3.430	2.285	2.030	1.687	1.535	1.199	1.045	1.002	1.080	0.883	0.917	0.815	0.816	0.755	0.699	0.596	0.612	0.647	0.534	0.542	0.498	0.414	0.384	0.299	0.375	0.328	0.378	0.327	0.345	0.396	0.360	0.313	0.371	0.306	0.269	0.305	0.424	0.496	0.662	0.958	1.910	2.861	2.100	1.193	1.136	2.117	3.811	6.177	8.036	18.67	39.37	49.99	23.09	5.573	0.563	0.288	0.297	0.291	0.239	0.244	0.238
280.0	90.58	91.06	85.06	57.57	51.69	74.82	282.2	528.4	245.3	319.0	1120	5902	8030	814.7	26.04	6.297	4.230	3.167	2.527	2.064	1.535	1.271	1.125	1.093	1.013	1.066	1.086	0.898	0.909	0.834	0.829	0.755	0.568	0.537	0.545	0.493	0.524	0.439	0.412	0.365	0.424	0.346	0.366	0.437	0.365	0.399	0.375	0.410	0.434	0.360	0.310	0.347	0.369	0.412	0.413	0.540	0.891	1.601	2.995	3.076	1.672	0.987	1.239	1.790	2.203	4.750	12.24	30.52	50.32	32.52	18.88	2.976	0.339	0.308	0.335	0.229	0.320
285.0	110.8	138.0	125.1	76.71	62.44	52.63	122.4	452.0	491.3	184.2	333.3	1754	7299	6848	119.9	12.16	6.142	3.567	2.885	2.141	1.753	1.437	1.297	1.349	1.047	1.008	1.099	0.990	0.963	0.866	0.863	0.759	0.749	0.640	0.601	0.623	0.551	0.442	0.456	0.419	0.418	0.355	0.436	0.458	0.509	0.478	0.509	0.513	0.530	0.481	0.391	0.439	0.411	0.428	0.346	0.400	0.494	0.755	1.489	2.961	3.765	2.421	1.107	0.907	0.990	1.660	3.258	7.894	18.48	35.39	54.55	29.65	13.31	1.261	0.345	0.292	0.345
290.0	142.6	185.0	185.8	118.6	79.36	70.75	88.65	206.6	497.7	474.3	239.4	527.2	2087	5470	6089	1683	34.69	5.470	3.998	2.782	2.231	1.852	1.653	1.509	1.238	1.127	1.128	1.046	0.966	0.921	0.829	0.793	0.787	0.730	0.629	0.608	0.612	0.488	0.484	0.464	0.442	0.450	0.477	0.498	0.515	0.543	0.609	0.726	0.681	0.634	0.522	0.568	0.501	0.478	0.432	0.502	0.472	0.639	0.840	1.239	2.109	2.928	3.305	2.592	1.615	1.156	1.529	2.524	4.875	9.166	18.85	27.93	39.23	37.22	19.83	9.904	1.786
295.0	191.4	243.2	244.0	176.3	125.0	117.2	128.2	169.8	280.5	617.9	707.5	386.1	653.7	1377	3354	7530	687.9	38.82	5.958	3.544	2.932	2.309	1.828	1.623	1.522	1.317	1.167	1.132	0.964	0.916	1.019	0.873	0.840	0.782	0.663	0.690	0.680	0.665	0.524	0.535	0.490	0.448	0.484	0.532	0.581	0.619	0.843	0.848	0.869	0.812	0.697	0.734	0.631	0.772	0.634	0.660	0.696	0.809	1.010	0.921	1.235	1.525	2.193	3.700	4.483	3.261	1.892	1.734	2.122	3.173	5.111	7.084	10.04	15.69	34.61	54.18	31.39
300.0	232.5	295.3	323.4	263.5	200.8	204.7	230.8	287.6	326.3	570.6	1037	765.8	523.4	570.1	1011	4715	5674	552.2	19.63	5.223	3.859	2.623	2.130	1.998	1.791	1.448	1.401	1.311	0.984	0.950	0.939	0.956	0.847	0.712	0.753	0.696	0.682	0.564	0.580	0.448	0.528	0.534	0.624	0.598	0.716	0.748	0.937	1.107	1.096	1.001	0.864	0.966	0.947	1.009	0.986	0.916	1.166	1.226	1.411	1.437	1.733	1.779	2.170	2.795	4.495	5.781	5.267	3.433	2.714	2.633	2.951	3.057	3.627	5.057	10.07	25.05	47.39
305.0	302.3	423.9	460.2	377.9	307.8	329.6	408.8	496.4	604.3	791.7	1132	1450	921.1	650.4	628.9	1531	5470	4842	77.83	10.22	4.813	3.208	2.618	2.344	1.777	1.459	1.413	1.335	1.179	1.063	0.967	1.032	0.959	0.870	0.843	0.723	0.733	0.652	0.669	0.505	0.619	0.622	0.684	0.701	0.813	1.033	1.124	1.387	1.469	1.324	1.162	1.414	1.295	1.236	1.378	1.376	1.740	2.078	2.352	2.438	2.767	2.973	3.420	3.796	4.258	5.321	7.102	7.551	5.849	4.305	3.785	3.395	3.404	3.856	4.474	7.722	15.80
310.0	368.7	564.3	619.0	519.2	434.7	463.2	573.0	684.0	792.0	974.5	1179	1475	1486	989.9	719.0	746.3	1773	4011	4615	1432	25.86	4.759	3.373	2.700	2.211	1.700	1.579	1.632	1.252	1.255	1.082	1.098	1.022	0.858	0.809	0.828	0.761	0.781	0.703	0.741	0.690	0.690	0.759	0.827	0.939	1.169	1.512	1.821	1.969	1.662	1.611	1.766	1.767	1.819	1.826	2.014	2.366	2.886	3.057	3.179	3.474	3.731	4.287	4.864	5.195	5.642	6.281	7.213	7.815	7.620	6.680	5.273	4.370	4.183	3.729	4.329	5.746
315.0	425.3	679.8	783.5	663.0	566.3	567.3	679.8	790.7	902.5	1073	1265	1424	1525	1462	929.8	655.6	797.8	1139	2427	5774	509.4	27.83	4.915	3.479	2.371	2.171	1.936	1.826	1.321	1.280	1.253	1.248	0.947	0.943	0.871	0.863	0.827	0.885	0.632	0.717	0.776	0.773	0.772	0.885	1.093	1.355	1.720	2.219	2.451	2.176	2.030	2.302	2.135	2.154	2.395	2.550	2.863	3.214	3.509	3.468	3.654	3.983	4.773	5.181	5.755	5.717	6.198	6.383	7.069	7.246	8.188	8.408	6.203	5.347	4.214	4.046	4.124
320.0	480.0	812.3	948.2	766.3	643.0	633.9	722.1	833.7	944.0	1115	1299	1461	1465	1499	1236	714.6	617.2	507.7	674.5	3384	5200	435.7	15.07	4.451	3.130	2.517	2.119	1.838	1.545	1.545	1.270	1.294	1.041	1.063	0.917	0.715	0.920	0.901	0.605	0.814	0.751	0.826	0.878	1.045	1.163	1.611	1.838	2.483	2.725	2.638	2.498	2.797	2.678	2.402	2.639	2.854	3.252	3.228	3.812	3.931	4.069	4.214	4.936	5.340	5.685	6.158	6.551	6.604	7.485	6.891	7.141	7.964	8.439	7.467	5.350	4.196	4.021
325.0	581.7	1023	1194	1021	767.7	680.0	759.2	849.8	943.0	1118	1304	1451	1452	1370	1356	876.7	591.8	385.4	262.8	939.6	4075	3748	60.79	8.140	4.172	2.902	2.438	2.005	1.629	1.526	1.375	1.309	1.124	1.086	0.929	0.826	0.783	0.800	0.710	0.881	0.829	0.885	0.879	1.105	1.327	1.967	2.288	3.061	3.406	3.399	3.074	3.280	2.866	2.703	2.688	2.831	3.128	3.438	3.604	3.838	4.418	4.249	4.851	5.481	5.747	5.931	6.499	6.859	7.237	7.285	6.898	6.852	7.296	8.500	6.910	5.371	4.366
330.0	686.9	1252	1649	1485	1074	806.9	765.1	859.8	937.9	1103	1282	1439	1443	1322	1203	1037	730.0	402.0	219.6	305.7	1132	3056	3729	1199	21.22	4.633	3.162	2.488	1.945	1.794	1.552	1.475	1.235	1.148	0.962	0.853	0.845	0.866	0.805	0.785	0.881	0.935	0.980	1.191	1.604	2.115	2.742	3.821	4.375	4.625	4.495	4.803	4.428	3.717	3.307	2.949	3.310	3.500	3.900	3.815	4.104	4.447	4.716	5.371	5.635	6.027	6.174	6.755	7.140	7.267	6.896	6.545	6.831	6.963	6.651	6.445	5.975
335.0	778.1	1428	1936	1918	1518	992.4	814.2	872.3	924.0	1064	1247	1404	1434	1322	1152	950.2	904.9	555.9	272.4	214.4	359.8	775.6	2072	4914	417.7	24.20	4.104	3.285	2.552	2.048	1.761	1.833	1.399	1.092	1.042	0.966	0.837	0.798	0.860	0.803	0.963	0.934	1.126	1.346	1.627	2.355	3.033	4.356	5.093	5.469	5.532	6.361	5.820	5.402	4.115	3.433	3.447	3.757	3.941	4.047	4.305	4.086	4.578	5.019	5.424	5.577	6.015	6.430	7.184	6.732	6.783	6.689	6.721	6.733	6.386	5.606	5.868
340.0	791.0	1464	2018	2059	1620	1066	819.3	852.4	896.4	1021	1182	1318	1358	1274	1101	876.5	817.0	683.1	332.0	212.0	203.0	265.6	577.8	3019	4416	367.9	12.10	4.151	3.336	2.428	2.081	1.882	1.317	1.263	1.033	0.948	1.002	0.807	0.859	0.845	1.014	0.956	1.076	1.196	1.668	2.303	3.014	4.608	5.354	5.909	5.875	6.534	6.349	5.483	4.489	3.572	3.545	3.527	3.710	3.841	4.166	4.137	4.382	5.036	5.207	5.415	5.631	5.968	6.399	6.722	6.572	6.436	6.045	6.286	5.902	5.469	5.083
345.0	771.3	1420	1984	2063	1628	1062	816.5	818.9	872.2	969.5	1106	1225	1263	1191	1030	828.5	689.0	653.9	452.3	232.5	179.4	163.1	205.7	850.9	3621	3162	52.63	6.128	3.665	2.718	2.307	2.068	1.468	1.324	1.253	1.068	1.012	0.837	0.907	0.793	0.935	0.973	1.059	1.152	1.653	2.340	3.059	4.527	5.138	5.791	5.683	6.590	6.207	5.497	4.551	3.692	3.575	3.329	3.654	3.708	3.908	4.205	4.359	4.846	4.819	5.347	5.435	5.765	6.031	6.264	6.203	5.937	5.995	5.816	5.301	5.110	4.879
350.0	723.9	1289	1862	1998	1643	1099	824.7	809.1	838.5	927.7	1038	1130	1152	1096	958.6	785.6	640.7	538.9	494.3	360.8	216.8	165.3	144.6	257.0	1006	2687	3151	986.6	18.43	3.774	2.987	2.344	1.776	1.418	1.175	1.116	0.894	0.912	0.841	0.765	0.934	0.869	1.066	1.155	1.546	2.186	2.780	3.979	5.048	5.162	5.553	6.577	6.301	5.738	4.555	3.752	3.463	3.458	3.668	3.523	3.657	4.007	4.177	4.457	4.681	5.000	5.016	5.097	5.405	5.669	5.783	5.668	5.702	5.411	5.028	4.812	4.690
355.0	618.8	1162	1674	1847	1609	1107	841.7	814.9	844.0	899.6	976.5	1038	1047	1005	896.6	745.1	615.8	499.2	415.9	434.4	324.8	196.1	151.2	144.3	274.4	647.5	1852	4081	384.8	20.34	4.378	3.490	2.206	1.658	1.262	1.156	1.018	0.905	0.932	0.848	0.854	0.848	0.954	0.959	1.338	2.064	2.591	3.573	4.599	4.792	5.088	6.177	6.225	5.646	4.595	4.113	3.703	3.623	3.568	3.694	3.741	4.108	4.167	4.492	4.288	4.470	4.764	4.749	5.092	5.267	5.416	5.134	5.349	4.927	4.828	4.775	4.553
360.0	563.9	1055	1510	1701	1488	1084	857.3	825.2	850.0	888.2	936.3	980.2	985.8	931.0	835.7	708.9	591.3	483.3	391.8	385.6	406.2	255.6	167.1	130.2	126.0	187.7	494.0	2724	3142	326.2	11.62	5.778	2.942	1.904	1.515	1.260	1.004	0.927	0.976	0.795	0.771	0.893	1.023	1.112	1.400	1.812	2.300	3.277	3.883	4.288	4.650	5.687	5.425	5.367	4.498	4.042	3.548	3.780	3.469	3.707	3.651	4.049	4.048	4.346	4.183	4.316	4.530	4.687	4.646	4.731	4.947	4.694	4.826	4.923	4.507	4.332	4.460
365.0	553.8	965.3	1385	1551	1426	1054	853.3	828.1	845.3	893.3	918.5	934.9	928.5	873.9	792.2	679.7	574.1	481.7	395.4	346.6	387.4	346.3	201.7	141.4	109.1	101.1	153.4	781.8	3247	2881	49.22	13.35	5.629	2.715	1.852	1.361	1.166	1.060	0.972	0.824	0.935	0.896	0.998	1.074	1.224	1.647	2.038	2.984	3.430	4.186	4.217	5.408	5.622	5.140	4.259	3.736	3.615	3.550	3.646	3.481	3.540	3.952	4.022	4.204	4.192	4.323	4.506	4.509	4.531	4.495	4.661	4.615	4.527	4.548	4.332	4.125	4.137
370.0	507.8	896.7	1278	1499	1427	1117	888.0	845.6	883.5	925.4	985.5	982.4	1049	922.6	754.1	654.6	569.7	486.1	414.8	363.3	354.1	378.6	331.1	232.3	173.7	154.6	187.4	326.3	1010	2694	3074	931.5	31.53	12.83	3.482	1.912	1.347	1.241	1.018	0.975	0.927	0.994	0.957	0.945	1.218	1.650	2.066	2.839	3.371	3.730	4.150	4.856	5.372	5.059	4.815	4.066	3.730	3.787	3.737	3.723	3.879	4.000	4.285	4.288	4.348	4.650	4.636	4.318	4.746	5.335	5.153	4.672	4.304	4.242	4.262	3.733	3.928
375.0	489.2	860.8	1326	1602	1695	1420	1007	922.0	991.5	1077	1292	1258	1472	1224	771.8	654.9	574.9	507.3	449.5	416.5	405.6	400.7	471.3	463.6	371.7	368.4	429.9	591.0	568.5	990.6	2461	4255	1201	42.09	8.456	3.349	2.186	1.791	1.208	0.985	1.025	0.887	1.107	1.025	1.255	1.700	2.088	2.840	3.402	3.914	4.430	5.637	6.009	6.489	6.267	4.760	4.205	4.113	4.063	3.813	4.371	4.519	4.884	4.809	5.332	6.236	5.979	5.374	6.396	8.339	8.364	5.917	4.833	4.426	4.222	3.778	4.026
380.0	508.6	869.9	1392	1753	1933	1643	1096	979.3	1071	1222	1551	1500	2017	1493	797.1	650.9	583.7	528.4	481.6	458.5	458.5	450.7	528.9	672.5	575.4	553.3	782.1	879.5	665.7	764.7	1458	3511	2912	292.9	17.29	4.768	2.762	2.063	1.502	1.238	1.121	1.107	1.128	1.075	1.342	1.635	2.053	2.891	3.421	4.015	4.780	5.951	6.459	7.266	7.416	5.847	4.808	4.505	4.356	4.244	4.821	4.726	5.194	5.445	6.627	7.541	6.694	6.073	7.708	10.59	11.07	7.054	4.811	4.568	4.064	3.883	4.106
385.0	500.4	870.7	1377	1743	1999	1745	1149	1012	1094	1273	1635	1583	2235	1605	795.5	643.3	576.0	535.9	498.0	483.3	495.5	486.2	554.2	718.9	708.8	665.7	933.4	1035	752.6	779.0	1262	1853	3184	2383	41.73	7.307	3.637	2.368	1.653	1.361	1.162	1.281	1.080	1.168	1.404	1.681	1.998	2.753	3.371	4.011	4.764	6.092	6.703	7.688	7.383	6.330	4.945	4.464	4.380	4.573	4.704	5.223	5.448	5.767	6.858	7.893	7.073	6.741	7.963	11.94	11.99	7.882	5.190	4.450	3.736	3.635	4.134
390.0	444.9	758.5	1205	1537	1726	1538	1081	968.0	1027	1149	1430	1384	1878	1399	758.2	621.7	565.7	525.6	494.8	486.1	496.6	485.6	528.8	623.7	643.6	656.2	818.1	872.1	634.8	636.9	961.0	1076	1119	2166	2260	633.1	14.20	3.423	2.097	1.600	1.253	1.089	1.204	1.188	1.339	1.536	1.953	2.675	2.934	3.561	4.155	5.424	6.008	6.697	6.413	5.538	4.666	4.422	4.339	4.282	4.439	4.957	5.054	5.147	5.945	6.891	6.265	5.862	6.642	9.684	10.18	6.583	4.800	4.241	3.821	3.827	3.607
395.0	419.5	718.9	1131	1430	1594	1466	1050	960.2	1005	1121	1377	1331	1767	1334	749.7	620.3	571.3	543.6	521.5	525.4	537.7	536.5	578.6	653.8	639.7	686.9	878.5	872.8	639.8	628.3	906.4	902.7	506.7	590.9	1478	2785	271.0	14.80	3.073	1.928	1.543	1.284	1.267	1.240	1.262	1.486	1.823	2.728	2.895	3.424	3.760	5.005	5.842	6.322	6.301	5.164	4.668	4.312	4.048	4.245	4.188	4.539	4.859	5.149	5.402	6.673	5.845	5.602	6.528	8.936	9.615	6.027	4.419	4.154	3.680	3.750	3.606
400.0	430.8	733.3	1112	1421	1630	1502	1093	989.4	1034	1149	1441	1393	1867	1398	773.1	643.6	589.9	561.3	555.8	564.8	590.8	603.2	654.9	738.3	720.8	747.5	1005	1022	732.9	715.7	1010	970.5	422.3	243.1	430.6	1972	2187	223.4	7.054	2.580	1.976	1.359	1.436	1.299	1.396	1.560	2.029	2.398	2.997	3.469	3.799	4.752	5.927	6.383	6.340	5.337	4.962	4.463	4.357	4.243	4.168	4.667	5.017	5.019	5.722	6.654	6.340	5.670	6.703	9.731	9.604	6.294	4.858	3.933	3.588	3.530	3.818
405.0	416.6	689.5	1093	1401	1625	1525	1106	1009	1040	1168	1449	1420	1888	1425	795.0	662.1	599.2	578.2	572.4	596.4	622.3	647.3	703.2	791.3	768.2	781.6	1028	1105	802.8	767.1	1047	1012	425.0	182.2	160.7	596.6	2146	1897	35.03	3.812	2.056	1.532	1.569	1.473	1.546	1.573	1.767	2.360	2.904	3.373	3.637	4.694	5.962	6.383	6.393	5.269	4.718	4.423	4.381	4.240	4.183	4.945	5.102	5.121	5.822	6.497	6.123	5.705	6.651	9.211	9.782	6.311	4.680	3.828	3.963	3.797	3.878
410.0	361.2	616.8	937.3	1209	1380	1329	1033	960.1	986.6	1082	1275	1258	1582	1238	766.2	642.6	590.0	564.4	560.1	577.1	603.9	624.3	668.2	734.5	715.0	711.0	860.1	923.6	738.0	672.7	848.0	803.2	361.6	166.9	109.4	182.3	626.0	1616	1757	500.4	10.87	2.013	1.730	1.471	1.425	1.514	1.701	2.266	2.635	2.956	3.494	4.190	4.906	5.409	5.531	4.462	4.581	4.277	3.928	4.019	4.061	4.464	4.450	4.791	5.225	5.715	5.506	5.071	5.879	7.780	7.942	5.575	4.375	3.827	3.732	3.594	3.791
415.0	322.2	564.9	823.9	1020	1175	1132	953.9	906.3	914.3	973.7	1096	1082	1280	1037	709.9	599.8	560.6	533.7	531.1	540.3	563.9	584.2	613.6	655.2	634.1	624.6	702.4	715.2	620.1	587.9	658.2	599.0	296.4	153.7	100.2	91.65	171.2	391.2	1085	2071	244.9	11.54	2.169	1.537	1.457	1.406	1.700	2.088	2.437	2.593	3.050	3.580	4.085	4.480	4.567	4.098	3.910	3.944	3.831	3.719	3.723	4.105	4.069	4.355	4.545	5.195	4.790	4.356	4.815	6.043	6.135	4.694	3.925	3.631	3.446	3.644	3.362
420.0	320.3	548.7	779.5	939.7	1074	1050	908.0	881.4	872.0	912.0	1027	1012	1153	953.7	675.2	579.6	538.6	517.1	515.3	526.0	550.7	562.7	590.4	625.6	604.3	590.0	644.2	646.9	548.7	553.5	607.8	533.1	273.4	150.5	99.78	72.82	72.29	105.8	287.4	1397	1825	202.7	5.019	1.772	1.617	1.436	1.667	1.895	2.228	2.437	2.707	3.612	3.765	4.293	4.140	3.947	3.811	4.000	3.651	3.722	3.888	3.849	3.866	4.095	3.981	4.636	4.429	4.075	4.519	5.585	5.606	4.298	3.726	3.379	3.142	3.435	3.572
425.0	308.6	488.9	736.0	910.7	1032	1033	905.1	871.1	856.1	886.9	979.1	964.2	1097	902.9	651.9	567.9	524.4	502.1	502.5	514.1	537.3	555.7	581.8	613.0	593.0	577.3	627.0	624.5	521.8	517.2	609.0	520.2	267.7	154.3	103.6	72.29	51.13	44.73	76.34	395.8	1579	1517	32.55	3.085	1.825	1.683	1.696	1.990	2.245	2.237	2.586	3.556	3.637	3.894	3.820	3.907	3.829	3.955	3.628	3.740	3.770	3.552	3.795	3.882	3.890	4.360	4.294	4.220	4.013	5.195	5.323	4.115	3.731	3.188	3.105	3.221	3.257
430.0	308.6	464.8	687.2	840.8	969.8	988.1	899.2	867.4	845.4	853.8	925.3	896.1	1002	838.7	623.0	550.4	507.1	489.8	489.4	499.1	518.4	535.3	557.9	583.9	564.7	551.3	585.4	574.5	487.1	468.3	540.6	494.1	271.5	160.0	111.6	79.99	53.36	34.31	31.45	97.98	433.6	1171	1373	439.9	10.72	2.062	1.845	1.973	2.223	2.242	2.527	3.155	3.441	3.772	3.923	3.815	3.788	3.749	3.898	3.799	3.723	3.402	3.789	3.705	3.694	4.153	3.792	3.738	3.939	4.565	4.716	3.964	3.420	3.154	3.057	3.092	3.167
435.0	380.7	435.1	627.5	766.4	899.9	937.0	895.5	863.6	836.3	810.4	852.8	817.5	865.5	748.6	594.6	533.3	485.2	467.7	468.3	473.9	484.8	492.6	517.2	534.3	518.2	503.2	523.4	507.7	439.1	412.6	439.9	414.2	276.7	170.4	118.5	85.85	58.55	36.76	24.61	33.08	104.4	274.1	783.4	1719	234.4	13.31	2.056	1.995	2.236	2.176	2.331	2.955	3.154	3.758	3.559	3.602	3.571	3.859	3.902	3.567	3.649	3.509	3.585	3.451	3.426	3.625	3.558	3.238	3.605	3.933	4.034	3.350	3.075	3.202	2.822	2.854	3.051
440.0	475.3	446.1	579.4	722.6	846.4	906.1	891.0	863.5	822.2	783.8	788.6	769.2	786.1	682.6	563.1	508.2	468.3	445.6	443.8	447.8	449.1	460.8	475.3	489.6	478.2	465.5	469.6	456.9	408.7	376.5	384.6	349.5	262.9	185.1	122.8	89.20	61.45	38.91	24.71	20.34	32.51	68.23	200.8	1086	1625	204.1	6.875	2.250	2.170	2.088	2.265	2.977	3.109	3.462	3.490	3.423	3.758	3.936	3.852	3.662	3.762	3.444	3.401	3.473	3.502	3.202	3.145	3.164	3.387	3.626	3.572	3.165	3.004	3.059	2.885	3.000	2.972
445.0	517.5	529.6	565.1	701.9	803.3	878.8	885.3	851.7	809.3	750.7	737.4	720.6	718.0	629.0	533.3	476.4	444.7	423.8	419.8	420.1	421.7	426.7	437.1	446.8	438.4	427.0	427.0	416.3	375.6	348.0	347.0	310.4	233.6	190.6	130.6	90.40	62.61	40.87	26.53	19.47	17.63	23.14	50.92	296.1	1280	1443	149.0	4.167	2.413	2.152	2.247	2.993	2.772	3.378	3.268	3.268	3.722	3.910	3.914	3.842	3.638	3.564	3.361	3.359	3.347	2.851	3.077	3.091	2.968	3.297	3.315	2.959	2.916	2.856	2.643	2.979	2.812
450.0	404.3	788.8	595.3	665.4	763.1	831.7	859.1	835.7	779.4	705.3	680.5	655.7	648.9	572.4	484.3	440.7	408.8	391.0	385.6	382.7	381.2	383.3	391.3	402.2	391.2	382.5	382.5	371.1	338.3	316.8	312.9	276.4	203.0	169.8	142.3	97.65	63.18	42.55	29.10	20.84	15.96	14.59	18.34	71.75	340.0	986.4	1262	443.3	10.91	2.356	2.254	2.949	2.857	3.186	3.323	3.392	3.670	3.780	3.760	3.721	3.612	3.377	3.206	3.258	3.157	2.979	3.012	2.848	2.620	2.969	2.984	2.785	2.709	2.589	2.313	2.638	2.495
455.0	255.0	881.9	897.0	627.3	704.7	782.7	813.3	790.1	724.2	644.4	618.3	586.5	576.5	508.1	438.4	403.8	374.0	360.2	352.7	346.5	340.2	342.5	347.6	353.4	348.8	336.2	335.1	328.5	302.1	282.1	274.0	245.1	183.3	146.6	130.5	108.6	69.92	44.75	30.72	23.72	17.44	13.80	12.08	22.52	80.77	227.3	563.9	1385	201.1	13.45	2.539	2.767	2.789	2.948	3.164	3.125	3.506	3.505	3.476	3.384	3.312	3.150	2.801	2.780	2.807	2.561	2.702	2.650	2.411	2.632	2.762	2.551	2.365	2.469	2.490	2.409	2.351
460.0	222.5	680.0	1250	658.8	658.9	746.1	791.5	767.3	679.8	595.4	569.5	541.1	523.6	463.4	402.7	371.0	343.1	330.3	325.2	320.2	308.2	305.3	312.0	318.2	312.5	303.8	301.8	291.2	273.3	259.3	247.9	219.3	169.4	133.9	114.7	106.5	80.01	47.58	32.66	24.18	18.63	14.52	11.59	11.98	23.27	55.39	137.7	731.7	1276	170.5	9.653	3.034	2.818	2.870	3.169	3.195	3.601	3.285	3.317	3.249	3.210	3.063	2.849	2.349	2.441	2.555	2.576	2.333	2.244	2.435	2.337	2.408	2.074	2.248	2.370	2.417	2.116
465.0	210.5	427.6	1435	867.7	615.1	703.6	744.8	719.5	630.4	559.8	518.1	492.6	472.8	429.3	372.1	339.5	318.5	306.8	295.3	291.7	281.2	276.3	278.2	286.7	280.2	276.0	272.3	264.0	248.3	235.6	227.3	195.3	156.1	124.8	104.0	93.56	83.31	54.35	33.76	24.84	19.65	15.26	11.93	10.16	11.47	17.26	35.24	186.7	867.1	1126	145.9	6.464	2.974	2.731	2.962	3.161	3.293	3.249	3.220	3.156	3.044	2.642	2.618	2.452	2.491	2.234	2.316	2.131	2.092	2.293	2.301	2.095	2.061	2.057	2.184	2.149	1.997
470.0	183.7	301.6	953.6	1574	713.0	632.5	666.0	649.2	569.9	500.4	456.4	436.4	410.9	369.5	330.0	297.9	278.0	268.5	258.2	252.8	239.5	236.7	239.9	242.7	239.8	236.5	232.0	227.8	216.0	204.7	196.0	171.0	138.5	113.4	93.67	78.03	70.82	59.75	39.10	25.83	20.25	15.80	12.84	10.50	9.352	9.434	12.54	45.97	219.5	638.7	861.6	396.7	13.16	2.888	2.786	2.776	3.085	2.912	2.831	2.803	2.774	2.618	2.390	2.347	2.173	2.063	2.037	1.955	1.972	1.972	1.979	1.974	1.897	1.783	1.821	1.748	1.955
475.0	183.8	244.3	472.5	1580	1282	575.5	581.9	575.6	509.7	445.9	403.4	384.1	356.8	316.3	284.4	259.9	241.2	229.2	223.5	215.5	202.4	201.1	199.7	202.2	200.4	199.6	196.2	191.2	183.1	177.2	164.5	148.4	120.4	100.6	83.40	68.41	57.05	52.51	46.80	30.90	20.67	16.30	13.34	10.93	9.695	8.319	7.676	14.53	52.58	146.1	303.6	850.2	528.4	18.45	2.779	2.764	2.929	2.526	2.671	2.646	2.414	2.286	2.128	2.032	1.976	1.973	1.858	1.829	1.673	1.793	1.645	1.836	1.616	1.584	1.630	1.659	1.766
480.0	164.0	220.6	322.1	1028	1837	668.6	538.5	517.2	458.2	402.7	370.6	347.7	318.5	286.4	256.0	235.2	218.9	209.5	202.1	192.4	182.4	175.3	177.3	179.5	177.6	173.7	169.9	168.6	162.3	156.2	146.8	132.9	109.4	91.93	77.13	62.19	52.27	43.21	45.72	37.24	22.33	16.99	13.88	11.45	9.863	8.503	7.047	8.012	15.63	35.83	72.57	358.9	963.7	206.2	13.46	2.840	2.837	2.483	2.683	2.687	2.297	2.357	1.975	1.914	1.864	1.723	1.768	1.700	1.593	1.683	1.585	1.701	1.522	1.575	1.450	1.547	1.536
485.0	144.2	236.2	277.7	588.7	1917	1025	513.9	495.8	435.2	365.1	334.9	317.4	289.8	263.6	236.6	216.8	201.0	188.4	182.5	176.4	163.3	158.8	157.9	161.2	159.9	157.2	154.0	152.9	147.8	143.2	135.5	121.3	102.0	85.71	70.84	59.49	48.67	39.75	39.29	39.08	26.97	17.58	13.78	12.14	10.25	8.741	7.133	6.423	7.613	11.35	19.27	88.20	512.9	878.3	177.2	8.453	2.635	2.453	2.552	2.433	2.076	2.244	1.886	1.661	1.726	1.429	1.775	1.580	1.587	1.514	1.451	1.488	1.484	1.403	1.323	1.393	1.278
490.0	118.2	244.4	266.1	369.4	1185	1731	639.1	432.6	382.8	330.9	303.2	287.6	260.0	235.5	210.6	191.1	177.6	168.4	160.1	155.6	143.7	138.6	139.3	140.6	139.5	136.9	136.3	134.0	131.6	126.4	120.9	107.3	91.00	77.64	65.70	54.21	44.96	36.97	32.80	32.86	31.78	22.11	15.13	12.55	10.49	8.985	7.667	6.640	5.995	6.189	7.459	22.63	124.9	407.8	720.4	439.6	16.05	2.734	2.427	2.244	2.044	1.971	1.712	1.645	1.580	1.454	1.540	1.355	1.338	1.399	1.330	1.331	1.244	1.229	1.469	1.275	1.295
495.0	100.1	212.6	255.7	290.8	541.3	1720	1229	401.8	344.7	292.1	271.5	250.9	232.6	207.5	184.0	166.0	155.1	146.4	140.4	133.3	124.6	119.2	118.8	120.5	119.7	119.1	117.1	115.7	113.1	111.3	106.9	93.96	80.03	69.74	58.91	50.37	41.83	34.29	28.62	26.18	28.40	27.01	18.60	13.02	10.87	9.330	8.229	7.058	6.226	5.294	4.811	8.013	30.56	93.75	242.0	746.5	594.1	22.51	2.472	2.145	2.068	1.791	1.605	1.476	1.456	1.444	1.383	1.291	1.275	1.134	1.268	1.168	1.300	1.209	1.197	1.149	1.129
500.0	95.79	172.7	257.9	263.2	334.1	1104	1827	484.3	308.1	265.5	245.5	227.8	205.7	186.1	164.0	148.8	140.1	130.2	126.0	118.9	110.2	104.1	105.9	106.2	105.7	104.8	102.2	101.3	101.0	98.69	94.85	85.29	71.60	63.91	53.59	45.99	38.47	31.73	26.52	23.07	23.39	26.57	22.11	14.46	11.10	9.477	8.469	7.236	6.437	5.158	4.485	4.915	9.532	23.38	57.40	287.4	862.0	229.9	16.44	2.036	1.990	1.668	1.409	1.316	1.261	1.194	1.220	1.110	1.178	1.059	1.099	1.024	1.174	1.107	1.217	1.014	0.987
505.0	93.68	139.8	248.2	251.1	269.0	563.7	1926	835.3	274.9	241.1	223.9	209.3	185.7	168.1	147.6	130.8	123.5	115.0	111.2	104.6	97.49	92.88	93.61	94.65	94.87	91.97	90.45	90.78	89.69	88.77	84.35	76.04	65.97	57.18	49.82	42.86	35.65	29.75	25.44	21.62	19.94	22.51	23.43	16.68	11.51	9.700	8.479	7.176	6.146	5.525	4.577	4.188	4.833	7.678	15.47	69.04	383.3	789.0	205.4	10.04	1.897	1.567	1.443	1.272	1.181	1.083	1.200	1.061	1.117	1.027	1.032	1.040	1.003	0.963	0.945	0.973	0.849
510.0	71.81	113.9	194.7	257.0	228.9	321.0	1147	1618	385.3	211.2	195.1	179.4	163.6	144.8	127.1	114.7	106.3	98.64	93.47	90.11	83.63	79.89	79.13	78.84	79.85	79.02	77.10	77.65	75.60	75.29	71.80	65.23	57.41	49.98	44.42	37.04	32.32	26.76	23.11	19.85	17.93	17.42	19.59	19.05	13.83	9.920	8.319	7.211	5.924	5.509	4.693	4.131	3.763	4.295	5.770	17.62	91.06	321.8	572.8	373.7	16.31	1.929	1.441	1.286	1.076	1.033	1.096	0.986	0.968	0.899	0.987	0.926	0.922	0.821	0.871	0.905	0.827
515.0	60.24	94.03	150.2	238.8	224.8	227.9	460.0	1697	978.1	194.3	169.7	152.8	138.8	122.2	108.4	97.86	89.74	83.27	79.91	75.71	69.37	64.81	66.17	66.17	66.43	65.24	64.57	64.11	63.36	62.68	59.54	55.39	49.43	43.54	38.21	33.07	28.45	24.12	20.87	18.08	16.13	15.10	15.05	16.84	16.69	11.17	8.270	7.017	5.835	5.262	4.620	4.434	3.522	3.312	3.627	6.212	22.20	73.66	168.5	530.9	471.1	22.76	1.514	1.286	1.037	0.989	1.065	0.902	0.852	0.834	0.871	0.868	0.787	0.775	0.842	0.771	0.764
520.0	61.12	93.19	125.3	195.2	236.0	192.8	251.6	1092	1675	257.7	152.7	138.5	123.9	108.8	97.70	85.60	78.19	73.14	68.75	67.26	61.06	56.62	58.35	58.01	57.10	57.33	56.48	56.82	56.08	54.74	53.25	49.26	43.43	39.00	33.84	29.36	25.48	21.76	19.08	16.50	15.20	13.66	12.46	13.61	16.67	13.59	8.678	6.895	5.854	5.250	4.496	4.254	3.927	3.399	3.101	3.347	6.828	18.09	39.63	189.8	603.2	228.9	15.72	1.404	0.984	0.923	1.028	0.873	0.808	0.734	0.898	0.827	0.764	0.658	0.729	0.702	0.760
525.0	55.52	75.46	114.6	156.9	235.8	174.3	184.5	511.8	1953	626.0	138.2	121.4	108.3	96.14	87.26	75.81	69.72	65.62	62.37	58.50	54.34	51.85	50.97	51.66	50.67	50.20	49.85	49.85	49.56	49.15	47.62	43.49	38.27	33.98	30.41	26.30	23.69	20.08	17.82	15.58	13.97	12.61	11.45	10.85	13.82	14.81	10.19	6.729	5.504	4.890	4.191	3.839	4.048	3.468	2.907	2.729	3.416	5.699	10.38	45.29	255.0	564.2	191.6	8.292	1.095	1.103	0.921	0.850	0.790	0.729	0.713	0.781	0.704	0.567	0.592	0.773	0.649
530.0	44.19	65.71	97.24	120.6	201.5	185.0	153.9	230.6	1180	1544	199.4	107.3	93.97	83.78	74.93	64.89	60.76	56.78	52.81	49.44	46.67	43.51	42.98	43.02	43.07	42.62	41.89	42.19	41.90	41.67	40.51	36.82	32.74	29.75	26.41	23.42	20.82	17.72	16.01	14.12	12.39	11.11	10.39	9.591	10.23	12.68	11.51	8.224	5.551	4.718	4.115	3.730	3.507	3.337	3.094	2.495	2.510	2.864	3.765	11.57	60.15	220.8	407.9	279.9	15.20	1.256	0.891	0.755	0.713	0.719	0.617	0.671	0.583	0.617	0.626	0.661	0.592
535.0	37.10	53.82	77.45	88.45	143.7	207.1	131.8	145.6	398.4	1747	824.2	98.17	80.59	72.16	62.96	56.66	51.34	45.39	43.92	41.08	38.49	36.94	36.43	36.28	35.12	35.83	34.60	35.65	35.52	35.10	33.68	31.66	28.18	25.62	22.82	19.91	17.70	15.13	14.00	12.66	11.18	10.08	9.278	8.547	8.063	8.999	10.12	9.894	6.251	4.363	3.781	3.364	3.191	2.823	3.159	2.728	2.434	2.127	2.165	3.971	14.66	50.22	115.0	367.1	238.5	21.03	1.002	0.797	0.745	0.718	0.563	0.573	0.510	0.604	0.543	0.649	0.520
540.0	38.65	53.64	67.10	76.19	111.1	188.5	131.3	112.3	166.9	1067	1590	155.2	69.62	61.88	54.50	47.78	43.94	41.05	38.14	36.10	32.43	32.18	31.76	31.21	30.65	30.78	30.00	30.63	29.92	29.92	28.54	26.59	24.93	22.12	19.89	17.45	15.51	13.98	12.33	11.38	10.19	9.204	8.347	7.429	7.042	6.920	8.134	9.550	7.205	4.508	3.566	3.216	2.892	2.639	2.605	2.814	2.422	1.930	1.791	2.006	4.515	12.07	26.90	126.2	391.5	213.8	14.02	0.848	0.779	0.617	0.570	0.563	0.496	0.539	0.527	0.479	0.580
545.0	38.27	52.06	60.94	70.04	89.49	154.5	150.8	94.18	102.7	425.0	1913	432.5	63.24	54.23	46.21	42.44	39.87	35.82	32.05	30.20	28.64	27.43	27.10	26.49	26.11	26.66	26.45	26.80	26.39	25.70	24.93	23.15	21.65	19.28	17.57	15.02	13.55	12.67	10.97	9.978	9.090	8.204	7.256	6.786	6.406	6.084	6.159	8.291	7.751	5.201	3.623	2.853	2.766	2.442	2.292	2.445	2.477	1.815	1.649	1.645	1.971	3.496	6.957	29.68	163.4	398.0	163.4	5.872	0.754	0.641	0.568	0.596	0.487	0.522	0.540	0.534	0.504
550.0	33.68	43.54	54.34	58.41	70.86	102.4	153.6	94.16	75.73	153.3	1082	1292	110.1	45.20	39.70	33.83	32.80	28.94	26.74	25.30	23.22	22.66	21.97	21.77	21.29	22.04	21.60	21.74	22.04	21.64	20.71	19.19	17.13	15.64	14.19	12.60	11.34	10.58	9.398	8.372	7.741	7.082	6.523	6.112	5.447	4.984	4.747	5.741	6.473	6.028	4.109	2.786	2.500	2.091	1.966	2.025	2.171	1.956	1.697	1.389	1.334	1.633	2.363	7.459	38.26	148.5	279.3	136.8	14.34	0.866	0.581	0.511	0.539	0.455	0.453	0.463	0.422
555.0	33.29	36.73	46.12	50.04	54.62	65.46	121.8	110.7	63.12	76.54	319.1	1536	537.0	38.16	32.40	28.29	26.57	23.90	21.04	20.61	19.15	17.58	17.39	17.77	16.81	17.15	17.22	17.02	16.39	17.24	16.41	15.43	13.64	12.26	11.64	10.18	9.268	8.674	8.004	6.791	6.596	5.601	5.514	4.970	4.681	4.167	3.988	3.920	4.356	5.342	4.539	2.865	2.165	1.902	1.780	1.752	1.548	1.785	2.010	1.356	1.151	1.114	1.198	2.315	9.243	33.76	76.72	225.4	213.3	18.74	0.618	0.583	0.451	0.397	0.401	0.380	0.404
560.0	34.26	33.92	40.39	41.93	46.76	48.80	84.95	121.6	59.51	56.57	111.3	921.1	1189	71.09	26.34	24.03	21.92	19.26	17.85	17.03	16.42	15.18	15.61	14.31	14.29	14.68	14.26	14.18	14.53	14.45	13.55	12.81	11.41	10.45	9.851	8.665	7.904	7.082	6.852	5.833	5.607	4.674	4.562	4.430	3.973	3.831	3.494	3.204	3.174	4.149	4.401	3.401	2.027	1.756	1.624	1.570	1.501	1.388	1.699	1.470	1.062	0.964	0.864	1.194	2.730	8.204	17.86	77.56	261.4	161.3	10.02	0.620	0.474	0.407	0.434	0.351	0.377
565.0	29.82	32.39	38.47	37.12	39.77	42.82	55.36	122.0	67.57	46.44	57.62	340.1	1543	150.0	24.78	20.20	18.75	16.59	15.86	14.47	13.62	12.73	12.79	12.26	12.18	12.17	12.05	12.03	12.65	12.03	11.54	10.43	9.934	9.222	8.553	7.682	6.610	5.883	5.548	5.353	4.982	4.187	3.997	3.759	3.568	3.346	3.210	2.796	2.703	2.978	3.793	3.793	2.207	1.565	1.369	1.355	1.203	1.160	1.348	1.562	1.040	0.824	0.829	0.778	1.215	2.366	4.503	18.39	102.4	255.5	104.4	3.648	0.519	0.407	0.409	0.348	0.375
570.0	29.52	33.44	36.16	34.88	32.83	35.49	41.93	86.38	92.09	43.31	43.46	107.7	899.8	896.3	56.03	17.16	15.11	13.91	12.89	12.01	10.83	10.22	10.14	9.897	9.696	9.662	9.787	9.759	10.12	9.596	9.358	8.594	8.277	7.366	7.169	6.100	5.566	4.876	4.530	4.313	3.923	3.614	3.293	3.083	2.934	2.635	2.644	2.340	2.240	2.176	2.483	3.234	2.718	1.624	1.301	1.098	1.034	1.061	1.052	1.253	1.290	1.026	0.732	0.765	0.816	1.011	1.532	4.662	24.04	95.78	174.9	101.3	11.80	0.548	0.455	0.331	0.376
575.0	29.41	32.86	30.83	35.76	26.21	28.25	30.62	48.87	99.42	54.71	37.78	48.21	253.3	1172	326.7	14.46	12.71	11.35	10.54	9.943	8.595	8.446	7.996	7.867	8.057	7.463	7.698	7.286	7.562	7.697	7.500	6.871	6.554	5.716	5.384	4.781	4.289	3.859	3.627	3.419	3.010	2.949	2.752	2.563	2.388	2.239	2.122	1.887	1.744	1.645	1.674	2.177	2.642	1.995	1.155	1.014	0.895	0.990	0.957	0.852	1.058	1.300	0.943	0.616	0.789	0.788	0.824	1.489	5.831	21.82	48.31	145.9	135.7	14.11	0.527	0.359	0.372
580.0	32.46	30.65	32.91	31.13	25.55	26.93	26.39	37.89	89.49	71.98	36.77	33.87	80.18	717.1	805.3	27.87	10.71	9.708	8.083	7.989	7.723	7.398	6.852	6.524	6.837	6.211	6.472	6.506	6.240	6.029	6.556	5.853	5.440	5.225	4.616	3.938	3.696	3.610	3.011	3.049	2.611	2.613	2.484	2.180	2.199	2.012	1.943	1.784	1.475	1.327	1.488	1.489	2.061	2.156	1.531	0.951	0.885	0.883	0.809	0.746	0.798	1.080	1.247	0.774	0.624	0.711	0.604	0.784	1.817	5.273	11.29	51.43	169.3	102.0	6.312	0.348	0.330
585.0	29.45	32.23	31.72	29.14	23.55	23.54	22.65	28.60	60.10	90.10	38.81	32.11	39.53	257.7	1063	93.19	10.12	8.302	7.858	6.592	6.598	6.067	6.187	5.724	5.507	5.378	5.191	5.617	5.289	5.620	5.463	5.375	4.741	4.353	3.952	3.627	3.022	3.000	2.654	2.585	2.247	2.330	1.969	2.186	1.842	1.798	1.618	1.469	1.448	1.226	1.206	1.150	1.522	1.947	1.704	1.219	0.861	0.829	0.681	0.761	0.786	0.756	1.131	0.933	0.700	0.653	0.508	0.644	0.863	1.591	2.920	12.17	68.66	165.4	33.30	2.345	0.323
590.0	31.85	32.37	31.55	25.89	21.93	20.81	21.74	25.69	38.70	85.86	53.74	31.19	29.24	76.83	625.5	547.6	24.28	7.203	6.472	5.954	5.130	4.803	5.202	4.582	4.668	4.606	4.419	4.494	4.323	4.537	4.420	4.509	3.828	3.577	3.093	3.013	2.746	2.617	2.263	2.140	1.870	1.961	1.867	1.748	1.540	1.519	1.412	1.332	1.260	1.095	0.939	0.973	1.027	1.282	1.650	1.379	0.925	0.724	0.658	0.641	0.668	0.671	0.732	0.904	0.816	0.617	0.546	0.544	0.567	0.700	1.029	3.128	16.09	62.57	106.6	71.69	10.04
595.0	24.84	32.74	26.82	25.06	22.33	19.89	21.57	23.87	28.08	59.69	77.93	32.98	27.67	32.30	172.9	738.2	93.24	6.433	5.632	4.577	4.059	3.493	3.905	3.885	3.994	3.629	3.559	3.621	3.686	3.556	3.624	3.481	3.079	2.861	2.554	2.343	2.380	2.121	1.853	1.817	1.521	1.571	1.457	1.388	1.418	1.232	1.233	1.038	1.053	0.930	0.839	0.851	0.789	0.865	1.126	1.375	1.123	0.794	0.585	0.578	0.566	0.614	0.535	0.706	0.852	0.725	0.496	0.467	0.483	0.427	0.546	0.997	3.820	14.20	29.82	97.21	93.61
600.0	26.34	31.68	32.81	23.44	22.96	19.66	23.65	25.64	27.35	43.46	84.87	42.10	30.32	23.89	52.71	474.7	444.5	13.30	4.706	4.005	3.619	3.559	3.379	3.442	3.425	2.913	3.012	3.331	3.095	3.098	3.128	2.701	2.532	2.462	2.344	2.077	1.992	1.738	1.571	1.476	1.372	1.371	1.234	1.112	1.186	1.104	1.062	0.981	0.874	0.849	0.750	0.713	0.621	0.628	0.838	1.154	1.156	0.786	0.580	0.541	0.507	0.574	0.541	0.572	0.732	0.783	0.697	0.465	0.428	0.468	0.452	0.539	1.139	3.489	7.016	33.01	113.2
605.0	29.22	31.06	30.77	26.41	23.48	23.91	27.15	26.36	33.13	41.96	80.94	65.09	36.43	26.99	28.29	179.1	646.7	59.01	4.197	3.735	3.453	3.085	3.181	2.873	2.683	2.834	2.881	2.993	2.571	2.565	2.571	2.495	2.272	2.029	1.832	1.907	1.746	1.365	1.394	1.343	1.146	1.188	1.040	0.936	1.088	0.925	0.928	0.761	0.757	0.686	0.647	0.670	0.540	0.596	0.579	0.892	1.157	0.966	0.605	0.548	0.522	0.511	0.500	0.545	0.593	0.731	0.816	0.520	0.548	0.507	0.455	0.429	0.568	1.057	1.854	7.883	46.28
610.0	31.15	33.97	36.55	28.72	26.33	28.51	33.36	35.94	43.17	52.77	74.86	95.54	56.42	38.74	32.44	61.49	420.4	342.3	12.44	3.420	2.967	2.714	2.548	2.383	2.359	2.200	2.305	2.385	2.219	2.196	2.174	2.009	1.871	1.703	1.539	1.552	1.386	1.215	1.081	1.066	0.920	0.936	0.866	0.792	0.881	0.819	0.740	0.724	0.675	0.629	0.544	0.533	0.554	0.495	0.522	0.632	0.865	1.080	0.792	0.553	0.525	0.528	0.514	0.554	0.533	0.634	0.806	0.812	0.557	0.539	0.506	0.465	0.479	0.582	0.702	2.109	10.99
615.0	28.45	39.94	37.84	34.35	28.14	28.74	35.19	41.11	46.22	56.99	67.51	101.0	76.63	44.91	37.42	36.32	132.0	498.5	70.16	3.348	2.822	2.249	2.251	2.115	1.861	2.049	1.730	1.700	1.818	1.797	1.793	1.564	1.565	1.371	1.367	1.220	1.164	1.108	1.075	0.897	0.740	0.871	0.643	0.718	0.669	0.700	0.656	0.627	0.647	0.543	0.463	0.497	0.448	0.451	0.463	0.542	0.598	0.868	0.833	0.633	0.540	0.470	0.518	0.584	0.478	0.646	0.641	0.829	0.711	0.556	0.514	0.480	0.459	0.506	0.521	0.810	2.714
620.0	25.69	37.68	38.11	35.64	24.91	30.77	36.78	39.27	46.54	58.89	60.51	89.14	90.12	50.31	39.52	29.37	48.69	346.4	286.3	5.752	2.357	2.113	1.903	1.916	2.018	1.729	1.465	1.542	1.447	1.434	1.583	1.518	1.440	1.210	1.126	1.032	0.808	0.878	0.785	0.770	0.702	0.684	0.671	0.677	0.622	0.584	0.612	0.601	0.568	0.501	0.460	0.452	0.440	0.460	0.423	0.472	0.491	0.707	0.816	0.777	0.551	0.451	0.524	0.533	0.449	0.601	0.592	0.661	0.761	0.649	0.525	0.468	0.457	0.415	0.477	0.440	0.848
625.0	34.76	37.96	42.13	34.12	26.61	29.95	37.01	39.68	44.22	53.82	61.07	76.80	93.71	55.29	39.08	26.83	30.41	141.7	440.2	31.91	2.425	1.853	1.913	1.599	1.719	1.447	1.485	1.538	1.428	1.326	1.537	1.245	1.136	1.084	0.887	0.976	0.813	0.772	0.762	0.607	0.635	0.610	0.530	0.618	0.582	0.602	0.536	0.552	0.463	0.448	0.451	0.372	0.419	0.411	0.377	0.463	0.391	0.495	0.637	0.680	0.586	0.472	0.485	0.462	0.542	0.540	0.515	0.544	0.679	0.705	0.559	0.508	0.444	0.458	0.439	0.430	0.476
630.0	30.01	37.84	42.50	34.10	30.01	30.01	35.05	40.59	43.94	52.54	59.93	68.33	85.09	66.62	40.24	28.86	24.85	44.78	307.1	218.4	5.908	1.715	1.703	1.407	1.405	1.190	1.321	1.296	1.357	1.148	1.221	1.153	1.067	0.832	0.833	0.825	0.717	0.705	0.661	0.614	0.552	0.549	0.478	0.467	0.502	0.497	0.485	0.440	0.437	0.454	0.381	0.395	0.400	0.409	0.386	0.394	0.390	0.426	0.480	0.631	0.663	0.556	0.514	0.498	0.475	0.497	0.515	0.544	0.590	0.681	0.760	0.558	0.488	0.405	0.411	0.384	0.395
635.0	30.31	44.50	37.69	37.44	31.06	30.83	37.30	40.37	43.51	52.03	60.09	67.02	70.98	71.96	44.59	29.53	25.31	21.45	89.31	361.8	49.99	1.665	1.371	1.308	1.319	1.166	1.106	1.045	1.042	1.080	0.940	0.971	0.853	0.717	0.708	0.642	0.667	0.634	0.587	0.477	0.476	0.479	0.443	0.422	0.356	0.428	0.418	0.405	0.439	0.406	0.388	0.381	0.374	0.344	0.360	0.342	0.348	0.444	0.425	0.520	0.656	0.655	0.496	0.466	0.595	0.496	0.471	0.574	0.569	0.658	0.663	0.595	0.567	0.377	0.403	0.435	0.336
640.0	33.42	46.99	39.83	37.10	29.71	29.09	35.29	40.21	42.23	50.66	56.46	63.56	63.41	71.31	49.45	30.20	24.94	16.08	25.26	266.4	189.4	3.020	1.520	1.226	1.131	1.020	1.069	0.844	0.920	0.930	0.968	0.985	0.785	0.613	0.699	0.748	0.635	0.604	0.542	0.406	0.472	0.439	0.441	0.384	0.420	0.361	0.391	0.357	0.415	0.356	0.345	0.334	0.336	0.334	0.355	0.303	0.359	0.390	0.408	0.425	0.578	0.631	0.553	0.476	0.452	0.407	0.558	0.599	0.511	0.641	0.474	0.674	0.579	0.373	0.370	0.384	0.321
645.0	30.86	41.67	40.78	34.50	26.65	29.28	32.38	36.92	42.50	51.71	54.17	60.89	61.32	64.17	56.59	30.88	25.71	14.67	10.42	110.4	312.0	19.16	1.265	1.211	1.190	0.970	1.002	0.830	0.867	0.920	0.945	0.962	0.759	0.540	0.720	0.658	0.641	0.456	0.495	0.401	0.370	0.421	0.391	0.388	0.367	0.321	0.334	0.317	0.372	0.324	0.319	0.325	0.295	0.357	0.359	0.308	0.328	0.341	0.335	0.394	0.477	0.541	0.517	0.519	0.417	0.478	0.477	0.581	0.563	0.556	0.488	0.540	0.633	0.415	0.412	0.435	0.342
650.0	29.26	45.44	45.12	35.50	28.04	28.09	32.68	34.70	39.23	47.28	51.62	56.80	58.50	57.70	58.58	31.27	23.29	14.40	6.877	31.92	295.8	62.32	1.641	1.130	1.043	0.978	0.937	0.841	0.847	0.781	0.901	0.881	0.755	0.592	0.768	0.590	0.578	0.561	0.547	0.391	0.419	0.386	0.380	0.356	0.316	0.330	0.271	0.377	0.350	0.315	0.323	0.330	0.298	0.353	0.297	0.288	0.327	0.368	0.329	0.343	0.405	0.424	0.544	0.444	0.491	0.508	0.477	0.555	0.464	0.494	0.467	0.444	0.583	0.629	0.432	0.426	0.393
