Sample:	'1
File name:	成都路延河路路口.FD3
Run date:	'14:46:27, 05/24/2023
Operator:	aa
Comment:	'

Instrument
Model:	F-2700 FL Spectrophotometer
Serial number:	2086-009
ROM Version:	4J14000 07

Instrument parameters
Measurement type:	3-D scan
Data mode:	Fluorescence
EX  Start WL:	220.0 nm
EX  End WL:	600.0 nm
EX Sampling interval:	5.0 nm
EM  Start WL:	230.0 nm
EM  End WL:	650.0 nm
EM Sampling interval:	5.0 nm
Scan speed:	12000 nm/min
EX Slit:	5.0 nm
EM Slit:	5.0 nm
PMT Voltage:	700 V
Response:	0.04 s
Corrected spectra:	Off
Contour interval:	50.000

Peak integration
Integration method:	Rectangular
Sensitivity:	1
Threshold:	1.000

Peaks
No.	ApexEX/EM(nm)	Height(Data)
1	225.0/340.0	821.2
2	225.0/590.0	50.26
3	225.0/605.0	45.88
4	225.0/625.0	39.60
5	230.0/345.0	824.9
6	240.0/260.0	248.1
7	245.0/535.0	193.0
8	250.0/550.0	158.4
9	255.0/280.0	447.9
10	255.0/425.0	821.9
11	255.0/565.0	137.0
12	260.0/285.0	460.5
13	260.0/400.0	807.6
14	260.0/575.0	112.9
15	265.0/425.0	827.3
16	265.0/585.0	100.7
17	270.0/300.0	 1008
18	270.0/340.0	910.7
19	270.0/380.0	811.5
20	270.0/405.0	825.5
21	270.0/415.0	826.5
22	270.0/600.0	97.08
23	275.0/305.0	 1155
24	275.0/330.0	909.0
25	275.0/610.0	85.12
26	280.0/310.0	 1087
27	280.0/625.0	74.44
28	285.0/315.0	984.2
29	285.0/635.0	55.23
30	305.0/345.0	479.2
31	310.0/350.0	438.9
32	315.0/355.0	442.4
33	320.0/365.0	465.6
34	330.0/375.0	484.8
35	505.0/275.0	2.052
36	510.0/280.0	2.398
37	520.0/285.0	2.709
38	540.0/295.0	4.236
39	545.0/300.0	4.881
40	550.0/305.0	5.377
41	560.0/310.0	5.014
42	570.0/315.0	5.208
43	575.0/320.0	4.511
44	580.0/325.0	4.366

Data points
	220.0	225.0	230.0	235.0	240.0	245.0	250.0	255.0	260.0	265.0	270.0	275.0	280.0	285.0	290.0	295.0	300.0	305.0	310.0	315.0	320.0	325.0	330.0	335.0	340.0	345.0	350.0	355.0	360.0	365.0	370.0	375.0	380.0	385.0	390.0	395.0	400.0	405.0	410.0	415.0	420.0	425.0	430.0	435.0	440.0	445.0	450.0	455.0	460.0	465.0	470.0	475.0	480.0	485.0	490.0	495.0	500.0	505.0	510.0	515.0	520.0	525.0	530.0	535.0	540.0	545.0	550.0	555.0	560.0	565.0	570.0	575.0	580.0	585.0	590.0	595.0	600.0
230.0	22.34	715.1	 2940	 1473	82.16	5.802	3.702	4.044	3.633	3.244	3.006	2.761	2.691	1.709	1.680	1.420	1.354	1.151	1.118	1.037	0.963	0.920	0.779	0.729	0.728	0.665	0.692	0.589	0.591	0.506	0.499	0.506	0.416	0.446	0.410	0.502	0.436	0.346	0.372	0.357	0.333	0.432	0.607	0.435	0.300	0.283	0.607	3.804	8.491	8.469	4.738	1.471	0.330	0.228	0.180	0.150	0.156	0.121	0.142	0.121	0.113	0.149	0.114	0.134	0.122	0.118	0.087	0.082	0.053	0.054	0.067	0.042	0.051	0.065	0.044	0.026	-0.004
235.0	62.48	181.8	 1274	 2935	785.0	118.5	5.801	5.018	3.782	3.491	3.676	3.253	2.280	2.946	1.632	1.448	1.300	1.138	1.262	0.893	0.935	0.897	0.868	0.675	0.681	0.730	0.758	0.650	0.415	0.586	0.446	0.510	0.555	0.488	0.448	0.537	0.345	0.500	0.330	0.454	0.337	0.355	0.418	0.374	0.513	0.264	0.413	1.008	2.543	4.527	7.736	10.03	5.956	2.162	0.421	0.158	0.215	0.130	0.107	0.089	0.199	0.131	0.197	0.119	0.111	0.106	0.057	0.126	0.096	0.019	0.096	0.066	0.014	0.113	0.000	0.048	0.076
240.0	69.56	90.83	324.0	 1795	 2888	662.8	70.04	5.927	4.801	3.252	3.887	2.940	2.731	2.538	2.037	1.806	1.238	1.143	1.418	0.847	1.134	1.188	0.864	0.513	0.641	0.753	0.804	0.804	0.485	0.554	0.518	0.435	0.551	0.398	0.437	0.433	0.398	0.422	0.361	0.359	0.343	0.397	0.356	0.347	0.507	0.570	0.511	0.549	0.831	1.349	2.999	7.877	11.24	10.62	5.688	1.536	0.272	0.215	0.156	0.119	0.157	0.094	0.102	0.141	0.094	0.125	0.118	0.165	0.130	0.034	0.118	0.032	0.013	0.061	-0.016	0.007	0.037
245.0	44.21	105.6	117.8	504.4	 2233	 3336	540.0	32.22	7.037	4.519	4.433	3.815	3.471	2.639	2.216	1.619	1.043	1.192	1.375	1.090	1.077	1.051	0.724	0.853	0.707	0.642	0.642	0.601	0.526	0.510	0.614	0.618	0.463	0.452	0.501	0.398	0.328	0.459	0.343	0.354	0.370	0.474	0.300	0.312	0.343	0.539	0.732	0.608	0.556	0.474	0.836	2.379	5.514	10.82	14.59	12.29	5.152	0.926	0.140	0.161	0.045	0.142	0.085	0.169	0.119	0.067	0.156	0.074	0.103	0.098	0.083	0.081	0.022	0.111	0.057	0.030	0.040
250.0	17.58	66.47	143.6	189.9	621.0	 2249	 3935	 1942	167.7	8.404	6.744	4.881	4.044	2.869	2.332	1.945	1.450	1.385	1.324	1.135	1.149	1.026	1.041	0.930	0.936	0.695	0.689	0.729	0.595	0.624	0.517	0.515	0.463	0.367	0.345	0.371	0.293	0.365	0.374	0.327	0.445	0.390	0.338	0.357	0.306	0.364	0.432	0.611	0.647	0.674	0.684	0.831	1.434	3.198	6.186	11.64	16.41	19.43	12.84	5.604	1.115	0.180	0.114	0.135	0.182	0.046	0.156	0.056	0.106	0.086	0.036	0.088	0.055	0.071	0.050	0.027	0.041
255.0	8.760	21.44	77.40	209.5	232.1	535.8	 2014	 6116	 3044	225.3	10.95	6.161	5.899	4.195	2.990	2.015	2.037	1.544	1.291	1.481	1.180	1.063	1.007	0.971	0.805	0.814	0.781	0.782	0.742	0.618	0.507	0.395	0.536	0.396	0.475	0.337	0.348	0.373	0.304	0.329	0.419	0.466	0.400	0.427	0.432	0.307	0.293	0.375	0.392	0.553	0.831	1.338	0.943	0.994	1.678	2.855	4.837	12.14	23.86	32.43	22.66	7.334	0.733	0.165	0.113	0.064	0.174	0.104	0.118	0.136	0.084	0.072	0.055	0.083	0.028	0.023	0.026
260.0	5.646	12.15	30.23	152.2	248.1	178.9	522.5	 3560	 7909	 2553	146.0	8.427	6.657	5.193	3.246	2.758	2.171	1.651	1.766	1.294	1.254	1.295	1.302	1.083	0.734	0.776	0.788	0.667	0.803	0.664	0.699	0.559	0.485	0.533	0.456	0.344	0.480	0.432	0.357	0.331	0.384	0.439	0.501	0.437	0.359	0.322	0.404	0.262	0.308	0.334	0.542	1.135	1.346	1.044	0.811	0.855	1.308	3.099	8.549	23.00	37.83	37.64	18.92	3.797	0.257	0.216	0.198	0.096	0.118	0.047	0.051	0.060	0.032	0.089	-0.015	-0.011	0.032
265.0	9.577	14.38	18.43	61.71	243.9	234.4	153.6	 1000	 5397	 9139	 2158	55.52	9.101	6.062	4.466	3.259	2.562	2.050	1.662	1.585	1.514	1.085	1.246	1.022	1.079	0.876	0.768	0.703	0.697	0.751	0.593	0.668	0.522	0.605	0.497	0.403	0.471	0.421	0.328	0.309	0.303	0.373	0.358	0.474	0.366	0.286	0.332	0.321	0.381	0.342	0.354	0.544	0.995	1.513	1.270	0.723	0.611	0.892	2.220	6.197	16.33	36.09	50.43	34.07	12.37	1.230	0.237	0.179	0.194	0.142	0.098	0.114	0.038	0.065	-0.003	0.037	0.066
270.0	23.70	24.98	22.74	28.99	95.96	257.9	244.9	279.2	 1450	 5497	9999.9	 4380	116.3	10.51	6.435	4.361	3.204	2.475	1.893	1.724	1.397	1.206	1.266	1.157	1.126	1.106	0.974	1.021	0.717	0.724	0.702	0.696	0.556	0.535	0.617	0.498	0.521	0.407	0.409	0.381	0.375	0.430	0.339	0.448	0.331	0.410	0.421	0.323	0.365	0.317	0.345	0.326	0.505	0.732	1.039	1.539	1.409	1.068	0.860	1.532	3.916	9.620	19.93	33.59	38.40	43.21	21.75	8.535	1.090	0.250	0.129	0.099	0.137	0.061	0.051	0.076	0.080
275.0	64.60	58.25	41.18	29.52	36.69	101.2	311.7	316.9	377.9	 1294	 4635	9999.9	 6616	142.1	10.45	5.678	4.602	2.984	2.650	2.248	1.835	1.755	1.305	1.441	0.935	1.541	1.080	0.918	0.897	0.756	0.676	0.613	0.594	0.614	0.604	0.624	0.467	0.525	0.534	0.554	0.446	0.369	0.370	0.488	0.507	0.539	0.568	0.513	0.410	0.338	0.267	0.331	0.331	0.442	0.435	0.705	1.395	2.052	1.925	1.038	1.211	2.443	4.662	7.909	10.95	25.95	54.21	65.85	32.26	8.859	0.754	0.220	0.115	0.108	0.114	0.124	0.102
280.0	112.1	112.5	76.25	43.62	32.38	44.10	173.9	447.9	279.0	363.5	 1201	 5962	9999.9	 1652	82.51	8.269	6.027	4.917	3.174	2.524	1.979	2.171	1.786	1.338	0.993	1.333	1.143	0.925	0.950	0.877	1.002	0.799	0.632	0.588	0.824	0.667	0.664	0.550	0.583	0.626	0.551	0.579	0.660	0.553	0.820	0.750	0.709	0.608	0.551	0.390	0.383	0.459	0.341	0.325	0.325	0.468	0.768	1.350	2.398	2.353	1.507	0.976	1.469	2.227	2.930	6.537	18.09	45.22	70.59	44.02	26.37	3.125	0.202	0.247	0.148	0.189	0.137
285.0	179.2	197.3	134.4	69.62	38.93	43.22	83.47	327.7	460.5	243.6	408.7	 1676	 8012	9999.9	 1226	36.37	7.639	5.358	4.111	3.204	2.415	2.386	1.820	1.652	1.432	1.472	1.154	0.981	0.844	0.863	0.727	0.796	0.784	0.830	1.026	0.777	0.820	0.857	0.597	0.823	0.641	0.764	0.757	0.888	0.900	0.931	1.001	0.883	0.762	0.538	0.498	0.496	0.396	0.328	0.318	0.415	0.552	0.659	1.287	2.316	2.709	1.920	0.974	1.147	1.285	2.036	4.577	11.99	29.44	57.33	102.7	37.17	12.24	0.887	0.142	0.196	0.208
290.0	283.7	315.1	231.6	123.7	69.74	70.22	89.73	185.6	433.4	548.3	427.3	613.0	 2233	 6907	9999.9	 4204	68.63	8.989	5.666	4.202	2.861	2.458	1.995	1.813	1.494	1.464	1.195	1.077	0.986	0.901	0.835	0.784	0.685	0.849	0.997	1.169	1.121	1.035	0.884	0.942	0.848	0.906	1.070	1.086	1.164	1.344	1.410	1.383	1.166	0.782	0.592	0.636	0.520	0.458	0.444	0.502	0.605	0.690	0.826	1.189	1.777	2.482	2.957	2.514	1.778	1.612	2.189	3.739	7.613	15.57	40.00	45.50	60.06	51.22	22.82	9.177	0.838
295.0	398.4	448.9	338.1	178.1	113.1	102.2	126.3	186.0	304.6	609.5	870.9	580.7	827.2	 1760	 4330	9999.9	 5675	83.90	8.817	5.701	3.844	3.160	2.441	2.113	1.701	1.499	1.079	1.406	1.032	1.004	0.748	0.809	0.790	1.010	1.134	1.426	1.434	1.302	1.129	1.146	1.196	1.225	1.125	1.310	1.483	1.670	1.715	1.737	1.453	1.032	0.883	0.873	0.651	0.726	0.588	0.635	0.736	0.794	0.878	1.110	1.271	1.577	2.382	3.385	4.236	3.284	2.213	2.304	3.172	4.832	10.03	11.14	16.50	32.54	64.52	79.17	34.60
300.0	461.0	509.3	401.6	230.6	150.8	131.5	166.3	222.4	321.1	510.6	 1008	879.4	617.8	659.9	 1175	 5700	9999.9	980.7	51.70	6.979	5.535	4.453	2.665	2.513	1.920	1.515	1.504	1.287	1.297	1.142	0.879	0.985	0.580	0.978	1.130	1.521	1.507	1.594	1.385	1.363	1.182	1.298	1.428	1.379	1.586	1.582	1.980	2.035	1.715	1.151	0.935	1.158	0.674	0.807	0.746	0.857	0.913	1.141	1.132	1.152	1.438	1.736	2.120	2.633	3.915	4.881	4.549	2.939	2.457	2.981	3.801	3.504	4.691	8.233	21.83	55.87	85.98
305.0	518.2	549.5	446.8	264.8	177.3	169.1	199.0	254.2	356.4	508.6	870.7	 1155	754.1	487.7	464.2	 1535	 7741	9999.9	784.8	22.21	6.566	5.438	3.165	2.874	2.154	1.969	1.470	1.567	1.218	1.206	1.064	1.019	0.836	1.164	1.168	1.405	1.646	1.541	1.441	1.417	1.492	1.372	1.411	1.472	1.624	1.807	1.959	2.070	1.834	1.243	0.991	1.154	0.811	0.888	0.796	0.861	0.889	1.129	1.160	1.389	1.625	1.763	2.148	2.721	2.934	4.042	5.377	4.864	3.331	2.754	2.696	2.130	1.977	2.618	5.602	14.54	36.52
310.0	543.0	589.8	483.6	297.8	201.9	190.4	231.1	300.2	398.9	550.1	801.9	 1002	 1087	655.5	374.5	484.6	 2012	 6414	 8207	 2873	46.71	7.924	4.810	3.748	2.607	2.072	1.845	1.931	1.508	1.211	1.179	0.993	0.905	1.075	1.165	1.443	1.588	1.629	1.695	1.618	1.463	1.433	1.606	1.667	1.814	2.051	2.174	2.080	1.923	1.376	1.138	1.199	0.966	0.892	0.876	0.977	1.153	1.299	1.373	1.625	1.806	1.948	2.289	2.579	2.838	3.306	4.069	4.825	5.014	4.371	3.817	2.354	1.865	1.614	2.046	3.848	8.975
315.0	552.1	630.0	528.0	341.3	228.1	225.9	266.0	338.8	445.1	586.8	837.1	878.0	973.9	984.2	502.5	292.4	555.7	 1505	 3824	9999.9	 4144	58.57	7.195	4.657	3.620	2.670	2.047	1.875	1.952	1.365	1.225	1.033	1.037	1.160	1.172	1.673	1.468	1.623	1.626	1.629	1.337	1.459	1.862	1.852	1.908	2.180	2.314	2.316	1.893	1.478	1.219	1.191	1.027	0.995	1.098	0.972	1.295	1.435	1.481	1.717	2.107	2.174	2.334	2.611	2.825	3.356	3.563	3.715	4.172	4.399	5.208	3.993	2.391	1.668	1.551	1.567	2.944
320.0	580.6	689.4	586.7	380.6	249.9	235.7	278.8	372.5	479.5	610.7	860.5	872.3	877.1	948.8	743.8	312.7	258.2	415.4	952.3	 5490	9999.9	716.1	35.87	6.729	4.548	3.322	2.477	2.333	1.798	1.322	1.154	1.231	0.908	1.082	1.334	1.681	1.525	1.523	1.557	1.476	1.433	1.517	1.733	1.931	1.948	2.177	2.349	2.455	2.149	1.737	1.437	1.277	1.232	1.034	1.152	1.165	1.398	1.487	1.464	1.759	1.837	2.391	2.604	2.631	2.935	3.609	3.484	3.661	3.691	3.859	4.289	4.511	4.060	2.630	1.756	1.239	1.643
325.0	599.3	740.2	662.8	430.2	282.0	257.7	295.7	388.6	493.3	642.6	885.8	880.3	878.1	811.8	859.2	466.5	221.7	191.8	276.9	 1423	 7189	9999.9	582.9	14.53	5.372	4.185	3.204	2.620	2.151	1.568	1.543	1.391	1.136	1.042	1.324	1.535	1.546	1.615	1.663	1.737	1.675	1.538	1.731	1.934	2.064	2.392	2.581	2.919	2.410	1.918	1.577	1.474	1.336	1.155	1.213	1.313	1.433	1.482	1.701	1.917	2.095	2.401	2.691	2.789	3.224	3.566	3.782	3.855	3.879	3.597	3.927	3.549	4.366	3.960	2.617	1.759	1.458
330.0	621.3	792.3	751.4	508.3	339.7	293.1	317.9	397.8	526.3	653.8	900.7	909.0	892.1	781.6	712.2	615.3	371.3	183.2	150.9	379.7	 1850	 6437	 6844	 2232	35.72	5.727	4.233	3.269	2.352	1.718	1.582	1.484	1.214	1.213	1.242	1.570	1.575	1.543	1.709	1.582	1.721	1.656	1.876	1.940	2.057	2.562	2.732	2.850	2.729	2.095	1.930	1.906	1.316	1.358	1.323	1.345	1.532	1.563	1.761	2.038	2.161	2.465	2.576	2.845	3.376	3.540	3.626	3.771	3.861	3.828	3.959	3.312	3.206	3.384	3.318	3.169	2.192
335.0	629.6	816.5	801.4	574.6	397.5	331.1	350.5	421.5	530.1	663.4	904.0	907.4	904.0	796.9	660.4	526.7	539.4	314.0	158.9	173.1	478.2	 1500	 3560	 9556	 3356	43.34	6.048	5.059	2.636	2.387	1.949	1.601	1.154	1.309	1.287	1.592	1.594	1.414	1.572	1.643	1.646	1.810	1.752	1.923	2.083	2.510	2.591	3.029	2.856	2.354	2.002	2.164	1.656	1.507	1.491	1.564	1.632	1.555	1.906	1.884	2.171	2.376	2.692	2.803	3.253	3.421	3.522	3.401	3.874	4.016	4.181	3.214	3.175	3.024	2.619	2.720	3.109
340.0	642.3	821.2	817.9	615.8	440.2	375.0	383.8	447.6	550.5	663.9	910.7	904.6	909.8	805.0	661.1	490.9	484.6	459.7	226.2	150.3	191.6	397.7	902.2	 5508	 9615	581.2	26.37	6.389	3.634	2.632	2.206	1.572	1.555	1.310	1.177	1.473	1.738	1.521	1.534	1.439	1.703	1.763	1.921	2.111	2.069	2.644	2.734	2.936	2.856	2.506	2.048	2.003	1.876	1.798	1.498	1.517	1.762	1.979	1.956	2.164	2.397	2.458	2.924	2.958	3.367	3.482	3.681	3.680	3.726	4.064	4.117	3.524	3.301	3.034	2.571	2.477	2.657
345.0	629.6	809.4	824.9	654.3	457.3	406.1	411.3	471.3	559.4	669.5	881.4	881.2	893.3	806.5	671.0	497.3	424.4	479.2	359.5	182.5	154.6	171.1	264.4	 1469	 6960	 8084	476.2	12.54	5.299	3.817	3.081	1.724	1.565	1.302	1.218	1.459	1.621	1.262	1.464	1.495	1.756	1.682	1.825	2.018	1.992	2.429	2.848	2.899	2.763	2.340	2.000	2.196	1.950	1.791	1.480	1.664	1.923	1.953	1.950	2.209	2.445	2.458	2.880	3.093	3.111	3.243	3.578	3.667	3.694	3.954	3.816	3.602	3.289	2.909	2.908	2.344	2.435
350.0	601.6	746.6	816.8	657.3	519.7	451.7	447.6	497.9	573.8	668.6	852.2	849.3	863.5	793.6	669.9	524.6	430.3	404.9	438.9	337.3	205.3	164.9	154.1	398.2	 1834	 5611	 6131	 2024	30.19	5.190	3.716	2.542	1.824	1.553	1.364	1.480	1.825	1.389	1.596	1.497	1.596	1.582	1.740	1.875	2.061	2.376	2.537	2.749	2.569	2.241	2.194	2.243	2.266	1.939	1.724	1.868	1.974	2.184	1.982	2.373	2.543	2.479	2.897	3.064	3.171	3.284	3.452	3.764	3.557	3.609	3.718	3.364	3.379	3.119	2.744	2.490	2.473
355.0	572.5	711.3	779.4	665.6	559.4	497.0	502.8	537.7	609.3	681.4	832.6	829.0	839.2	772.1	672.8	554.4	468.1	418.4	396.1	442.4	349.0	218.0	174.9	199.6	480.5	 1323	 3373	 9710	 2782	37.60	5.578	3.336	2.538	1.754	1.468	1.526	1.895	1.531	1.529	1.618	1.697	1.588	1.569	1.870	1.879	2.429	2.387	2.777	2.600	2.316	2.310	2.558	2.062	2.073	2.032	2.100	2.198	2.306	2.286	2.349	2.570	2.501	2.993	2.960	3.188	3.440	3.376	3.262	3.635	3.546	4.013	3.313	3.157	3.143	2.953	2.785	2.508
360.0	533.2	677.0	763.8	680.1	607.3	552.6	545.1	568.1	643.6	701.2	823.2	816.7	822.6	758.8	685.1	575.3	498.2	445.7	407.6	422.2	458.0	305.5	216.1	181.6	209.2	367.3	867.4	 5718	 8221	530.0	21.94	4.745	3.193	2.153	1.547	1.914	1.683	1.590	1.447	1.537	1.727	1.765	1.645	1.771	1.928	2.073	2.391	2.611	2.698	2.428	2.310	2.553	2.231	2.226	2.203	2.286	2.390	2.396	2.476	2.475	2.643	2.710	2.939	3.308	3.211	3.410	3.199	3.480	3.530	3.343	3.890	3.289	3.417	3.159	3.204	2.940	2.931
365.0	530.0	653.6	722.6	689.5	625.3	603.2	587.3	607.0	676.7	719.6	818.4	798.7	807.8	763.3	690.4	596.3	527.2	480.6	439.9	420.5	465.6	424.0	275.1	208.2	175.0	174.3	257.8	 1552	 6435	 6945	416.0	8.786	3.943	3.015	1.609	1.979	1.821	1.761	1.569	1.577	1.587	1.657	1.690	1.718	1.930	2.148	2.350	2.426	2.480	2.247	2.282	2.423	2.213	2.494	2.242	2.581	2.455	2.444	2.597	2.760	2.867	3.162	2.849	3.064	3.111	3.425	3.224	3.483	3.708	3.665	3.722	3.383	3.147	3.310	3.302	3.037	2.981
370.0	515.7	650.3	708.4	692.7	648.7	637.1	630.0	647.1	696.0	740.9	810.6	798.6	795.6	755.6	696.4	612.2	564.4	524.6	489.7	462.1	450.8	470.9	410.1	282.1	213.1	171.5	153.8	414.0	 1743	 5131	 5558	 1633	23.88	4.256	2.833	2.577	2.068	1.685	1.670	1.593	1.734	1.700	1.567	1.745	1.912	2.213	2.334	2.342	2.367	2.074	2.271	2.548	2.437	2.449	2.278	2.528	2.574	2.771	2.865	2.833	2.840	3.082	2.999	3.293	3.258	3.240	3.234	3.473	3.474	3.331	3.759	3.495	3.157	3.126	3.303	3.163	3.121
375.0	501.4	646.7	685.9	694.6	684.8	688.2	663.0	678.8	716.6	753.2	803.1	801.2	788.3	752.4	701.5	628.0	603.6	569.2	539.7	509.4	483.0	463.2	484.8	416.7	283.6	215.4	171.2	192.3	457.1	 1218	 3245	 7573	 2227	27.13	3.871	3.545	2.297	1.974	1.563	1.728	1.697	1.785	1.714	1.831	1.953	2.138	2.339	2.193	2.286	2.064	2.285	2.788	2.509	2.764	2.767	2.603	2.717	2.890	2.878	2.968	2.860	3.347	3.205	3.475	3.312	3.350	3.440	3.261	3.472	3.355	3.460	3.391	3.447	3.311	3.172	3.084	3.162
380.0	503.5	646.3	673.1	708.7	733.0	704.1	690.0	708.9	740.4	770.8	811.5	797.2	790.2	755.9	705.1	648.2	624.1	599.9	575.3	551.1	513.6	487.7	477.3	491.9	372.1	260.7	204.0	170.1	191.8	334.5	851.5	 4855	 6948	420.7	12.15	4.174	2.823	2.484	1.818	1.937	1.759	1.808	1.889	2.007	2.074	2.135	2.147	2.330	2.168	2.155	2.353	2.737	2.503	2.898	2.913	2.659	3.020	2.853	2.831	3.106	3.174	3.020	3.428	3.361	3.530	3.369	3.316	3.400	3.609	3.479	3.602	3.410	3.696	3.297	3.100	3.262	3.555
385.0	515.6	605.8	671.9	714.3	729.9	730.3	707.0	730.3	745.9	777.3	805.2	803.5	796.7	749.3	709.2	663.3	636.8	620.6	593.2	577.3	545.1	514.3	479.4	498.0	459.1	318.8	239.3	191.1	156.2	157.6	249.0	 1371	 5729	 3678	54.55	7.309	3.625	2.794	2.395	2.064	2.083	1.657	1.872	2.000	2.191	2.266	2.206	2.502	2.309	2.184	2.200	2.733	2.646	3.008	2.862	2.970	2.917	2.995	3.049	3.171	3.324	3.066	3.232	3.409	3.195	3.218	3.401	3.534	3.610	3.434	3.515	3.311	3.626	3.386	3.248	3.299	3.489
390.0	503.0	610.6	690.3	720.9	745.0	754.2	745.8	752.9	768.1	789.7	808.4	796.3	789.1	752.0	715.5	665.9	649.3	638.5	619.8	606.5	578.0	553.7	513.5	496.6	488.3	430.0	311.0	237.9	187.5	149.9	137.7	359.5	 1580	 3955	 4339	 1325	19.54	3.983	2.919	2.429	2.230	1.977	1.917	2.093	2.214	2.157	2.304	2.505	2.273	2.149	2.363	2.836	2.659	3.063	2.939	3.022	2.955	3.091	3.117	3.315	3.135	3.195	3.433	3.270	3.536	3.322	3.210	3.545	3.305	3.445	3.439	3.437	3.457	3.337	3.442	3.519	3.487
395.0	505.8	627.5	693.6	733.9	759.4	777.6	774.7	795.8	789.6	802.6	809.9	797.2	788.2	751.9	721.2	673.4	659.9	647.8	640.1	624.7	608.9	590.6	553.6	523.1	490.2	477.1	421.9	303.9	234.3	182.7	142.2	152.9	399.8	939.9	 2755	 6912	 1781	20.91	4.079	2.911	2.521	2.261	1.986	2.357	2.060	2.245	2.337	2.263	2.186	2.113	2.458	3.036	2.815	3.081	2.816	3.294	3.097	3.102	3.142	3.318	3.140	3.344	3.395	3.552	3.507	3.364	2.976	3.492	3.390	3.274	3.655	3.587	3.506	3.558	3.553	3.750	3.662
400.0	522.9	643.5	701.0	756.9	771.5	782.2	787.1	793.6	807.6	797.8	818.0	797.3	792.9	760.1	722.5	673.2	667.9	658.5	647.8	636.7	630.5	613.7	581.6	550.3	510.1	475.0	472.8	377.0	274.4	216.4	161.1	124.8	148.6	248.5	728.8	 4575	 5611	349.1	9.242	3.806	3.227	2.325	2.332	2.314	2.334	2.054	2.362	2.473	2.222	2.270	2.452	2.960	2.802	2.792	2.827	3.267	3.326	3.336	3.126	3.092	3.094	3.176	3.388	3.632	3.387	3.564	3.380	3.431	3.607	3.380	3.440	3.639	3.358	3.512	3.265	3.541	3.638
405.0	535.2	657.3	743.1	746.9	763.4	765.6	781.0	793.9	798.2	817.9	825.5	796.4	782.7	756.6	715.1	669.6	667.9	661.4	659.8	643.3	642.6	618.9	603.2	576.4	532.7	487.5	473.8	442.2	326.9	245.5	184.9	134.9	106.5	103.8	196.4	 1306	 4724	 3083	47.48	5.677	3.735	2.851	2.589	2.361	2.443	2.032	1.951	2.514	2.409	2.341	2.439	2.963	3.124	2.851	3.112	3.230	3.343	3.248	3.324	3.117	3.358	3.393	3.198	3.167	3.289	3.510	3.646	3.534	3.662	3.648	3.449	3.252	3.647	3.691	3.393	3.669	3.787
410.0	511.6	622.0	709.8	732.4	757.9	792.3	786.5	801.8	810.8	819.7	823.0	800.4	781.3	749.2	707.5	666.9	657.2	653.6	657.5	648.9	643.3	632.1	614.7	589.8	558.7	511.6	473.4	458.5	406.1	302.9	220.1	160.4	115.6	87.51	88.12	323.0	 1314	 3206	 3527	 1001	16.71	3.747	3.000	2.794	2.520	2.469	2.298	2.630	2.313	2.319	2.450	2.921	3.066	2.958	3.101	3.279	3.213	3.415	3.310	3.223	3.283	3.442	3.242	3.190	3.415	3.278	3.476	3.437	3.560	3.529	3.213	3.312	3.649	3.534	3.443	3.330	4.074
415.0	509.7	607.5	673.2	732.0	759.9	793.8	794.3	800.5	806.9	814.7	826.5	782.6	770.7	732.6	700.8	655.5	636.9	644.3	642.9	640.5	641.0	627.5	618.3	600.5	575.1	533.2	490.9	453.4	434.1	376.1	265.2	188.3	138.1	101.0	76.03	112.4	320.5	759.0	 2337	 4752	360.1	16.03	3.756	3.230	2.757	2.617	2.400	2.724	2.422	2.110	2.323	2.856	2.802	2.945	3.122	3.451	3.182	3.268	3.202	3.388	3.360	3.464	3.175	3.320	3.384	3.044	3.237	3.363	3.460	3.234	3.233	3.250	3.599	3.418	3.382	3.450	3.582
420.0	514.7	590.7	682.3	717.2	752.1	784.7	778.1	790.3	801.3	818.2	817.1	783.6	753.1	727.2	685.4	643.1	626.4	624.9	627.2	626.9	627.4	619.9	615.2	604.4	576.3	547.7	502.0	459.3	425.6	402.7	309.7	212.3	152.5	114.1	83.98	73.24	105.7	193.2	624.5	 3428	 4403	307.5	6.904	3.627	3.090	2.624	2.533	2.592	2.602	2.302	2.299	2.806	2.606	2.850	2.920	2.984	3.106	3.412	3.293	3.443	3.229	3.239	3.023	3.414	3.523	3.049	3.204	3.115	3.349	3.147	3.259	3.044	3.227	3.453	3.048	3.546	3.517
425.0	520.8	598.9	674.4	710.7	749.0	776.2	788.7	821.9	813.4	827.3	812.8	793.5	739.0	710.7	665.3	628.8	615.6	609.9	620.2	613.1	615.7	613.2	615.3	598.3	579.0	548.5	508.2	469.1	425.5	392.3	347.9	242.5	170.6	128.1	93.57	72.58	62.78	70.91	160.9	 1025	 4105	 2742	43.54	5.215	3.413	3.062	2.719	2.728	2.321	2.305	2.267	2.721	2.732	2.876	2.972	2.986	3.236	3.292	3.412	3.244	3.432	3.520	3.260	3.319	3.420	3.145	3.255	3.071	3.081	3.150	3.252	3.208	3.551	3.405	3.544	3.439	3.559
430.0	553.0	569.9	651.7	688.5	736.9	754.9	775.6	798.1	808.3	814.0	804.8	776.0	727.1	697.2	646.7	607.8	595.0	594.4	600.8	597.5	598.7	600.3	594.8	593.8	572.6	548.2	511.5	473.3	431.0	385.0	346.5	288.0	205.7	147.4	111.2	85.67	65.42	53.52	62.77	248.8	 1155	 2707	 3034	874.0	15.02	3.727	3.041	2.948	2.557	2.337	2.358	2.840	2.802	2.960	2.773	2.943	3.220	3.263	3.527	3.402	3.308	3.313	3.357	3.392	3.362	3.045	3.011	3.323	3.224	3.113	3.170	3.147	3.244	3.151	3.413	3.168	3.432
435.0	848.3	555.1	632.4	652.7	729.0	743.3	769.2	785.4	806.3	812.9	793.7	760.4	727.5	680.6	629.5	594.2	572.2	574.2	574.3	580.0	576.3	587.6	579.7	577.8	565.1	539.3	513.2	479.5	440.4	389.2	337.4	297.4	252.1	176.6	130.2	99.07	77.86	58.01	48.70	80.27	275.8	641.2	 2028	 4084	334.7	15.21	3.813	3.146	2.720	2.361	2.216	2.632	2.670	2.677	2.925	3.045	3.100	3.085	3.363	3.542	3.195	3.397	3.408	3.287	3.325	3.167	3.045	3.162	3.069	3.292	3.024	2.923	3.036	3.086	2.988	3.324	3.184
440.0	 1238	601.4	630.6	652.8	698.0	729.2	752.4	773.2	795.4	793.6	786.3	753.0	706.4	665.4	602.4	574.4	551.3	551.7	554.7	561.0	560.5	564.4	560.5	560.2	553.1	536.8	508.3	478.8	443.3	393.7	336.0	288.8	263.3	205.5	144.0	109.8	86.62	64.83	51.17	48.32	84.14	160.4	541.8	 2958	 2748	278.0	6.967	3.723	2.900	2.475	2.217	2.721	2.652	2.745	2.780	3.169	3.311	3.112	3.425	3.500	3.097	3.057	3.073	3.186	3.252	3.175	3.008	3.213	3.025	3.159	3.133	2.906	3.015	3.088	2.854	3.007	3.145
445.0	 1478	856.5	597.0	646.1	686.2	703.1	737.4	759.6	790.8	787.8	770.5	742.0	694.2	647.4	585.3	556.6	533.9	529.2	533.3	541.8	538.8	545.7	544.0	545.8	541.9	523.9	499.9	472.1	439.4	394.4	337.7	284.9	254.8	226.7	162.4	120.5	94.38	72.68	57.18	45.02	44.61	54.72	137.2	891.3	 3220	 2447	37.29	4.867	3.062	2.682	2.538	2.982	2.697	2.896	2.824	3.031	3.111	3.068	3.137	3.047	3.248	3.295	3.095	3.157	3.148	3.285	3.172	2.922	2.990	3.011	2.908	2.852	2.866	2.757	2.775	2.671	2.974
450.0	 1095	 1554	687.0	607.5	650.6	681.6	711.7	731.1	757.6	763.1	750.3	707.5	664.2	610.2	558.2	526.3	501.2	496.4	502.4	506.8	501.4	512.2	512.0	517.6	512.2	494.4	474.9	453.8	424.5	385.9	335.2	283.7	243.2	220.6	187.8	138.0	104.6	82.54	64.81	50.67	40.99	36.37	48.89	213.5	942.2	 2576	 2751	724.2	12.26	3.035	2.800	3.076	2.637	2.902	2.766	2.904	2.974	2.982	2.861	3.242	3.059	2.974	3.184	3.272	3.187	3.051	2.927	2.858	2.919	2.991	2.747	2.730	2.782	2.713	2.495	2.696	2.865
455.0	606.9	 1786	 1214	568.5	628.0	627.9	670.1	696.6	724.2	719.8	703.3	678.4	625.3	572.9	521.8	488.2	463.8	453.5	457.2	463.0	464.1	472.2	470.1	477.6	476.1	462.1	449.2	428.7	400.3	368.6	327.2	280.3	240.1	206.6	188.5	160.7	118.5	90.15	71.01	57.18	46.61	36.63	32.42	64.38	222.8	614.6	 1826	 3497	268.2	10.97	3.411	3.202	2.712	3.055	2.596	2.781	3.255	2.936	2.850	3.012	3.013	2.926	3.003	2.867	3.078	2.980	2.779	2.597	2.659	2.842	2.749	2.616	2.556	2.500	2.494	2.680	2.563
460.0	416.9	 1310	 1916	617.8	604.6	608.2	628.6	675.8	699.1	695.1	673.8	653.4	599.4	540.7	496.0	459.7	442.0	428.2	430.6	432.4	431.8	440.6	441.6	446.2	445.7	440.1	422.5	406.4	385.6	355.1	314.1	274.6	232.9	200.9	178.5	165.9	134.9	95.11	74.66	61.24	50.32	39.53	31.52	33.12	64.83	148.7	485.2	 2622	 2216	193.5	5.471	3.458	2.764	2.799	2.449	2.556	3.229	2.948	2.630	2.935	2.924	2.838	2.920	3.035	2.798	2.634	2.726	2.634	2.528	2.385	2.443	2.557	2.666	2.451	2.715	2.593	2.433
465.0	348.1	759.6	 2161	936.0	560.3	565.2	603.6	636.1	668.8	666.2	640.5	617.0	564.9	520.0	472.7	433.6	412.2	406.7	404.4	406.7	408.2	409.1	415.3	413.7	417.0	410.7	401.3	386.0	368.5	343.0	305.0	266.5	229.4	197.9	170.0	157.7	144.5	104.2	79.30	65.02	53.89	41.65	33.69	28.18	30.97	46.43	119.5	796.2	 2827	 1739	30.68	4.549	3.099	2.908	2.634	2.520	2.945	2.857	2.628	2.942	2.823	2.640	2.952	2.828	2.461	2.502	2.741	2.581	2.398	2.386	2.662	2.462	2.429	2.261	2.179	2.343	2.243
470.0	326.0	467.8	 1466	 1733	616.7	520.0	562.3	595.6	606.7	620.5	594.7	572.8	526.9	480.3	433.1	394.8	377.2	366.3	365.4	367.0	369.0	373.2	377.0	375.8	380.9	372.6	362.9	354.6	338.0	316.7	288.2	251.6	220.5	189.8	163.2	144.0	134.0	116.5	88.59	68.43	56.42	44.94	36.33	29.60	25.07	25.10	38.86	188.0	837.4	 2080	 2104	579.1	10.93	3.223	2.986	2.604	2.735	2.684	2.539	2.750	2.584	2.384	2.871	2.504	2.521	2.599	2.459	2.303	2.350	2.246	2.353	2.171	2.198	2.192	2.082	2.073	2.260
475.0	312.5	374.5	697.0	 1855	 1132	481.3	502.1	543.0	551.0	569.5	555.9	531.2	485.7	439.4	394.3	359.8	340.3	332.2	326.4	328.1	329.9	334.7	339.7	340.0	341.8	337.8	326.4	322.8	309.0	290.8	266.9	236.3	210.8	179.9	159.1	136.1	122.7	114.2	99.36	73.10	58.52	47.71	38.89	32.22	26.68	21.88	22.30	52.67	194.9	495.8	 1445	 2446	253.8	10.65	3.171	2.806	2.697	2.480	2.392	2.386	2.415	2.301	2.636	2.254	2.314	2.248	2.215	2.216	2.124	2.105	2.061	1.989	1.912	1.895	1.820	1.961	2.182
480.0	309.8	341.4	440.8	 1336	 1746	520.1	465.0	502.7	520.1	539.4	516.5	494.2	456.0	416.5	368.8	334.9	319.1	306.5	306.7	305.5	302.8	309.0	311.2	312.4	314.7	311.3	306.9	297.6	289.8	273.6	252.7	222.3	198.4	174.7	152.8	133.2	117.7	105.2	102.9	80.93	60.36	50.02	40.67	33.80	28.30	22.50	19.59	23.06	53.12	118.3	387.9	 1920	 2079	217.0	4.692	2.873	2.702	2.334	2.333	2.479	2.360	2.369	2.283	2.224	2.087	2.328	2.096	2.301	1.876	1.914	1.892	1.895	1.889	1.804	1.975	1.885	1.908
485.0	281.9	309.2	370.5	765.4	 2053	742.3	451.5	479.0	500.2	503.1	503.8	464.6	426.2	390.4	347.6	320.5	301.1	287.3	286.4	285.7	284.0	284.9	285.0	288.5	291.2	290.4	286.0	280.4	272.5	259.6	237.5	213.3	191.1	166.7	147.4	129.0	113.5	99.11	95.64	86.59	64.37	50.63	41.87	34.65	29.70	24.25	20.56	17.87	21.64	34.49	94.13	602.6	 2253	 1712	32.15	3.531	2.808	2.702	2.364	2.204	2.345	2.355	2.039	2.070	2.030	2.213	2.176	2.106	1.938	1.830	1.749	1.914	1.878	1.761	1.706	1.728	1.794
490.0	241.8	298.2	322.4	450.2	 1395	 1593	491.9	442.8	457.0	466.7	463.3	434.7	396.6	361.8	321.3	294.9	272.6	263.6	262.6	257.5	255.6	258.2	259.6	261.2	262.3	261.2	259.7	253.5	247.7	237.1	218.5	198.6	178.8	157.2	139.2	123.8	108.5	94.15	85.87	83.34	72.49	55.40	43.93	36.44	31.80	25.87	21.80	17.75	15.94	16.66	28.45	141.7	665.7	 1623	 1673	167.1	10.08	2.865	2.370	2.292	2.278	2.247	2.111	2.011	1.856	2.033	1.914	1.875	1.864	1.822	1.758	1.748	1.564	1.517	1.696	1.658	1.541
495.0	195.3	276.2	311.4	338.8	640.0	 1895	997.4	404.1	408.3	424.4	426.8	397.5	364.2	329.1	290.3	263.2	246.8	235.0	235.3	228.4	229.2	230.2	231.7	231.9	231.4	230.2	233.4	228.2	224.3	215.4	199.0	181.9	164.3	146.0	131.7	115.6	103.4	90.08	81.23	72.91	70.19	60.86	46.26	38.19	32.55	26.33	22.72	19.30	15.89	13.33	14.36	38.46	154.1	390.0	 1265	 2148	273.9	6.974	2.555	2.403	2.027	1.925	2.011	1.784	1.906	1.799	1.558	1.753	1.551	1.605	1.518	1.503	1.345	1.495	1.476	1.365	1.411
500.0	182.7	246.1	301.9	300.0	383.2	 1393	 1762	430.5	379.5	391.3	387.0	366.9	337.6	299.0	266.4	246.9	225.7	212.0	212.1	208.9	208.9	209.7	209.7	211.2	210.4	207.9	209.9	209.5	206.5	197.5	182.9	168.1	151.0	137.9	122.0	109.3	97.98	85.74	74.56	67.28	63.43	61.77	49.91	38.80	31.21	27.39	23.57	19.88	16.11	13.18	11.68	15.79	40.25	92.05	349.0	 1716	 2033	40.68	3.665	2.437	2.231	1.939	1.987	1.736	1.603	1.546	1.525	1.583	1.552	1.287	1.544	1.460	1.398	1.279	1.263	1.418	1.240
505.0	166.6	210.0	302.2	279.3	301.4	753.6	 2254	573.0	347.5	353.0	359.9	339.5	311.4	279.0	245.8	225.6	208.9	194.4	194.4	191.6	189.8	186.5	189.5	190.9	192.0	190.3	192.4	190.9	184.3	180.4	167.5	154.0	141.1	127.0	113.6	102.0	92.13	81.19	71.93	62.60	57.85	56.86	52.43	39.87	31.40	26.76	23.36	19.71	16.31	13.35	10.79	10.54	14.74	25.69	82.90	534.3	 2155	 1391	33.15	3.012	2.202	1.920	1.963	1.851	1.508	1.468	1.457	1.532	1.508	1.380	1.349	1.342	1.364	1.201	1.132	1.249	1.161
510.0	155.9	174.0	257.6	272.7	249.4	374.1	 1588	 1762	395.8	317.6	316.7	299.8	270.3	244.9	219.0	197.9	183.5	173.0	169.3	168.4	167.3	165.3	162.9	167.1	167.2	166.0	166.8	163.2	160.7	158.9	147.1	136.6	125.8	114.0	103.6	93.16	83.56	74.71	66.09	58.68	53.42	49.51	49.07	42.19	32.35	26.18	23.19	19.41	16.30	13.45	11.60	9.748	9.528	10.86	23.05	124.0	649.0	 1455	 1326	159.1	7.082	1.933	1.894	1.676	1.586	1.314	1.385	1.267	1.222	1.234	1.145	1.202	1.127	1.117	1.056	1.035	1.052
515.0	138.9	156.6	200.6	252.9	224.3	255.4	653.0	 2328	 1041	281.6	277.7	259.8	238.6	213.0	193.5	169.2	158.3	151.9	147.4	146.6	142.7	143.8	140.6	142.5	143.0	143.7	141.7	141.4	139.3	138.5	130.3	121.9	109.9	99.58	91.83	81.53	74.23	66.37	60.36	53.75	48.13	43.78	41.04	41.59	34.89	26.49	22.50	18.75	16.46	13.56	11.70	9.771	8.277	8.033	10.04	31.44	148.5	356.6	 1108	 1580	219.6	3.909	2.031	1.586	1.482	1.252	1.226	1.222	1.259	1.131	0.976	0.979	1.027	1.042	0.890	0.935	0.835
520.0	118.2	145.4	171.5	227.8	221.0	214.7	325.8	 1716	 2033	316.2	249.5	235.9	215.8	197.5	176.4	155.1	143.2	136.5	133.0	130.6	127.3	128.7	126.6	125.8	126.3	127.4	126.5	125.6	125.0	122.7	116.9	109.9	98.72	89.32	81.81	75.14	68.30	61.55	56.65	50.40	44.82	40.08	36.34	36.51	35.27	28.39	22.11	18.18	15.95	13.28	11.41	10.20	8.173	7.228	6.593	11.32	36.90	83.33	321.7	 1430	 1264	37.56	2.244	1.740	1.530	1.331	1.284	1.208	0.977	1.097	1.077	0.958	0.883	0.900	0.849	0.927	1.058
525.0	118.4	127.3	149.6	196.8	215.6	189.0	222.0	859.3	 2687	641.3	230.3	222.3	198.7	178.8	158.4	138.8	130.5	123.6	117.7	116.8	115.5	113.2	115.4	113.8	116.2	112.5	115.2	112.9	111.1	111.5	107.4	98.43	89.82	83.38	74.85	68.55	64.20	57.42	51.45	46.99	41.94	37.67	33.51	31.26	32.33	29.30	22.24	17.70	15.16	12.92	10.97	9.702	8.660	7.114	6.320	6.990	12.26	22.08	75.83	482.8	 1496	919.1	27.71	1.998	1.552	1.260	1.268	1.055	0.984	1.050	0.936	0.787	0.807	0.806	0.741	0.816	0.817
530.0	89.99	114.4	131.1	154.1	203.7	183.3	180.3	352.3	 1885	 1917	281.0	189.1	175.7	155.0	139.0	124.5	113.7	107.5	104.3	99.34	99.51	98.69	97.88	97.80	99.70	97.75	97.54	97.68	97.51	94.48	92.94	86.23	79.49	72.62	67.38	60.46	56.46	51.26	46.44	41.93	38.15	33.33	30.40	27.80	27.14	27.23	23.86	17.73	14.55	12.43	10.74	9.532	8.044	7.247	6.049	5.549	6.620	8.315	20.04	111.7	480.6	 1092	829.2	135.4	3.767	1.339	1.108	1.100	0.974	0.852	0.880	0.837	0.759	0.733	0.627	0.742	0.717
535.0	77.53	93.40	117.7	129.0	160.3	193.0	157.5	197.8	674.1	 2600	962.5	172.3	153.8	135.0	119.5	109.0	97.84	92.61	89.85	87.47	85.67	84.47	84.82	83.83	86.04	83.49	81.77	83.84	83.23	82.09	79.39	75.08	68.34	63.66	58.39	53.10	48.58	45.95	41.06	37.75	33.60	30.19	27.05	25.06	23.86	22.40	23.24	19.06	13.96	11.49	10.32	8.843	7.411	6.884	5.858	5.386	5.377	5.092	7.503	27.77	109.4	272.6	880.8	 1142	40.90	2.311	1.145	1.051	0.834	0.890	0.758	0.876	0.697	0.565	0.663	0.666	0.730
540.0	72.41	90.51	111.3	116.5	133.3	188.6	143.2	152.4	276.7	 1869	 2111	195.1	136.1	120.3	109.0	96.38	89.49	82.08	79.46	77.41	75.97	74.89	73.75	73.97	75.21	73.12	72.74	74.24	74.16	73.07	70.43	65.94	60.48	56.04	52.50	47.10	44.44	40.83	37.74	33.31	30.78	28.43	24.80	23.12	21.30	19.40	20.54	19.28	14.63	11.24	9.717	8.733	7.347	6.467	5.967	5.607	4.722	4.559	4.696	8.689	26.66	63.18	266.6	 1104	871.5	32.95	1.414	0.951	0.819	0.950	0.670	0.728	0.632	0.619	0.690	0.611	0.518
545.0	62.33	80.86	101.4	103.1	108.0	162.3	150.0	131.2	174.2	849.4	 2920	319.7	120.7	112.3	98.17	87.36	80.84	73.02	72.14	68.92	67.74	66.51	67.57	67.13	68.12	64.76	66.32	64.83	65.85	65.23	62.80	59.24	54.01	50.35	47.86	43.82	40.20	37.34	34.44	31.45	29.63	25.69	23.55	20.71	19.71	17.46	17.27	18.41	15.17	11.58	9.073	8.245	6.809	5.968	5.791	5.396	4.715	4.008	3.880	4.535	8.075	16.45	62.12	389.3	 1145	339.9	21.86	1.117	0.748	0.805	0.702	0.672	0.595	0.507	0.566	0.491	0.574
550.0	57.27	70.61	81.12	87.52	92.66	121.0	158.4	119.9	127.4	302.7	 1958	 1724	171.1	98.41	85.31	76.71	69.64	64.79	63.64	59.63	58.20	57.66	57.79	56.87	57.18	56.08	56.76	57.21	56.54	56.15	54.26	51.58	47.11	43.96	41.50	37.74	35.30	33.69	29.91	27.62	25.80	22.73	20.87	19.19	17.34	15.79	14.53	14.91	14.77	12.19	8.875	7.474	6.524	5.789	5.218	4.866	4.645	4.023	3.607	3.327	3.907	5.608	15.87	89.79	376.9	756.0	613.1	106.6	2.247	0.861	0.688	0.705	0.678	0.529	0.611	0.458	0.501
555.0	51.58	58.36	72.28	71.12	79.81	90.49	141.9	123.2	105.4	145.4	636.1	 2452	743.0	84.65	70.22	65.33	59.33	55.06	54.73	51.64	50.71	48.21	48.91	47.41	48.47	46.98	48.22	48.52	47.72	47.64	45.14	43.01	39.32	37.70	35.02	31.98	30.37	28.10	25.16	24.06	22.10	20.04	18.69	17.20	15.27	14.14	12.22	11.76	11.94	12.22	9.796	6.859	6.240	5.428	4.837	4.321	4.255	4.010	3.477	2.680	3.070	3.062	5.094	21.68	85.35	195.3	666.3	796.0	38.26	1.580	0.905	0.609	0.507	0.499	0.447	0.417	0.430
560.0	53.63	61.49	62.77	67.81	71.55	74.12	111.9	132.6	94.89	102.7	224.0	 1729	 1786	105.5	64.17	56.21	52.91	49.88	47.09	44.92	43.98	43.82	42.20	43.02	42.43	41.16	41.43	42.46	41.11	40.99	39.49	35.71	34.57	32.03	29.48	28.29	26.90	25.00	22.44	21.01	19.57	17.42	16.45	15.00	13.81	12.72	11.30	10.31	9.888	10.41	9.872	7.406	5.583	5.183	4.670	4.435	3.941	3.701	3.284	2.838	2.904	2.414	2.562	6.402	20.21	45.09	210.2	811.4	352.2	28.67	1.133	0.701	0.624	0.477	0.556	0.480	0.431
565.0	47.99	59.49	58.31	59.13	62.23	63.23	80.49	137.0	98.25	90.34	122.7	740.3	 2500	218.0	57.52	49.62	46.48	41.25	42.85	39.97	38.18	36.28	37.51	37.65	37.06	35.25	36.23	35.85	35.70	35.29	34.54	32.05	30.34	29.09	26.51	26.09	23.25	21.37	19.56	18.35	17.00	15.34	14.38	12.95	12.50	11.13	10.34	9.152	8.166	8.685	9.178	7.804	5.756	4.819	4.092	4.097	3.639	3.234	3.207	2.877	2.536	2.399	2.058	2.980	5.849	11.29	48.71	295.6	763.8	314.4	16.89	0.780	0.635	0.535	0.429	0.468	0.508
570.0	46.67	53.83	52.56	49.40	51.98	53.06	59.55	104.9	110.1	78.51	85.14	237.4	 1652	 1353	91.24	41.23	38.00	35.36	33.54	32.16	30.61	30.56	30.08	29.95	29.51	28.89	29.55	29.07	28.52	28.94	28.27	25.48	24.53	23.58	21.78	19.81	18.83	17.79	16.35	14.93	13.67	13.01	11.94	11.13	10.39	9.218	8.539	7.667	7.009	6.652	7.133	7.143	5.668	4.152	3.567	3.604	3.187	2.849	2.669	2.609	2.399	2.082	1.918	1.889	2.556	3.778	12.03	68.32	267.5	553.3	441.6	23.37	1.186	0.619	0.411	0.408	0.371
575.0	47.79	49.41	51.62	41.53	38.43	44.09	49.28	65.79	112.9	74.02	69.92	103.5	498.0	 2020	526.8	33.11	29.80	27.67	26.72	26.68	22.97	23.68	23.11	22.73	22.67	22.25	23.07	22.21	22.90	22.62	22.08	19.83	18.25	18.11	16.97	15.83	14.90	13.87	12.96	12.09	11.20	10.17	9.496	8.824	8.139	7.561	7.058	6.070	5.581	5.021	4.863	5.387	4.841	4.142	3.005	2.965	2.594	2.400	2.280	2.158	2.162	1.856	1.562	1.494	1.641	2.052	3.872	16.35	60.70	143.1	466.6	349.9	31.69	0.815	0.449	0.395	0.465
580.0	48.55	45.34	45.13	37.92	35.76	33.63	39.43	50.01	98.82	86.88	62.22	69.13	158.9	 1388	 1332	47.57	26.14	22.71	21.01	20.82	19.34	19.09	18.65	18.38	18.62	18.21	18.64	18.42	18.26	18.68	17.42	16.67	15.01	14.73	13.51	12.46	12.44	11.48	10.97	9.821	8.784	8.258	8.039	7.112	7.167	6.555	5.822	5.353	4.636	4.136	3.999	4.143	4.430	4.131	2.798	2.494	2.447	2.052	1.948	1.997	1.801	1.919	1.633	1.508	1.399	1.472	1.805	4.722	14.58	33.15	147.5	447.4	294.8	19.34	0.632	0.582	0.404
585.0	40.08	48.26	43.54	39.78	30.92	34.40	36.18	44.31	79.47	100.7	63.83	62.69	75.80	555.6	 1929	143.9	22.00	18.82	18.40	17.24	16.63	16.48	15.26	15.70	16.18	15.03	15.04	14.56	15.33	15.33	14.26	14.22	13.04	12.62	11.28	10.21	9.961	9.507	9.321	8.065	7.715	6.787	6.900	6.038	5.791	5.147	4.712	4.317	3.730	3.569	3.328	3.097	3.580	3.563	2.836	2.207	2.049	1.836	1.703	1.740	1.817	1.778	1.768	1.401	1.252	1.411	1.416	2.351	4.366	8.554	34.48	169.1	439.2	198.7	8.406	0.556	0.487
590.0	43.19	50.26	40.78	35.78	26.27	28.02	33.17	37.23	52.82	99.15	75.04	56.66	53.68	161.5	 1243	952.4	47.50	16.10	14.57	13.63	12.84	13.08	12.26	12.27	11.93	12.12	11.55	11.71	12.07	11.69	11.47	10.94	9.986	9.690	8.960	8.535	7.607	7.497	7.328	6.364	5.876	5.498	5.321	4.770	4.721	4.262	3.950	3.719	3.049	2.893	2.628	2.423	2.539	2.970	2.715	2.211	1.830	1.635	1.534	1.470	1.415	1.436	1.616	1.554	1.455	1.331	1.284	1.703	2.075	2.900	8.590	39.41	154.3	291.9	174.0	19.44	0.713
595.0	40.39	43.06	39.47	27.59	21.96	26.11	26.78	31.46	40.66	75.48	92.22	54.84	52.08	62.94	351.8	 1391	363.0	13.70	11.23	11.21	10.41	10.14	9.312	9.601	9.807	9.718	9.506	9.332	9.421	9.203	9.076	8.475	8.016	7.618	7.265	7.281	5.882	5.624	5.443	5.104	4.867	4.479	4.100	3.848	3.348	3.288	3.169	2.911	2.445	2.326	2.208	1.919	1.791	1.933	2.251	2.083	1.681	1.530	1.326	1.232	1.201	1.457	1.256	1.689	1.587	1.474	1.367	1.628	1.987	1.685	2.941	9.906	35.21	77.80	224.2	229.0	23.98
600.0	35.30	41.61	37.11	24.54	20.22	24.43	26.52	29.81	35.18	57.00	97.08	61.46	48.18	39.87	99.00	945.7	970.2	23.75	9.829	9.438	8.561	8.209	8.533	7.809	7.830	7.938	7.910	8.138	7.339	7.837	7.647	7.078	6.560	6.387	5.737	5.755	5.347	4.693	4.579	4.218	4.275	3.617	3.457	3.137	2.928	2.787	2.695	2.623	1.934	2.013	1.857	1.646	1.552	1.576	1.692	1.923	1.708	1.498	1.229	1.324	1.177	1.308	1.374	1.322	1.956	1.662	1.502	1.429	1.726	1.610	1.811	3.360	8.672	18.15	75.17	256.3	166.2
605.0	35.26	45.88	37.52	25.51	20.60	20.30	26.35	26.56	36.22	45.11	90.11	72.82	48.45	36.27	39.88	365.2	 1385	101.0	8.878	8.736	7.570	7.027	6.887	6.810	6.776	6.604	6.540	6.339	6.225	6.469	6.416	6.412	5.790	5.238	4.965	4.701	4.402	3.862	3.738	3.265	3.482	2.987	2.875	2.551	2.911	2.390	2.462	2.206	1.794	1.834	1.733	1.457	1.379	1.248	1.312	1.735	1.589	1.552	1.252	1.166	1.379	1.258	1.333	1.530	1.600	1.708	1.656	1.723	1.698	1.649	1.589	2.012	2.951	4.903	17.86	98.04	244.2
610.0	35.42	43.42	36.33	25.57	18.73	19.24	23.67	23.95	33.45	43.78	66.21	85.12	50.63	34.27	27.56	99.14	885.4	694.9	26.50	7.007	5.864	5.876	5.424	5.548	5.380	5.079	4.935	5.331	5.195	4.944	5.043	4.983	4.675	4.371	4.405	4.035	3.776	3.381	3.090	2.591	2.806	2.581	2.365	2.271	2.239	1.948	2.045	1.837	1.647	1.443	1.328	1.323	1.207	1.061	1.068	1.349	1.520	1.563	1.301	1.085	1.252	1.337	1.309	1.450	1.448	1.566	1.835	1.941	1.987	1.713	1.689	1.680	1.719	1.869	4.763	23.17	86.98
615.0	35.20	35.02	32.75	24.59	16.06	19.12	21.69	21.82	30.61	37.93	52.70	80.64	61.48	34.98	23.13	33.23	243.8	999.3	114.0	5.646	5.064	4.543	4.183	4.487	4.370	4.263	4.193	4.310	4.206	4.057	4.088	4.112	3.654	3.370	3.224	3.132	3.065	2.815	2.693	2.257	2.164	2.076	1.942	1.732	1.797	1.753	1.628	1.572	1.309	1.252	1.029	1.091	0.883	0.940	0.907	0.967	1.107	1.426	1.302	1.060	1.102	1.296	1.486	1.599	1.472	1.419	1.680	2.196	2.066	1.651	1.593	1.731	1.276	1.223	1.811	5.817	19.92
620.0	33.94	38.39	31.33	21.12	17.72	17.44	21.04	23.19	28.31	36.03	48.36	65.83	73.02	36.69	23.54	19.06	64.35	658.0	631.0	14.12	4.572	4.236	3.875	3.976	3.313	3.690	3.325	3.435	3.547	3.493	3.100	3.796	2.854	2.967	2.736	2.613	2.782	2.285	2.142	1.807	1.723	1.783	1.697	1.502	1.474	1.464	1.291	1.292	1.227	0.989	0.815	0.898	0.703	0.749	0.902	0.774	1.023	1.000	1.237	1.168	1.014	1.166	1.127	1.392	1.232	1.420	1.601	2.051	2.273	1.675	1.504	1.654	1.124	1.098	1.233	1.842	5.161
625.0	37.73	39.60	29.37	22.97	14.81	15.24	18.00	22.09	28.34	34.43	44.64	56.65	74.44	37.00	23.16	14.71	22.04	245.9	939.3	78.38	4.331	3.738	3.929	3.431	3.429	3.070	2.834	2.807	3.023	3.074	2.870	3.001	2.796	2.607	2.387	2.235	2.453	1.856	1.951	1.858	1.524	1.370	1.364	1.187	1.294	1.218	1.234	1.239	0.950	0.867	0.783	0.764	0.670	0.686	0.656	0.695	0.850	0.904	1.110	1.149	1.014	1.123	1.015	1.194	1.104	1.427	1.168	1.621	2.122	1.492	1.548	1.360	0.943	0.994	0.905	0.952	1.683
630.0	32.07	36.98	31.94	19.70	14.26	15.00	16.26	20.89	26.64	32.57	40.21	47.14	65.35	47.26	23.03	13.65	11.43	63.53	596.9	519.5	18.12	3.181	3.051	2.984	2.650	2.509	2.486	2.555	2.508	2.447	2.365	2.300	2.104	1.894	2.018	1.818	1.887	1.721	1.484	1.356	1.348	1.149	1.077	0.991	1.099	0.915	0.931	0.852	0.803	0.704	0.616	0.589	0.575	0.535	0.580	0.608	0.650	0.610	0.751	1.004	0.900	0.881	0.809	0.810	0.855	1.065	1.105	1.413	1.457	1.378	1.319	1.263	0.847	0.783	0.672	0.619	0.647
635.0	26.89	35.66	30.87	17.58	14.82	15.27	14.26	20.58	28.06	30.95	36.95	42.16	50.64	55.23	26.34	13.86	9.414	18.56	161.3	736.8	95.37	2.980	2.870	2.345	1.895	1.839	1.999	2.134	2.091	1.789	1.617	1.945	1.609	1.453	1.523	1.570	1.465	1.354	1.316	1.173	0.952	1.047	0.956	0.843	0.866	0.795	0.865	0.661	0.655	0.603	0.528	0.509	0.465	0.400	0.483	0.520	0.457	0.426	0.587	0.657	0.700	0.786	0.677	0.814	0.735	0.799	0.759	1.138	1.165	0.933	0.809	0.881	0.635	0.635	0.467	0.403	0.492
640.0	26.58	35.78	28.39	14.84	14.92	12.87	14.08	20.21	23.27	28.07	35.39	38.68	42.44	52.55	32.13	14.30	9.608	8.738	40.79	493.0	470.0	8.905	2.656	2.077	1.972	1.993	1.638	1.733	1.580	1.481	1.643	1.426	1.389	1.345	1.362	1.298	1.080	1.147	1.023	0.969	0.989	0.912	0.783	0.825	0.761	0.574	0.703	0.646	0.596	0.514	0.514	0.438	0.490	0.370	0.409	0.401	0.389	0.305	0.517	0.414	0.541	0.729	0.587	0.605	0.724	0.780	0.703	0.869	0.929	0.665	0.562	0.794	0.560	0.531	0.412	0.332	0.386
645.0	33.83	31.34	26.41	20.64	16.35	10.39	16.22	16.78	22.63	26.95	36.02	37.87	37.94	45.73	37.65	13.85	9.910	6.736	12.76	187.2	694.6	61.58	2.263	1.852	1.835	1.547	1.540	1.425	1.471	1.280	1.262	1.231	1.008	1.203	1.228	1.192	1.017	1.107	0.917	0.831	0.808	0.758	0.835	0.712	0.697	0.682	0.652	0.505	0.515	0.447	0.480	0.368	0.356	0.322	0.361	0.361	0.306	0.399	0.374	0.441	0.532	0.678	0.539	0.550	0.624	0.482	0.537	0.666	0.698	0.531	0.494	0.660	0.556	0.520	0.352	0.294	0.276
650.0	32.47	28.98	25.16	22.12	15.02	13.66	15.76	17.67	23.71	27.27	35.34	37.27	36.69	38.71	41.22	16.41	10.31	6.699	6.012	49.90	580.1	294.2	2.791	1.738	1.719	1.240	1.307	1.205	1.298	1.235	1.174	1.017	0.888	0.942	1.118	1.058	0.961	0.879	0.725	0.606	0.647	0.737	0.764	0.659	0.573	0.562	0.482	0.447	0.424	0.421	0.404	0.283	0.331	0.216	0.344	0.220	0.302	0.335	0.285	0.377	0.407	0.516	0.488	0.540	0.383	0.362	0.444	0.556	0.677	0.557	0.635	0.613	0.642	0.427	0.289	0.277	0.226
