Sample:	'1
File name:	y2025061801ÌÆ¿ÚË®Õ¾.FD3
Run date:	'09:31:21, 06/23/2025
Operator:	Administrator
Comment:	'

Instrument
Model:	F-2700 FL Spectrophotometer
Serial number:	23B8-004
ROM Version:	4J14000 07

Instrument parameters
Measurement type:	3-D scan
Data mode:	Fluorescence
EX  Start WL:	220.0 nm
EX  End WL:	600.0 nm
EX Sampling interval:	5.0 nm
EM  Start WL:	230.0 nm
EM  End WL:	650.0 nm
EM Sampling interval:	5.0 nm
Scan speed:	12000 nm/min
EX Slit:	5.0 nm
EM Slit:	5.0 nm
PMT Voltage:	700 V
Response:	Auto 
Corrected spectra:	Off
Contour interval:	50.000

Peak integration
Integration method:	Rectangular
Sensitivity:	1
Threshold:	1.000

Peaks
No.	ApexEX/EM(nm)	Height(Data)
1	225.0/580.0	55.72
2	225.0/610.0	50.70
3	230.0/345.0	1551
4	230.0/635.0	42.54
5	240.0/265.0	416.6
6	240.0/525.0	249.6
7	245.0/270.0	478.3
8	245.0/535.0	211.8
9	250.0/275.0	625.7
10	250.0/550.0	168.2
11	255.0/285.0	628.2
12	255.0/565.0	142.5
13	260.0/290.0	575.1
14	260.0/575.0	115.4
15	265.0/295.0	729.9
16	265.0/590.0	100.3
17	270.0/300.0	1059
18	270.0/600.0	100.8
19	275.0/310.0	1216
20	275.0/615.0	92.29
21	280.0/315.0	1192
22	280.0/335.0	1084
23	280.0/625.0	83.66
24	285.0/320.0	1225
25	285.0/635.0	64.06
26	290.0/325.0	1120
27	475.0/350.0	4.243
28	505.0/275.0	3.245
29	510.0/280.0	3.460
30	515.0/285.0	3.723
31	530.0/290.0	3.383
32	535.0/270.0	44.80
33	540.0/295.0	4.600
34	545.0/300.0	5.772
35	550.0/305.0	6.220
36	560.0/310.0	6.286
37	570.0/315.0	6.580
38	580.0/320.0	6.716
39	585.0/325.0	6.526

Data points
	220.0	225.0	230.0	235.0	240.0	245.0	250.0	255.0	260.0	265.0	270.0	275.0	280.0	285.0	290.0	295.0	300.0	305.0	310.0	315.0	320.0	325.0	330.0	335.0	340.0	345.0	350.0	355.0	360.0	365.0	370.0	375.0	380.0	385.0	390.0	395.0	400.0	405.0	410.0	415.0	420.0	425.0	430.0	435.0	440.0	445.0	450.0	455.0	460.0	465.0	470.0	475.0	480.0	485.0	490.0	495.0	500.0	505.0	510.0	515.0	520.0	525.0	530.0	535.0	540.0	545.0	550.0	555.0	560.0	565.0	570.0	575.0	580.0	585.0	590.0	595.0	600.0
230.0	76.55	1486	2675	552.9	18.58	5.416	4.553	4.156	3.256	3.237	2.475	2.681	2.401	2.088	1.675	1.618	1.375	1.092	1.160	0.945	0.859	0.770	0.739	0.724	0.696	0.569	0.510	0.577	0.509	0.469	0.568	0.380	0.407	0.373	0.392	0.331	0.355	0.298	0.323	0.294	0.312	0.413	0.362	0.290	0.239	0.294	2.150	7.019	9.315	5.404	1.502	0.297	0.209	0.182	0.154	0.188	0.148	0.180	0.174	0.179	0.135	0.170	0.155	0.131	0.146	0.160	0.163	0.143	0.151	0.136	0.138	0.207	0.150	0.177	0.145	0.133	0.173
235.0	92.52	442.9	2244	3029	519.4	31.63	5.825	4.937	3.726	3.430	3.314	2.918	2.799	2.331	1.891	1.458	1.506	1.194	1.136	0.987	0.920	0.846	0.721	0.638	0.714	0.600	0.519	0.607	0.517	0.554	0.495	0.362	0.377	0.343	0.463	0.299	0.332	0.271	0.370	0.312	0.294	0.308	0.363	0.478	0.375	0.265	0.692	2.022	4.656	7.731	10.29	9.097	3.676	0.575	0.204	0.170	0.216	0.176	0.177	0.142	0.144	0.150	0.131	0.194	0.127	0.162	0.154	0.142	0.160	0.234	0.221	0.177	0.163	0.192	0.170	0.122	0.164
240.0	140.9	161.1	776.2	3260	3201	393.0	17.61	6.537	4.893	4.413	4.036	3.372	2.899	2.401	1.918	1.844	1.583	1.421	1.120	1.149	0.984	0.825	0.669	0.688	0.743	0.701	0.656	0.485	0.543	0.457	0.436	0.367	0.430	0.346	0.382	0.286	0.300	0.268	0.312	0.286	0.222	0.262	0.284	0.397	0.505	0.468	0.442	0.636	1.284	2.631	7.328	15.68	16.33	9.200	2.551	0.375	0.269	0.287	0.178	0.158	0.119	0.218	0.191	0.141	0.180	0.148	0.167	0.147	0.162	0.209	0.150	0.161	0.147	0.154	0.158	0.131	0.134
245.0	130.0	188.6	221.9	1327	4371	3031	269.0	9.218	5.553	4.927	3.642	3.977	3.205	2.266	2.134	1.930	1.562	1.243	1.168	1.216	0.869	0.844	0.780	0.788	0.824	0.716	0.721	0.593	0.460	0.544	0.344	0.538	0.443	0.324	0.411	0.330	0.340	0.357	0.380	0.293	0.312	0.239	0.239	0.312	0.435	0.588	0.622	0.717	0.584	0.764	1.978	6.193	14.69	22.07	17.69	8.069	1.596	0.298	0.289	0.187	0.121	0.206	0.176	0.148	0.185	0.172	0.165	0.146	0.145	0.152	0.220	0.200	0.199	0.175	0.140	0.196	0.208
250.0	62.94	166.5	234.3	374.3	1596	4114	4232	1064	50.19	7.078	5.968	4.566	3.898	3.020	2.615	2.023	1.791	1.637	1.423	1.385	1.067	0.921	0.968	0.804	0.778	0.721	0.645	0.580	0.521	0.559	0.434	0.449	0.439	0.324	0.389	0.343	0.352	0.325	0.287	0.283	0.363	0.248	0.256	0.308	0.301	0.382	0.427	0.740	0.884	0.683	0.782	1.608	3.787	7.929	13.77	19.89	23.59	16.53	8.553	1.924	0.312	0.201	0.245	0.183	0.162	0.151	0.165	0.203	0.169	0.193	0.203	0.157	0.263	0.223	0.143	0.267	0.173
255.0	37.23	66.21	205.8	327.7	433.4	1155	4508	6757	1426	41.82	8.783	6.543	4.941	3.725	2.746	2.610	2.155	1.757	1.580	1.175	1.097	1.017	0.843	0.695	0.836	0.787	0.717	0.551	0.500	0.735	0.516	0.456	0.418	0.389	0.343	0.482	0.295	0.347	0.269	0.302	0.275	0.384	0.346	0.298	0.275	0.287	0.252	0.328	0.619	0.847	1.306	1.248	1.226	2.002	3.391	5.121	10.90	24.30	39.31	26.41	12.56	1.775	0.212	0.217	0.211	0.151	0.167	0.235	0.141	0.167	0.183	0.161	0.210	0.246	0.215	0.237	0.174
260.0	26.08	34.92	91.01	336.0	322.2	325.9	1574	6997	6996	253.7	22.16	8.796	6.518	4.230	3.184	2.833	2.442	1.649	1.817	1.470	1.329	1.023	1.144	0.996	0.809	0.750	0.791	0.617	0.577	0.527	0.660	0.577	0.416	0.390	0.364	0.350	0.274	0.295	0.357	0.349	0.344	0.404	0.413	0.333	0.323	0.317	0.296	0.366	0.343	0.492	1.006	1.617	1.644	1.090	1.079	1.458	2.918	7.182	20.31	38.04	47.36	24.40	8.837	0.849	0.245	0.227	0.186	0.221	0.177	0.169	0.173	0.201	0.207	0.213	0.165	0.210	0.217
265.0	35.17	28.49	40.52	189.9	416.6	259.6	429.4	2730	9338	6456	198.2	14.99	8.950	5.659	3.819	2.907	2.451	1.987	1.846	1.529	1.400	1.152	1.124	1.174	0.954	0.734	0.765	0.842	0.696	0.764	0.627	0.664	0.489	0.494	0.404	0.385	0.317	0.350	0.336	0.398	0.407	0.301	0.330	0.345	0.319	0.273	0.258	0.271	0.280	0.278	0.488	1.047	1.773	2.027	1.429	0.857	1.132	1.994	5.081	12.71	31.68	52.37	32.72	20.54	4.463	0.315	0.256	0.268	0.210	0.202	0.216	0.261	0.215	0.175	0.226	0.283	0.211
270.0	50.48	37.81	40.68	80.71	271.4	478.3	353.6	711.9	3318	8555	9041	802.5	46.40	8.815	6.003	4.319	3.233	2.554	2.370	1.828	1.635	1.217	1.210	1.085	1.107	0.823	0.806	0.875	0.717	0.816	0.650	0.703	0.598	0.505	0.465	0.427	0.379	0.367	0.401	0.357	0.416	0.419	0.359	0.439	0.367	0.341	0.295	0.320	0.306	0.290	0.394	0.597	0.821	1.371	1.984	2.239	2.028	1.313	1.663	3.290	7.837	16.59	26.28	44.80	43.27	43.97	14.15	4.486	0.516	0.275	0.227	0.247	0.258	0.197	0.215	0.232	0.241
275.0	100.3	80.51	77.97	79.09	155.3	345.5	625.7	409.2	809.5	2251	8340	9999.9	1111	42.24	9.568	6.042	4.530	3.274	2.906	2.220	2.020	1.657	1.428	1.092	1.253	0.901	0.931	0.856	0.896	0.858	0.684	0.723	0.615	0.662	0.631	0.576	0.547	0.507	0.444	0.445	0.386	0.395	0.403	0.473	0.551	0.486	0.496	0.387	0.429	0.333	0.450	0.489	0.564	0.858	1.212	1.714	2.985	3.245	2.285	1.477	2.223	4.104	6.299	10.76	16.06	41.21	73.01	71.12	22.21	4.530	0.340	0.330	0.288	0.276	0.219	0.237	0.251
280.0	163.6	158.3	137.2	104.4	135.6	224.9	502.4	625.1	333.8	579.0	2537	9999.9	9916	783.3	21.66	8.748	6.009	4.433	3.456	2.643	2.332	1.773	1.604	1.380	1.220	1.026	1.089	0.857	0.904	0.858	0.755	0.645	0.760	0.838	0.765	0.759	0.654	0.562	0.453	0.491	0.545	0.473	0.540	0.537	0.572	0.677	0.628	0.659	0.549	0.445	0.507	0.496	0.596	0.730	0.929	1.110	1.756	2.637	3.460	2.854	1.569	1.495	1.789	2.882	4.157	10.76	28.29	62.69	85.97	32.54	17.17	1.689	0.512	0.370	0.283	0.389	0.306
285.0	217.2	249.3	209.8	137.3	130.3	186.1	282.7	628.2	364.6	250.9	677.8	3536	9999.9	7815	118.8	13.53	8.128	6.073	4.059	3.020	2.421	1.930	1.912	1.407	1.315	1.074	1.175	0.913	0.870	0.892	0.660	0.708	0.805	0.861	0.909	0.774	0.664	0.675	0.622	0.559	0.531	0.608	0.547	0.589	0.635	0.796	0.812	0.904	0.809	0.580	0.654	0.698	0.671	0.659	0.825	0.994	1.173	1.429	2.144	3.723	3.525	2.120	1.155	1.187	1.606	3.008	7.108	17.22	40.81	71.53	89.10	28.25	11.13	0.846	0.347	0.411	0.348
290.0	312.7	350.9	316.2	193.6	141.4	167.7	191.1	321.2	575.1	499.2	332.3	960.1	3480	9999.9	9600	1852	32.19	8.685	5.609	4.125	3.135	2.413	2.322	1.749	1.571	1.346	1.307	1.144	1.145	0.891	0.887	0.795	0.853	0.861	0.923	0.841	0.763	0.787	0.643	0.609	0.663	0.644	0.715	0.762	0.813	0.935	1.040	1.162	1.084	0.826	0.787	0.746	0.661	0.661	0.778	0.834	0.984	1.021	1.231	1.777	2.492	3.310	3.383	2.527	1.568	1.668	2.475	4.747	10.08	19.86	38.27	51.07	67.90	56.18	19.15	8.876	1.139
295.0	380.5	461.2	387.9	250.8	172.9	166.8	184.2	218.1	344.6	729.9	694.0	495.3	994.1	2533	7467	9999.9	679.9	31.67	8.336	5.778	4.353	3.151	2.228	2.065	2.054	1.646	1.339	1.230	1.124	1.020	1.038	0.831	0.795	0.885	1.038	0.910	0.935	0.897	0.701	0.663	0.633	0.750	0.917	0.794	0.972	1.150	1.264	1.424	1.466	1.039	0.834	0.962	0.817	0.777	0.800	0.796	0.967	1.075	1.064	1.262	1.458	1.804	2.549	3.974	4.600	3.082	2.051	2.391	3.496	5.738	9.598	12.48	18.34	34.08	69.22	89.17	31.23
300.0	441.8	523.2	455.4	304.0	206.2	194.7	220.7	260.3	321.4	574.2	1059	681.2	553.4	797.3	2147	9558	9999.9	513.1	17.63	7.692	5.389	3.718	2.604	2.537	2.191	1.779	1.528	1.279	1.022	1.015	1.128	0.903	0.959	0.913	1.101	0.966	1.003	0.908	0.792	0.881	0.664	0.814	0.886	0.835	0.977	1.181	1.323	1.785	1.725	1.206	1.119	1.127	0.974	0.893	0.941	0.903	1.162	1.139	1.254	1.488	1.495	1.592	2.044	2.839	4.365	5.772	4.349	2.827	2.605	3.006	3.675	4.046	5.256	9.063	21.65	53.48	85.83
305.0	464.0	586.9	537.8	353.8	260.7	263.6	289.4	361.9	441.4	602.2	1014	1209	702.0	554.7	750.0	3029	9999.9	5181	76.58	11.85	6.045	4.990	3.270	2.756	2.360	2.153	1.611	1.368	1.170	1.157	1.247	1.123	0.955	1.192	1.202	1.042	1.160	0.985	1.034	0.889	0.800	0.923	1.068	0.996	1.131	1.342	1.548	1.806	1.708	1.397	1.431	1.390	1.061	1.207	1.093	1.213	1.479	1.546	1.633	1.756	1.924	2.197	2.603	2.889	3.585	5.228	6.220	5.932	4.230	3.275	3.119	2.964	3.002	3.726	6.172	14.13	31.77
310.0	519.0	635.9	614.3	432.8	320.2	322.4	375.8	451.4	544.4	680.9	894.7	1216	1183	722.1	541.5	918.6	3142	7582	7338	1541	24.37	7.096	4.459	3.417	2.869	2.364	2.008	1.616	1.469	1.374	1.158	1.112	0.965	1.121	1.087	1.080	1.114	0.989	1.028	0.913	0.957	0.952	1.035	0.964	1.242	1.345	1.659	1.876	1.825	1.534	1.463	1.495	1.388	1.452	1.352	1.455	1.651	1.863	1.979	2.148	2.363	2.584	2.975	3.321	3.641	4.182	4.980	5.874	6.286	5.845	4.934	3.676	3.122	3.075	3.272	4.698	8.507
315.0	545.5	703.9	686.7	506.0	398.7	385.2	436.1	518.2	611.2	745.5	911.6	1041	1192	1141	639.9	514.2	943.5	1906	5313	9999.9	514.1	26.24	6.823	4.941	3.295	2.889	2.193	1.930	1.713	1.440	1.179	1.233	1.153	1.217	1.115	1.054	1.004	1.048	1.158	1.021	0.951	0.966	1.136	1.055	1.230	1.647	1.700	2.107	1.983	1.674	1.714	1.805	1.830	1.617	1.615	1.753	2.035	2.070	2.264	2.417	2.601	2.893	3.226	3.636	3.688	4.007	4.644	4.904	5.022	5.749	6.580	6.239	4.610	3.365	2.920	2.875	3.517
320.0	623.9	789.0	809.6	595.5	456.0	445.1	484.5	562.2	660.9	798.5	947.3	1047	1085	1225	935.7	517.6	512.4	619.2	1460	7264	8635	425.5	15.55	6.387	4.531	3.179	2.639	2.157	1.793	1.422	1.214	1.389	1.112	1.200	1.262	1.024	1.090	1.126	0.943	0.994	1.018	1.125	1.140	1.220	1.285	1.736	2.136	2.388	2.248	2.065	1.730	2.061	1.824	1.737	1.835	1.936	1.983	2.386	2.506	2.662	2.809	3.077	3.552	3.790	4.130	4.174	4.533	4.965	4.722	5.143	5.536	6.526	6.716	5.070	3.739	2.882	2.896
325.0	726.7	956.6	960.7	726.8	531.3	482.6	525.8	587.1	673.3	818.7	968.0	1061	1059	1070	1120	668.3	458.3	364.9	450.7	2109	8271	4036	61.71	9.937	5.361	3.963	3.164	2.441	2.100	1.804	1.325	1.607	1.163	1.213	1.217	0.908	1.116	1.170	1.078	1.149	1.042	1.106	1.193	1.361	1.601	2.140	2.423	2.690	2.728	2.608	2.250	2.267	2.125	2.033	1.995	2.122	2.306	2.560	2.684	2.943	2.886	3.166	3.760	3.877	4.053	4.612	4.569	4.979	5.086	5.135	4.998	5.311	5.887	6.526	5.741	3.816	3.257
330.0	808.5	1141	1251	984.0	676.1	551.7	552.9	597.4	692.7	818.8	969.7	1071	1072	1007	976.5	882.8	601.9	353.8	265.6	584.3	2367	5530	5855	1385	21.80	6.121	3.899	2.880	2.402	2.128	1.783	1.602	1.446	1.211	1.226	0.962	1.138	1.076	1.109	1.087	1.144	1.085	1.219	1.413	1.678	2.208	2.634	3.321	3.333	3.201	3.038	3.118	2.844	2.356	2.247	2.246	2.349	2.536	2.625	2.812	2.882	3.130	3.525	3.901	4.191	4.494	4.606	5.012	5.113	5.279	5.173	5.091	5.197	5.478	5.642	5.421	4.673
335.0	855.4	1293	1448	1211	864.9	656.5	590.2	611.8	702.1	818.4	972.6	1073	1084	1022	919.1	807.8	829.8	498.2	282.8	286.8	624.7	1335	4062	8583	438.1	24.68	5.455	3.819	3.094	2.747	2.222	1.820	1.472	1.328	1.259	1.123	1.214	1.192	1.190	1.052	1.140	1.143	1.287	1.544	1.749	2.496	2.742	3.678	3.904	3.797	3.447	3.584	3.535	2.857	2.508	2.582	2.771	2.420	2.632	2.873	2.982	3.350	3.511	3.871	4.365	4.452	4.579	4.999	5.047	5.311	5.169	5.200	5.195	5.015	4.724	4.786	4.766
340.0	894.4	1318	1501	1281	952.1	703.6	618.9	631.8	693.0	810.4	951.9	1055	1077	1014	907.3	756.8	780.1	673.0	349.0	246.6	254.8	370.1	1086	5962	7451	382.2	13.39	4.697	3.852	3.159	2.138	1.910	1.533	1.435	1.292	1.047	1.118	1.153	1.100	1.087	1.242	1.138	1.233	1.450	1.893	2.536	2.693	3.745	4.143	4.080	3.836	4.115	3.739	3.285	2.795	2.719	2.720	2.586	2.798	3.082	3.024	3.271	3.588	3.758	4.484	4.284	4.634	4.904	5.039	5.261	5.148	4.878	5.037	4.828	4.674	4.287	4.117
345.0	892.2	1283	1551	1323	992.7	718.9	615.1	623.0	687.0	787.7	905.2	1014	1040	993.5	891.2	741.7	675.0	698.6	483.4	266.9	194.1	173.9	307.1	1692	6923	6092	54.81	8.657	4.936	3.563	2.348	1.944	1.675	1.530	1.277	1.107	1.175	1.165	0.998	1.005	1.027	1.092	1.182	1.338	1.642	2.421	2.881	3.721	4.191	4.011	3.984	4.201	3.703	3.384	2.631	2.764	2.717	2.707	2.649	2.897	2.879	3.201	3.357	3.630	4.045	4.146	4.560	4.766	4.748	5.089	4.894	5.117	5.046	4.872	4.389	4.307	4.287
350.0	801.1	1212	1487	1321	1015	760.9	638.5	629.6	687.5	763.6	867.0	959.8	986.0	947.2	865.2	741.3	647.6	589.4	562.7	405.0	229.7	163.8	160.9	440.7	1956	5152	4863	1226	20.00	4.769	3.359	2.567	1.845	1.651	1.529	1.305	1.159	1.132	1.050	1.035	1.033	1.190	1.213	1.360	1.670	2.220	2.679	3.453	4.051	3.838	3.833	4.243	3.731	3.505	2.931	2.664	2.829	2.753	2.811	2.819	3.158	3.170	3.357	3.821	3.730	3.982	4.313	4.617	4.488	4.822	4.855	4.733	4.716	4.790	4.421	4.371	4.311
355.0	741.5	1131	1361	1267	1021	794.0	675.9	647.0	690.8	758.2	835.1	908.2	929.3	908.6	835.1	741.2	651.8	563.0	502.5	518.1	357.9	209.2	161.4	188.8	494.4	1226	3349	6932	405.7	22.72	4.919	2.897	2.446	1.950	1.545	1.399	1.165	1.171	1.111	1.065	0.994	1.155	1.157	1.473	1.580	2.093	2.542	3.280	3.543	3.635	3.673	4.079	3.555	3.389	3.073	2.787	2.904	2.903	2.849	2.893	3.084	3.129	3.258	3.527	3.695	3.912	4.169	4.044	4.171	4.478	4.520	4.588	4.751	4.683	4.324	4.261	4.363
360.0	732.6	1044	1294	1208	1028	811.6	702.7	673.1	705.1	759.7	821.8	875.3	904.3	876.8	820.7	734.6	657.1	568.7	486.2	485.3	469.4	283.0	189.3	154.4	187.0	325.7	890.3	4913	6305	358.1	11.77	4.081	2.613	2.432	1.834	1.430	1.346	1.241	1.147	1.030	1.154	1.008	1.136	1.399	1.561	2.102	2.542	3.045	3.275	3.367	3.428	4.056	3.707	3.357	3.025	2.883	3.034	2.899	3.045	2.916	3.137	3.058	3.276	3.616	3.570	4.022	3.640	3.799	3.950	4.310	4.540	4.606	4.683	4.544	4.367	4.174	4.219
365.0	715.5	978.0	1220	1170	1025	826.8	717.7	683.0	717.2	766.0	811.6	851.1	864.4	844.1	804.9	725.2	661.1	581.1	503.2	453.0	475.5	398.2	238.0	171.7	140.0	141.7	248.9	1427	6023	3204	50.92	7.193	3.594	2.820	2.143	1.628	1.500	1.258	1.187	1.046	1.084	1.034	1.062	1.310	1.538	1.917	2.266	2.791	3.100	3.165	3.195	4.072	3.800	3.563	3.370	3.080	3.324	3.183	3.132	2.981	3.090	3.374	3.346	3.516	3.725	3.612	3.853	3.744	3.875	4.163	4.283	4.341	4.457	4.520	4.531	4.214	4.162
370.0	650.1	930.1	1123	1114	992.4	836.5	737.5	712.7	734.6	762.2	797.3	827.5	829.6	817.9	776.3	712.8	667.2	595.7	534.0	472.3	438.2	441.8	361.1	228.1	163.5	131.1	126.5	370.3	1727	4228	4483	1091	17.35	3.876	2.730	1.975	1.679	1.463	1.193	1.173	1.070	1.111	1.155	1.258	1.507	1.773	2.150	2.608	2.930	2.956	3.198	3.729	3.655	3.534	3.303	3.205	3.307	3.334	3.236	3.151	3.128	3.329	3.310	3.484	3.537	3.575	3.670	3.636	3.672	3.970	4.198	4.144	4.335	4.222	4.282	4.376	4.126
375.0	606.5	857.1	1039	1054	982.9	850.1	770.3	729.1	748.3	756.7	784.5	801.4	814.1	788.8	753.0	709.6	661.2	609.7	550.5	498.1	441.2	414.7	427.0	339.6	210.7	160.2	126.4	154.6	437.1	1021	3223	6101	348.1	18.80	3.769	2.664	2.214	1.559	1.517	1.243	1.036	1.126	1.166	1.247	1.516	1.732	2.002	2.615	2.915	2.781	3.051	3.498	3.760	3.592	3.205	3.169	3.374	3.233	3.182	3.090	3.314	3.213	3.374	3.450	3.486	3.622	3.619	3.617	4.007	4.116	4.016	3.898	4.331	4.163	4.160	4.321	3.987
380.0	581.5	818.5	979.5	1024	966.0	858.2	768.2	741.3	742.2	767.5	781.5	795.7	796.3	767.5	735.2	690.5	660.8	609.1	564.0	512.9	456.9	414.2	399.8	411.1	276.4	189.5	146.9	124.9	162.4	274.0	871.6	4482	5164	296.2	9.201	3.500	2.458	1.738	1.540	1.342	1.344	1.257	1.233	1.248	1.429	1.703	2.038	2.327	2.626	2.582	2.867	3.348	3.761	3.457	3.262	3.180	3.540	3.188	3.313	3.178	3.392	3.287	3.367	3.532	3.495	3.529	3.497	3.720	3.806	3.759	4.166	3.972	4.092	3.923	4.056	4.104	4.297
385.0	549.2	803.8	929.6	1010	936.8	850.2	774.2	756.1	739.6	760.7	777.7	785.6	769.9	749.7	714.1	676.8	649.5	610.0	570.4	521.7	474.4	426.1	386.3	400.0	355.1	229.7	169.8	137.5	115.4	119.8	239.5	1319	4979	2664	40.99	5.611	2.833	2.028	1.620	1.513	1.214	1.234	1.274	1.278	1.420	1.687	1.963	2.359	2.558	2.601	2.793	3.364	3.533	3.276	3.271	3.204	3.407	3.119	3.143	3.279	3.226	3.334	3.259	3.118	3.397	3.488	3.428	3.778	3.535	3.451	3.739	3.763	3.680	3.962	4.258	4.249	3.951
390.0	571.7	771.8	924.1	957.6	917.3	859.2	789.0	767.2	746.5	749.7	759.0	759.4	747.1	729.2	692.5	654.2	628.6	600.0	568.3	528.6	488.5	445.8	400.0	376.5	375.0	319.8	220.1	164.4	131.1	105.4	111.5	335.1	1433	3327	3362	827.4	13.68	3.046	2.167	1.681	1.484	1.242	1.306	1.362	1.491	1.721	1.953	2.361	2.538	2.553	2.673	3.221	3.509	3.259	3.403	3.286	3.388	3.190	3.511	3.456	3.416	3.278	3.365	3.365	3.375	3.553	3.388	3.710	3.524	3.589	3.751	3.659	3.718	3.983	3.713	4.078	4.049
395.0	521.6	725.9	870.3	938.6	916.4	856.6	800.0	779.2	744.1	745.4	752.4	742.8	726.1	705.8	670.5	636.2	614.6	586.3	564.9	527.3	492.0	455.0	422.0	382.6	353.9	358.4	306.0	210.2	160.7	126.8	103.1	129.5	354.4	801.0	2489	4490	286.6	13.96	2.987	1.997	1.736	1.269	1.539	1.320	1.597	1.692	1.908	2.363	2.635	2.327	2.479	3.170	3.256	3.189	3.394	3.250	3.465	3.509	3.669	3.222	3.232	3.412	3.323	3.149	3.277	3.367	3.444	3.534	3.523	3.324	3.692	3.443	3.856	3.773	3.746	3.929	3.599
400.0	529.9	730.8	859.9	896.6	896.5	846.7	806.6	766.6	760.1	760.1	751.4	733.9	710.7	691.4	655.4	622.5	594.3	575.1	551.8	526.9	491.3	459.3	429.7	392.8	354.9	339.1	353.7	265.1	187.2	148.9	116.5	96.58	123.4	209.8	685.6	3406	3723	237.8	7.303	2.680	1.861	1.661	1.434	1.357	1.679	1.580	1.921	2.142	2.570	2.250	2.608	3.328	3.294	3.300	3.471	3.382	3.484	3.263	3.382	3.179	3.071	3.128	3.420	3.127	3.488	3.180	3.216	3.432	3.304	3.334	3.596	3.219	3.628	3.594	3.782	4.178	4.032
405.0	507.7	714.8	832.2	874.3	904.9	839.5	786.2	771.0	754.2	746.9	740.8	723.0	704.0	685.4	641.9	607.3	580.1	557.4	537.4	517.7	485.6	460.5	435.4	403.3	367.0	336.2	343.4	322.4	226.0	170.6	133.3	101.3	82.34	84.61	180.1	1009	3709	2235	35.62	4.093	2.372	1.863	1.388	1.519	1.483	1.744	2.081	2.363	2.378	2.442	2.387	3.149	3.346	3.376	3.269	3.234	3.608	3.252	3.301	3.274	3.342	3.250	3.351	3.428	3.155	3.471	3.344	3.303	3.455	3.346	3.414	3.463	3.513	3.615	3.710	3.721	3.681
410.0	496.1	672.0	780.2	852.8	862.9	822.1	791.9	774.4	757.3	740.4	732.8	709.0	685.3	657.9	621.6	582.0	558.6	538.2	517.9	497.0	475.4	453.6	435.1	410.5	377.9	346.6	325.3	328.5	287.8	210.3	153.8	116.5	85.91	66.94	74.19	250.4	1087	2592	2614	675.5	11.19	2.636	1.789	1.738	1.589	1.838	1.936	2.327	2.266	2.394	2.493	3.000	3.253	3.257	3.162	3.269	3.314	3.497	3.204	3.313	3.264	3.350	3.169	3.263	3.185	3.321	3.111	3.347	3.441	3.266	3.302	3.413	3.391	3.499	3.464	3.412	3.535
415.0	490.4	644.6	752.3	820.4	829.1	814.8	782.3	759.4	743.2	727.9	714.9	689.1	668.2	635.0	592.1	547.5	524.3	509.1	490.9	472.9	459.9	441.5	425.3	407.9	380.7	351.3	324.7	303.5	302.0	267.7	180.8	132.3	98.76	73.01	57.83	84.59	262.9	624.0	1912	3284	256.8	11.99	2.539	2.105	1.914	1.810	1.912	2.417	2.168	2.174	2.340	2.929	3.058	3.276	3.223	3.040	3.162	3.291	3.313	3.259	3.168	3.395	3.261	3.073	3.277	3.354	3.161	3.197	3.185	3.210	2.937	3.205	3.254	3.287	3.100	3.353	3.363
420.0	470.2	643.2	728.7	795.0	814.3	787.4	777.0	753.4	734.5	715.0	694.2	671.4	644.9	611.3	568.9	528.2	500.9	486.3	471.9	452.1	443.5	430.1	415.0	398.6	377.7	353.3	324.0	295.8	286.1	289.6	214.7	145.9	108.4	80.38	59.65	52.37	82.60	156.2	522.1	2494	2159	213.4	5.442	2.534	2.102	2.001	1.959	2.314	2.223	2.134	2.216	2.985	3.038	3.093	3.101	2.907	3.144	3.451	3.270	3.144	3.116	3.139	3.347	3.391	3.151	3.184	3.115	3.068	3.110	3.115	3.206	2.937	3.118	3.276	3.036	3.023	3.237
425.0	427.7	588.9	706.4	761.8	792.2	777.7	761.9	732.7	714.2	707.9	685.0	659.9	624.7	590.2	543.3	505.8	474.7	466.8	448.4	436.6	426.6	412.7	403.9	392.9	371.7	347.3	326.2	296.5	275.9	274.5	247.9	166.2	118.2	87.02	66.44	50.14	45.41	54.14	131.1	745.5	2611	1969	32.90	3.667	2.258	2.197	1.956	2.255	2.170	2.113	2.322	2.732	3.013	3.030	2.838	3.073	3.096	3.448	3.206	3.158	3.000	3.088	3.186	3.602	3.170	3.268	3.121	3.055	2.910	3.006	2.915	2.852	2.994	3.055	2.880	2.911	3.080
430.0	492.3	573.5	685.1	732.6	750.5	749.5	739.5	724.0	711.7	694.1	671.8	642.2	605.6	565.1	521.8	480.9	451.7	439.0	424.6	412.7	403.7	395.4	390.3	378.2	363.2	341.4	321.7	299.9	275.9	255.5	246.1	203.7	141.1	100.5	75.56	57.25	44.63	36.23	46.59	179.8	764.1	1976	2100	570.0	10.85	2.552	2.194	2.382	2.140	2.091	2.198	2.778	2.880	2.874	2.829	2.854	3.155	3.471	3.060	3.240	3.131	3.224	3.083	3.187	3.078	2.797	3.101	2.960	2.909	2.983	2.866	2.828	2.942	2.979	2.787	2.945	3.051
435.0	733.6	546.5	660.4	701.4	722.6	729.5	705.0	714.9	703.6	683.4	664.7	631.6	577.5	539.0	494.9	456.8	427.4	411.5	404.1	388.0	381.3	374.7	371.3	363.7	351.9	334.0	316.2	299.6	278.4	252.0	224.9	213.0	177.3	117.6	85.42	67.48	50.26	38.49	32.81	55.86	182.4	472.2	1471	2728	241.0	11.90	2.773	2.504	2.240	2.046	2.085	2.675	2.715	2.660	2.821	2.780	3.112	3.200	3.139	3.014	3.119	2.985	3.213	3.002	2.983	2.852	3.022	2.660	2.745	2.819	2.930	2.996	2.719	2.871	2.828	2.618	2.659
440.0	1048	616.0	641.2	701.6	706.7	707.4	695.5	711.8	677.3	667.1	652.5	617.9	565.4	523.4	474.5	437.9	407.0	391.1	382.9	375.5	363.9	363.1	354.3	348.9	337.6	326.3	310.8	295.4	276.0	252.1	220.3	201.2	191.9	139.4	97.05	73.80	56.38	42.54	33.28	31.54	54.91	116.7	400.4	2045	2008	202.2	6.452	2.886	2.476	2.158	2.096	2.723	2.777	2.650	2.795	2.828	3.098	3.223	3.304	3.083	2.982	3.109	3.051	2.982	2.805	3.063	2.930	2.794	2.913	2.520	2.977	2.572	2.666	2.595	2.682	2.595	2.747
445.0	1201	873.3	599.5	659.2	690.0	689.5	686.4	678.3	664.2	651.3	633.2	598.3	546.2	504.8	458.8	417.1	388.6	378.1	368.2	354.4	345.5	339.8	337.7	332.6	326.8	315.8	303.5	287.3	271.8	248.9	217.1	191.0	178.0	158.6	109.8	80.02	60.89	46.19	36.17	29.55	28.44	38.77	99.87	606.0	2265	1810	28.94	4.438	2.781	2.323	2.104	2.573	2.583	2.552	2.695	2.634	3.083	3.119	3.001	2.886	2.956	3.070	3.053	3.133	2.909	2.817	2.768	2.654	2.830	2.531	2.651	2.507	2.519	2.630	2.545	2.566	2.588
450.0	896.5	1499	714.9	619.7	643.0	656.9	654.5	655.4	640.8	630.1	601.0	561.6	515.8	473.6	424.0	389.1	363.3	346.5	336.1	326.4	318.8	315.9	312.8	309.4	306.2	296.3	285.0	272.3	259.9	241.3	215.8	185.6	162.8	153.2	130.8	91.86	67.54	52.10	41.60	32.37	26.74	24.15	34.53	145.2	653.5	1743	1892	539.7	10.14	2.593	2.357	2.799	2.618	2.631	2.672	2.582	2.904	2.937	2.716	2.908	2.767	2.977	2.903	2.820	2.938	2.611	2.732	2.597	2.589	2.538	2.472	2.380	2.615	2.320	2.428	2.449	2.264
455.0	511.9	1771	1205	593.1	609.1	600.5	614.0	612.2	594.5	586.9	571.2	527.6	483.1	431.3	388.5	355.9	330.8	316.6	309.0	295.5	291.4	289.7	286.0	284.3	280.1	271.1	263.5	256.7	246.6	229.5	206.7	179.5	155.0	135.9	129.0	110.8	76.73	57.17	46.02	35.70	29.99	23.46	21.59	42.81	154.2	413.4	1174	2304	201.8	10.90	2.619	2.685	2.578	2.556	2.674	2.538	2.593	2.744	2.744	2.850	2.648	2.923	2.676	2.798	2.702	2.535	2.728	2.573	2.245	2.395	2.310	2.307	2.344	2.195	2.255	2.107	2.021
460.0	355.6	1311	2085	679.3	555.0	566.7	576.1	591.1	569.9	552.0	536.7	500.1	452.2	410.2	363.2	328.4	306.4	294.5	283.9	272.9	270.7	265.8	266.9	264.1	260.0	256.0	246.6	240.9	232.2	219.7	197.6	174.1	150.6	129.7	117.7	115.4	87.86	62.00	48.37	39.37	31.44	25.56	21.09	21.41	44.37	100.3	305.6	1562	1655	163.0	7.124	2.834	2.588	2.551	2.593	2.569	2.521	2.433	2.527	2.797	2.477	2.818	2.583	2.576	2.687	2.469	2.502	2.356	2.340	2.368	2.230	2.163	2.314	1.904	2.174	1.993	2.077
465.0	311.1	772.9	2487	934.4	529.2	541.1	544.8	553.5	533.0	524.4	509.6	477.5	424.7	388.7	339.0	306.1	284.5	270.9	264.8	254.5	248.2	247.0	248.5	243.8	240.9	237.3	230.3	225.0	217.8	206.9	190.0	168.1	146.0	124.2	110.0	106.9	96.54	67.85	50.31	41.08	34.05	26.20	21.80	18.08	20.25	30.94	75.48	441.1	1706	1385	132.2	4.750	2.758	2.446	2.534	2.361	2.566	2.602	2.682	2.680	2.460	2.570	2.586	2.555	2.548	2.472	2.397	2.083	2.316	2.139	2.087	2.095	2.137	1.944	2.103	1.971	1.980
470.0	284.7	441.3	1696	2221	631.2	490.7	498.1	494.3	487.3	481.2	462.0	433.7	391.4	350.8	310.4	277.2	257.9	246.3	235.0	228.2	222.1	218.3	220.2	217.5	215.5	211.8	207.0	203.8	196.4	188.0	175.9	154.3	136.3	118.6	102.7	91.04	88.80	77.23	56.69	42.94	35.30	28.10	22.97	19.20	16.70	16.28	24.69	105.2	475.7	1192	1369	487.1	11.26	2.759	2.583	2.369	2.557	2.484	2.355	2.364	2.221	2.357	2.451	2.297	2.247	2.098	2.168	2.107	2.007	2.091	1.890	1.855	1.939	1.791	1.725	1.806	1.778
475.0	275.4	335.1	753.8	2511	1494	453.1	452.3	448.9	442.0	439.4	413.1	397.6	358.2	314.7	278.9	247.7	230.9	217.2	203.3	198.4	195.6	191.5	193.2	191.0	188.6	186.8	183.4	178.5	176.3	167.8	158.2	142.2	124.1	110.0	95.77	83.41	75.65	74.94	64.90	45.97	36.04	29.77	24.14	19.69	16.80	13.93	13.98	30.11	111.6	275.7	678.1	1548	209.7	14.20	2.539	2.324	2.294	2.115	1.985	2.115	2.097	2.006	2.207	2.082	2.131	2.056	2.013	2.121	1.784	1.817	1.734	1.609	1.671	1.709	1.598	1.650	1.588
480.0	280.9	301.5	432.0	1756	2481	555.8	424.7	420.0	410.5	407.7	392.3	370.9	326.1	292.6	253.8	230.7	213.1	200.5	186.0	184.9	178.8	174.7	173.3	172.8	173.0	169.7	165.9	166.0	163.1	154.9	146.3	132.6	116.8	105.2	90.64	79.51	69.18	65.40	65.95	52.89	36.86	29.97	24.81	21.02	16.63	14.05	12.14	14.13	30.62	66.52	168.0	854.3	1438	198.3	8.740	2.610	2.161	2.038	1.940	1.993	2.075	2.051	2.165	1.827	2.002	1.877	1.856	1.837	1.774	1.796	1.628	1.521	1.570	1.529	1.558	1.483	1.578
485.0	262.5	310.6	335.5	935.1	2929	1095	392.8	391.4	391.0	382.9	369.6	344.1	306.2	275.6	237.9	215.7	199.2	185.2	177.2	171.3	164.7	164.7	159.9	162.3	158.9	158.1	155.6	155.0	151.9	145.5	136.4	124.6	111.0	99.03	87.63	76.31	66.72	58.89	60.79	56.03	41.22	31.06	25.36	21.45	17.59	14.85	12.46	11.11	13.06	20.11	42.02	225.9	1087	1349	158.2	4.563	2.416	2.149	2.167	1.939	1.954	2.044	1.929	1.906	2.003	1.735	1.713	1.735	1.741	1.639	1.560	1.432	1.452	1.527	1.426	1.472	1.463
490.0	217.5	325.5	307.5	463.0	1927	2386	552.9	359.3	354.8	351.5	340.1	315.5	283.4	249.8	216.4	196.5	179.0	169.9	161.0	154.1	149.9	147.2	144.7	145.6	144.4	141.8	140.9	138.3	137.3	133.3	125.6	115.5	104.4	92.10	81.93	71.79	63.41	54.90	51.99	52.17	46.25	34.42	26.21	21.69	18.41	15.41	13.16	11.36	9.797	10.27	14.34	54.64	282.8	829.2	1195	507.0	13.42	2.335	1.983	1.997	1.862	1.874	1.751	1.796	1.682	1.634	1.670	1.580	1.478	1.516	1.447	1.265	1.405	1.441	1.272	1.315	1.224
495.0	172.3	276.4	305.9	323.2	765.9	2671	1454	335.5	319.4	317.0	310.7	287.2	257.5	230.4	196.3	176.4	162.0	149.6	144.3	136.1	132.9	129.0	129.5	131.0	127.9	125.7	125.4	122.0	123.2	121.2	114.1	104.9	95.85	84.04	75.23	66.67	58.79	51.74	47.40	43.65	44.18	39.89	28.16	22.00	19.02	15.63	13.80	11.83	9.638	8.406	8.307	16.29	66.76	189.9	534.3	1404	725.5	18.75	2.366	1.952	1.799	1.727	1.683	1.632	1.780	1.558	1.507	1.467	1.332	1.329	1.269	1.333	1.205	1.227	1.224	1.271	1.127
500.0	159.8	237.4	325.3	285.5	374.4	1816	2542	407.6	296.2	290.9	282.7	264.3	233.9	206.2	179.1	161.4	147.4	137.5	131.2	123.6	120.8	118.4	117.7	118.6	113.7	113.2	112.8	110.1	111.4	109.0	103.5	95.30	87.28	77.85	68.82	61.71	54.69	49.64	43.96	39.99	37.96	39.23	31.85	22.61	18.96	15.99	13.74	11.80	9.921	8.176	7.059	8.140	18.51	45.92	128.5	680.6	1491	230.5	12.45	2.157	1.847	1.687	1.636	1.652	1.570	1.415	1.603	1.289	1.393	1.249	1.225	1.185	1.196	1.198	1.212	1.309	1.143
505.0	133.8	192.4	296.7	275.0	285.5	875.7	3022	952.4	276.3	267.1	256.9	238.0	215.2	188.7	163.3	148.3	134.2	124.6	119.4	113.0	111.5	108.2	107.0	106.5	104.2	104.0	102.1	100.3	101.4	98.57	95.34	87.18	79.98	72.09	64.03	58.39	52.11	45.70	41.25	36.16	33.88	34.47	34.13	24.33	18.79	15.81	13.58	11.74	10.13	8.631	6.793	6.434	7.798	13.82	31.89	169.5	861.5	1297	197.4	6.539	1.959	1.844	1.700	1.518	1.546	1.305	1.392	1.281	1.227	1.160	1.245	1.086	1.021	1.302	1.192	1.173	1.013
510.0	113.0	158.1	240.3	278.5	236.3	380.6	1955	2388	430.3	234.7	231.0	213.3	190.4	168.9	146.3	130.8	116.7	110.4	102.9	99.75	95.88	95.01	93.74	92.35	91.16	89.52	88.78	87.76	87.99	86.63	84.52	77.34	71.04	64.16	57.68	52.36	46.35	41.70	38.00	33.23	29.95	28.75	29.46	27.23	20.28	15.51	13.10	11.21	9.996	8.574	7.294	5.968	5.763	6.622	10.33	40.51	211.8	658.6	993.2	450.5	15.11	2.060	1.626	1.447	1.364	1.224	1.223	1.133	1.094	1.132	1.072	1.014	1.002	1.005	0.959	0.896	0.975
515.0	102.8	129.9	191.3	269.6	226.7	238.2	703.1	2854	1341	218.3	203.1	188.1	167.2	144.6	128.9	113.7	102.3	95.86	89.22	86.40	81.64	80.41	79.71	76.98	79.28	75.52	75.38	75.15	75.77	75.19	72.67	67.53	62.13	55.52	50.09	45.70	40.91	37.02	33.95	29.92	27.29	24.58	23.23	25.43	23.30	17.10	12.73	10.73	9.648	8.056	7.221	6.333	5.376	5.089	5.421	11.62	49.93	149.5	343.9	998.8	654.6	21.17	1.950	1.425	1.166	1.113	1.093	0.989	1.096	1.095	0.937	0.880	0.848	0.843	0.941	0.778	0.977
520.0	94.33	122.3	150.6	235.6	244.4	195.9	300.4	1907	2490	286.8	177.7	167.9	152.4	132.3	115.2	101.4	91.46	85.09	81.16	78.39	74.93	71.70	71.39	69.23	70.52	67.85	66.88	68.43	68.04	67.02	64.72	60.89	54.13	50.01	45.21	41.30	38.47	34.22	31.28	27.79	24.95	21.76	20.58	21.53	22.96	18.70	13.23	10.83	9.042	8.112	6.793	6.038	5.540	4.667	4.362	5.613	13.78	35.61	80.67	416.4	1071	237.5	14.46	1.550	1.173	1.186	1.045	0.926	0.951	0.870	0.804	0.848	0.837	0.780	0.736	0.640	0.767
525.0	81.63	105.0	131.9	196.5	249.6	185.6	202.8	861.2	3250	852.6	167.8	149.8	138.5	118.8	102.7	90.29	83.38	77.73	72.90	70.28	66.24	64.46	64.35	63.03	62.80	62.08	59.78	60.01	59.73	58.87	57.40	54.44	49.37	44.67	40.33	37.89	34.79	31.14	28.68	25.64	22.77	20.24	18.46	17.94	20.06	19.38	14.46	10.70	8.526	7.582	6.583	5.785	5.467	4.700	3.984	4.129	5.654	10.41	20.37	99.89	528.2	940.0	204.8	6.966	1.318	1.174	1.118	0.955	0.864	0.872	0.801	0.852	0.767	0.728	0.707	0.719	0.758
530.0	72.87	90.83	117.7	141.0	224.7	191.7	158.3	320.2	2068	2456	328.6	133.1	119.6	105.3	90.07	80.96	73.73	68.13	64.07	59.39	56.96	56.07	54.76	54.00	52.95	52.64	51.71	51.59	51.19	51.11	49.29	46.79	42.02	39.36	35.71	32.98	29.83	27.39	25.14	22.64	20.75	18.55	16.87	15.72	15.47	16.97	15.93	11.39	8.355	7.232	6.336	5.457	5.228	4.829	4.169	3.609	3.585	4.694	6.598	24.30	126.1	416.9	692.8	347.8	15.64	1.479	1.045	0.921	0.734	0.802	0.745	0.768	0.675	0.621	0.627	0.636	0.666
535.0	58.58	76.82	100.5	111.0	162.9	211.8	144.0	171.9	667.8	3009	1312	124.6	103.6	91.04	78.04	70.22	63.55	58.79	55.60	52.31	49.21	47.99	46.12	44.55	45.23	44.28	43.55	44.19	44.19	43.56	42.08	39.76	36.16	34.48	30.41	29.16	25.69	24.06	21.93	20.23	17.81	16.47	15.03	13.79	12.70	12.92	14.49	13.09	8.896	6.799	5.894	5.372	4.849	4.434	4.251	3.660	3.379	2.974	3.380	7.375	29.71	94.80	212.1	652.2	503.6	21.65	1.303	0.867	0.846	0.794	0.737	0.715	0.676	0.624	0.652	0.648	0.625
540.0	60.47	69.54	89.63	90.91	119.8	209.3	148.9	129.4	244.6	1909	2715	191.6	93.56	81.27	68.67	59.28	55.62	50.14	47.79	44.79	43.37	41.47	41.33	39.87	38.04	38.70	38.20	38.14	39.25	38.42	37.34	34.33	32.81	30.30	27.33	25.52	23.42	21.90	19.75	17.72	16.01	14.71	13.80	12.41	11.32	10.70	11.85	12.91	9.625	6.784	5.567	5.000	4.410	3.879	3.969	3.848	3.181	2.894	2.627	3.493	8.398	22.67	49.39	248.3	722.9	236.6	14.43	0.963	0.881	0.727	0.666	0.538	0.638	0.533	0.568	0.550	0.581
545.0	61.15	74.82	76.82	84.80	99.88	170.0	163.4	107.2	133.2	772.2	3404	659.5	85.15	71.83	61.51	55.39	48.76	45.26	42.30	40.15	37.04	37.12	36.94	35.36	33.82	33.71	33.51	32.98	34.28	33.72	32.88	30.69	29.05	25.98	24.03	22.55	20.61	19.04	17.15	15.89	14.65	13.30	12.66	11.14	10.21	9.565	9.534	10.97	10.19	7.107	5.424	4.754	4.012	3.801	3.667	3.610	3.319	2.743	2.401	2.480	3.399	6.411	12.28	58.81	326.2	654.9	190.6	5.669	0.834	0.759	0.615	0.659	0.645	0.627	0.556	0.502	0.544
550.0	54.78	64.29	71.66	73.71	79.89	119.4	168.2	107.3	94.61	251.8	2005	2155	140.0	62.75	52.32	47.39	41.30	38.52	35.39	33.17	31.83	30.98	30.96	29.18	28.37	28.86	27.19	27.90	28.52	27.57	27.11	25.76	23.88	21.73	20.12	18.98	17.36	16.01	14.58	13.43	12.35	10.91	10.32	9.324	8.809	8.073	7.560	8.216	8.861	7.657	5.514	4.245	3.603	3.398	3.095	2.981	3.135	2.849	2.402	2.099	2.243	2.743	3.962	14.31	76.86	271.8	466.2	235.4	14.47	0.993	0.693	0.676	0.585	0.628	0.468	0.476	0.393
555.0	60.81	56.25	64.97	64.09	65.19	83.32	141.7	124.3	78.76	111.8	587.6	2847	897.9	56.60	43.01	38.31	34.79	30.45	28.53	26.81	26.21	24.12	24.08	23.86	22.90	22.67	22.54	22.75	23.09	22.74	21.85	20.78	19.51	17.49	16.37	15.46	14.20	12.69	12.20	11.22	9.936	9.390	8.547	7.942	7.581	6.583	6.173	5.940	6.127	7.088	6.063	4.149	3.160	3.116	2.831	2.573	2.597	2.712	2.376	2.101	1.651	1.799	2.004	4.203	18.10	61.55	140.3	411.8	246.0	19.23	0.846	0.527	0.543	0.495	0.442	0.452	0.407
560.0	51.20	49.75	62.01	59.97	52.56	63.34	102.6	142.2	71.47	79.14	181.7	1772	2158	103.0	36.62	33.03	28.06	25.99	24.67	22.82	22.35	20.81	20.48	19.38	19.46	19.45	18.88	18.79	19.02	19.18	18.66	17.71	16.46	15.15	14.38	12.83	12.00	11.23	10.10	8.900	8.646	7.959	7.290	6.729	6.731	5.534	5.519	5.258	4.689	5.678	5.994	4.659	3.007	2.874	2.490	2.340	2.293	2.089	2.312	2.009	1.630	1.458	1.405	1.988	4.978	14.60	32.62	153.4	430.3	206.8	10.49	0.653	0.631	0.444	0.389	0.453	0.368
565.0	45.09	55.30	58.40	52.61	48.38	49.49	74.81	142.5	77.86	63.84	86.95	669.9	2880	406.7	32.14	28.03	23.82	22.32	21.72	19.77	19.48	18.22	17.44	17.64	17.11	16.13	15.91	16.57	16.15	16.33	15.70	15.06	13.75	13.02	12.04	10.92	10.41	9.386	8.864	8.016	7.617	6.970	6.463	5.800	5.792	4.932	4.624	4.794	4.156	4.368	5.378	4.726	3.074	2.596	2.137	2.213	2.107	1.856	1.916	2.203	1.631	1.188	1.199	1.428	1.940	4.127	8.114	36.18	190.2	406.4	140.1	3.772	0.728	0.501	0.428	0.333	0.410
570.0	45.33	52.76	55.29	46.09	39.97	43.61	53.33	104.5	105.8	57.39	58.81	199.7	1716	1613	74.17	23.49	19.88	18.24	17.38	16.28	15.54	14.63	14.25	14.42	13.70	12.96	13.03	13.07	12.92	12.82	12.68	12.04	11.19	10.45	9.528	8.865	8.539	7.750	7.100	6.685	6.137	5.688	5.232	4.962	4.720	4.394	3.934	3.807	3.252	3.203	3.630	3.916	3.358	2.320	2.038	1.868	1.781	1.742	1.473	1.670	1.787	1.307	1.177	1.149	1.249	1.757	2.585	8.923	44.83	161.2	278.9	137.7	12.65	0.600	0.405	0.355	0.342
575.0	47.58	50.40	48.90	38.75	38.45	36.98	39.41	61.28	115.4	63.33	47.89	79.81	486.2	2205	588.8	22.16	16.78	15.15	13.76	13.24	12.64	11.58	11.59	11.26	10.96	10.59	10.45	10.50	11.08	10.35	10.06	9.706	9.015	8.329	7.837	7.194	6.849	6.616	5.995	5.411	5.046	4.495	4.228	3.987	3.915	3.609	3.232	3.171	2.679	2.585	2.405	2.949	3.159	2.617	2.043	1.488	1.575	1.324	1.338	1.310	1.410	1.595	1.344	1.012	0.929	1.030	1.302	2.742	10.60	36.62	81.21	234.9	196.0	15.86	0.540	0.362	0.342
580.0	47.88	55.72	47.46	39.19	32.92	35.99	34.67	41.75	99.79	83.50	45.21	49.36	142.0	1379	1517	45.65	15.43	13.66	11.41	11.49	10.25	10.06	10.13	9.603	9.194	9.114	8.869	8.967	9.188	8.880	8.620	8.247	7.640	6.952	6.475	6.066	5.719	5.444	5.218	4.786	4.356	4.025	3.742	3.616	3.304	3.006	2.831	2.602	2.363	2.215	1.986	2.103	2.452	2.609	2.071	1.467	1.429	1.221	1.246	1.214	1.075	1.322	1.244	1.074	0.766	0.896	0.926	1.278	2.950	8.754	18.88	85.95	261.4	137.5	6.929	0.377	0.444
585.0	49.43	54.46	44.65	36.76	30.98	30.51	29.90	35.71	73.44	99.46	47.41	44.09	59.78	510.4	2067	112.1	14.16	11.58	10.91	9.626	9.275	9.217	7.917	8.387	7.973	7.845	7.577	7.792	7.584	7.651	7.224	7.060	6.502	6.341	5.587	5.286	5.128	4.952	4.520	4.037	3.822	3.417	3.148	2.993	2.779	2.686	2.471	2.114	1.971	2.168	1.753	1.603	2.022	2.440	2.314	1.609	1.277	1.157	0.994	0.876	1.020	1.092	1.427	1.099	0.804	0.794	0.858	0.979	1.329	2.613	4.831	20.29	111.8	243.0	34.71	2.594	0.429
590.0	45.78	51.40	46.16	34.31	27.38	25.58	28.16	31.90	45.75	100.3	64.84	41.46	41.50	144.2	1240	1013	38.80	10.28	8.972	8.232	7.511	7.782	7.136	6.737	6.762	6.397	6.327	6.067	5.901	6.222	6.015	5.695	5.244	4.867	4.575	4.172	4.098	3.866	3.679	3.509	3.120	2.822	2.623	2.443	2.378	2.150	2.217	1.960	1.800	1.669	1.520	1.486	1.429	1.737	2.075	1.708	1.196	1.022	0.944	0.875	0.896	0.899	1.002	1.178	1.059	0.772	0.717	0.742	0.873	1.112	1.613	4.974	26.23	94.10	155.0	93.63	10.92
595.0	40.69	52.17	42.32	33.95	26.91	22.11	25.12	27.93	30.80	71.00	88.40	43.20	34.37	53.29	344.1	1453	313.0	10.20	7.541	6.674	6.278	6.239	5.691	5.744	5.584	4.858	4.786	4.810	4.815	4.802	5.074	4.575	4.192	4.075	3.832	3.649	3.281	3.295	2.853	2.619	2.687	2.354	2.176	2.025	2.041	1.678	1.802	1.886	1.456	1.274	1.290	1.219	1.239	1.242	1.540	1.709	1.335	1.062	0.844	0.791	0.727	0.762	0.743	0.864	1.146	0.982	0.604	0.624	0.650	0.677	0.865	1.537	6.274	21.44	44.68	140.5	120.9
600.0	40.31	44.02	41.17	30.48	24.08	21.31	24.10	27.38	29.97	51.74	100.8	48.65	33.65	32.11	95.73	953.0	763.2	20.17	6.578	5.496	5.743	5.455	5.020	4.806	4.466	3.891	3.835	4.260	4.211	4.411	4.138	3.982	3.782	3.273	3.149	2.963	2.846	2.604	2.524	2.370	2.202	2.009	1.899	1.765	1.744	1.534	1.559	1.565	1.356	1.106	1.064	1.151	1.009	0.967	1.182	1.362	1.492	1.225	0.740	0.744	0.676	0.729	0.739	0.713	0.919	1.061	0.716	0.662	0.621	0.697	0.609	0.702	1.773	5.141	10.33	49.45	153.7
605.0	42.16	50.62	41.87	31.13	22.89	22.46	24.38	28.36	30.83	42.86	90.63	67.26	39.00	29.85	39.14	360.5	1248	75.82	6.583	5.455	4.805	4.406	4.465	4.098	4.038	3.884	3.644	3.779	3.656	3.582	3.573	3.435	3.162	2.848	2.496	2.412	2.467	2.416	2.219	2.075	1.919	1.683	1.623	1.585	1.548	1.382	1.292	1.212	1.211	1.057	1.018	0.994	0.789	0.830	0.858	1.095	1.347	1.042	0.804	0.664	0.666	0.730	0.670	0.552	0.767	0.881	0.897	0.623	0.521	0.485	0.561	0.507	0.749	1.421	2.651	11.54	63.11
610.0	39.29	50.70	42.35	31.37	21.07	25.04	24.81	30.80	33.91	44.55	69.89	90.99	50.33	34.30	30.40	102.5	838.4	625.3	18.18	4.784	4.009	3.840	3.728	3.423	3.215	3.115	3.081	3.115	2.935	2.982	2.922	2.804	2.435	2.462	2.133	2.081	1.987	2.002	1.810	1.660	1.634	1.450	1.368	1.327	1.235	1.110	0.987	1.063	0.952	0.905	0.789	0.781	0.742	0.740	0.796	0.843	1.124	1.090	0.922	0.749	0.619	0.523	0.611	0.534	0.621	0.731	0.791	0.887	0.622	0.472	0.551	0.463	0.528	0.678	0.899	2.866	14.82
615.0	39.33	46.74	39.05	30.28	20.07	23.76	25.94	29.87	36.69	44.90	56.40	92.29	67.13	36.97	29.04	38.83	248.9	998.1	79.03	4.367	3.535	3.315	3.112	2.927	2.848	2.759	2.659	2.708	2.430	2.534	2.644	2.343	2.014	1.928	1.781	1.899	1.577	1.636	1.548	1.400	1.276	1.186	1.226	1.031	1.107	0.957	0.966	0.910	0.820	0.771	0.647	0.733	0.707	0.711	0.693	0.700	0.695	0.973	0.863	0.808	0.546	0.522	0.539	0.519	0.613	0.593	0.596	0.744	0.762	0.505	0.511	0.492	0.420	0.581	0.484	0.970	3.572
620.0	35.16	48.32	37.51	32.18	23.89	21.75	27.37	30.99	35.96	42.39	50.00	75.31	77.33	37.52	27.65	23.93	71.35	721.5	501.2	8.158	3.380	2.976	2.795	2.431	2.341	2.168	2.122	2.276	2.202	2.043	2.129	1.873	1.789	1.738	1.574	1.761	1.480	1.473	1.216	1.323	1.082	0.935	0.927	0.946	0.819	0.812	0.809	0.768	0.709	0.656	0.568	0.542	0.611	0.674	0.540	0.531	0.550	0.814	0.900	0.865	0.623	0.569	0.523	0.547	0.535	0.547	0.532	0.722	0.758	0.701	0.511	0.486	0.533	0.460	0.405	0.489	1.156
625.0	33.37	41.92	34.24	27.49	22.57	22.79	26.84	30.93	31.84	42.02	47.59	61.98	83.66	42.80	28.16	20.24	28.20	298.7	862.1	43.65	3.470	2.486	2.472	2.279	2.040	1.925	1.848	1.921	1.799	1.942	1.839	1.702	1.608	1.524	1.423	1.405	1.291	1.252	1.199	1.084	1.004	0.844	0.907	0.855	0.839	0.778	0.749	0.639	0.653	0.546	0.565	0.469	0.532	0.606	0.402	0.452	0.433	0.672	0.785	0.694	0.630	0.499	0.448	0.516	0.543	0.533	0.502	0.546	0.777	0.643	0.541	0.570	0.525	0.411	0.372	0.321	0.491
630.0	33.03	37.74	37.29	28.42	21.97	23.04	25.15	29.41	30.69	38.88	45.03	53.78	73.08	53.24	28.57	19.41	19.01	82.56	641.9	382.6	8.128	2.487	2.124	2.020	1.807	1.663	1.564	1.465	1.490	1.617	1.502	1.439	1.337	1.331	1.258	1.148	1.107	1.119	0.962	0.940	0.835	0.811	0.742	0.689	0.727	0.668	0.621	0.561	0.516	0.512	0.491	0.460	0.510	0.475	0.365	0.449	0.469	0.488	0.572	0.633	0.584	0.498	0.395	0.477	0.450	0.516	0.511	0.490	0.586	0.630	0.642	0.484	0.479	0.401	0.378	0.407	0.399
635.0	33.39	40.19	42.54	28.07	24.51	21.86	24.16	26.87	29.97	38.55	42.24	46.24	57.21	64.06	31.10	19.81	16.93	26.84	197.9	715.8	57.89	2.646	2.061	2.001	1.660	1.459	1.497	1.289	1.527	1.297	1.225	1.067	1.217	1.052	1.100	1.027	0.901	0.872	0.806	0.724	0.803	0.842	0.604	0.507	0.548	0.552	0.484	0.491	0.485	0.456	0.443	0.472	0.362	0.339	0.348	0.400	0.443	0.395	0.447	0.460	0.541	0.532	0.368	0.481	0.383	0.429	0.498	0.401	0.459	0.561	0.565	0.728	0.460	0.425	0.424	0.406	0.477
640.0	30.73	36.28	38.19	27.02	21.20	21.66	24.17	26.58	30.71	35.73	41.68	47.27	50.52	63.36	37.38	20.45	17.88	15.00	53.26	572.1	318.4	4.141	1.810	1.498	1.503	1.255	1.164	1.259	1.318	1.078	1.151	1.024	1.005	0.896	1.069	0.955	0.895	0.823	0.721	0.715	0.764	0.675	0.601	0.565	0.489	0.462	0.459	0.470	0.420	0.434	0.386	0.410	0.325	0.366	0.356	0.415	0.390	0.427	0.467	0.448	0.606	0.480	0.409	0.477	0.353	0.433	0.457	0.414	0.529	0.595	0.479	0.686	0.550	0.447	0.418	0.374	0.429
645.0	31.96	37.04	36.96	27.09	21.74	19.86	21.43	27.08	31.04	34.96	42.22	46.25	45.58	56.40	47.18	22.37	18.20	12.70	17.65	261.3	580.7	25.08	1.806	1.364	1.394	1.165	1.230	1.182	1.064	1.139	0.994	1.068	0.967	0.884	1.012	0.811	0.849	0.683	0.744	0.712	0.627	0.678	0.615	0.408	0.423	0.469	0.449	0.475	0.368	0.368	0.307	0.297	0.324	0.359	0.305	0.383	0.397	0.343	0.334	0.409	0.452	0.419	0.503	0.505	0.447	0.496	0.350	0.364	0.507	0.419	0.463	0.558	0.711	0.449	0.384	0.309	0.275
650.0	37.92	39.51	40.28	30.80	23.29	21.29	23.46	25.40	27.71	33.96	40.98	43.82	42.83	48.85	49.77	23.67	18.34	12.21	9.702	78.44	617.4	68.43	2.036	1.348	1.396	1.236	1.172	1.131	0.964	1.053	0.951	0.887	0.822	0.892	0.815	0.804	0.838	0.637	0.732	0.558	0.612	0.542	0.613	0.420	0.512	0.454	0.481	0.360	0.358	0.361	0.358	0.370	0.294	0.277	0.310	0.363	0.330	0.454	0.349	0.380	0.335	0.378	0.487	0.530	0.380	0.340	0.398	0.423	0.468	0.396	0.427	0.409	0.541	0.525	0.460	0.275	0.304
