Sample:	'1
File name:	t2025042104明集镇南桥.FD3
Run date:	'11:20:28, 04/22/2025
Operator:	Administrator
Comment:	'

Instrument
Model:	F-2700 FL Spectrophotometer
Serial number:	23B8-004
ROM Version:	4J14000 07

Instrument parameters
Measurement type:	3-D scan
Data mode:	Fluorescence
EX  Start WL:	220.0 nm
EX  End WL:	600.0 nm
EX Sampling interval:	5.0 nm
EM  Start WL:	230.0 nm
EM  End WL:	650.0 nm
EM Sampling interval:	5.0 nm
Scan speed:	12000 nm/min
EX Slit:	5.0 nm
EM Slit:	5.0 nm
PMT Voltage:	700 V
Response:	Auto 
Corrected spectra:	Off
Contour interval:	50.000

Peak integration
Integration method:	Rectangular
Sensitivity:	1
Threshold:	1.000

Peaks
No.	ApexEX/EM(nm)	Height(Data)
1	225.0/600.0	31.93
2	225.0/635.0	30.18
3	230.0/345.0	648.4
4	230.0/565.0	48.53
5	235.0/395.0	446.7
6	235.0/510.0	223.5
7	240.0/405.0	429.3
8	240.0/525.0	200.2
9	245.0/535.0	169.4
10	250.0/430.0	386.9
11	250.0/550.0	142.3
12	255.0/280.0	625.0
13	255.0/560.0	131.5
14	260.0/285.0	631.4
15	260.0/575.0	103.1
16	265.0/290.0	605.1
17	265.0/585.0	97.60
18	270.0/300.0	743.7
19	270.0/595.0	80.90
20	275.0/305.0	882.9
21	275.0/610.0	68.39
22	280.0/310.0	758.4
23	280.0/335.0	413.0
24	280.0/625.0	57.39
25	285.0/315.0	747.4
26	285.0/635.0	42.92
27	290.0/325.0	649.4
28	295.0/330.0	483.0
29	300.0/335.0	439.8
30	305.0/340.0	376.5
31	310.0/350.0	294.3
32	315.0/355.0	280.1
33	320.0/360.0	275.7
34	330.0/375.0	228.1
35	335.0/380.0	236.2
36	345.0/395.0	188.8
37	350.0/400.0	192.6
38	355.0/405.0	179.3
39	365.0/420.0	152.0
40	370.0/425.0	140.4
41	385.0/445.0	94.13
42	395.0/455.0	69.01
43	400.0/465.0	58.72
44	405.0/470.0	48.39
45	410.0/475.0	41.65
46	415.0/485.0	36.38
47	420.0/490.0	31.37
48	425.0/495.0	27.71
49	430.0/505.0	23.50
50	435.0/510.0	20.44
51	440.0/515.0	18.18
52	445.0/525.0	15.11
53	450.0/530.0	12.87
54	520.0/285.0	4.437
55	530.0/290.0	4.086
56	540.0/295.0	5.035
57	545.0/300.0	5.529
58	555.0/305.0	5.704
59	560.0/310.0	4.614
60	570.0/315.0	4.865
61	580.0/320.0	4.786
62	585.0/325.0	4.338

Data points
	220.0	225.0	230.0	235.0	240.0	245.0	250.0	255.0	260.0	265.0	270.0	275.0	280.0	285.0	290.0	295.0	300.0	305.0	310.0	315.0	320.0	325.0	330.0	335.0	340.0	345.0	350.0	355.0	360.0	365.0	370.0	375.0	380.0	385.0	390.0	395.0	400.0	405.0	410.0	415.0	420.0	425.0	430.0	435.0	440.0	445.0	450.0	455.0	460.0	465.0	470.0	475.0	480.0	485.0	490.0	495.0	500.0	505.0	510.0	515.0	520.0	525.0	530.0	535.0	540.0	545.0	550.0	555.0	560.0	565.0	570.0	575.0	580.0	585.0	590.0	595.0	600.0
230.0	66.15	2225	8888	4321	208.6	13.80	11.53	8.617	7.769	7.862	8.008	7.180	6.616	6.132	5.453	4.733	4.185	4.132	3.741	3.399	3.203	2.912	2.796	2.530	2.476	2.343	2.085	1.878	1.892	1.914	1.889	1.707	1.640	1.615	1.478	1.406	1.217	1.152	1.089	1.036	1.017	1.056	1.084	1.006	0.939	0.852	1.890	10.85	27.19	26.86	12.96	3.264	0.888	0.597	0.551	0.520	0.533	0.516	0.497	0.440	0.375	0.426	0.403	0.365	0.383	0.368	0.341	0.331	0.336	0.316	0.297	0.256	0.281	0.281	0.255	0.245	0.245
235.0	141.8	586.6	4388	9999.9	4238	310.3	15.56	12.41	10.83	9.856	8.972	8.807	7.284	7.024	5.806	4.961	4.078	4.409	3.861	3.802	3.612	3.139	3.022	3.040	2.486	2.461	2.126	1.891	1.988	1.961	1.874	1.915	1.731	1.700	1.524	1.435	1.225	1.271	1.028	1.005	1.046	0.995	1.015	1.054	1.175	1.162	1.094	3.181	8.417	17.15	29.23	26.16	20.34	7.091	1.016	0.594	0.547	0.542	0.618	0.503	0.455	0.397	0.372	0.373	0.355	0.367	0.368	0.322	0.301	0.271	0.307	0.277	0.286	0.283	0.254	0.245	0.271
240.0	189.3	259.9	1179	6726	9999.9	3496	202.4	17.42	15.54	11.32	11.21	9.835	8.739	8.243	6.869	5.255	4.700	4.201	3.835	3.949	3.485	2.976	3.057	2.905	2.538	2.538	2.106	2.099	2.193	2.044	1.820	1.884	1.706	1.674	1.541	1.482	1.427	1.256	1.173	1.020	1.022	0.973	0.918	0.980	1.171	1.380	1.141	1.421	2.481	4.764	11.81	31.80	57.07	27.63	18.93	4.793	0.799	0.625	0.653	0.539	0.504	0.443	0.420	0.437	0.415	0.392	0.386	0.280	0.257	0.291	0.318	0.257	0.263	0.232	0.289	0.254	0.337
245.0	131.7	266.6	380.3	1958	9999.9	9999.9	2680	118.4	20.05	15.19	13.56	11.41	9.375	8.465	6.995	6.030	5.316	4.738	4.319	3.698	3.520	3.418	2.999	2.948	2.942	2.667	2.335	2.292	2.511	1.988	1.937	1.818	1.784	1.593	1.792	1.526	1.493	1.180	1.247	1.113	1.081	1.051	0.899	1.077	0.927	1.215	1.376	1.511	1.307	1.620	3.288	9.281	28.28	53.82	77.09	27.21	15.84	2.514	0.770	0.568	0.561	0.509	0.472	0.410	0.511	0.422	0.390	0.380	0.370	0.309	0.309	0.351	0.234	0.263	0.287	0.284	0.308
250.0	73.79	157.1	323.1	587.3	2854	9553	9999.9	8761	175.3	28.53	19.56	16.04	12.25	10.00	8.994	6.973	5.933	5.298	4.964	4.274	3.977	3.398	3.250	3.196	2.964	2.907	2.707	2.535	2.441	2.192	2.092	1.913	1.887	1.603	1.650	1.513	1.465	1.264	1.246	1.137	1.120	1.149	1.084	1.054	0.993	1.020	1.130	1.378	1.448	1.553	1.647	2.808	7.004	14.98	34.06	50.28	80.49	72.80	57.97	11.90	2.922	0.682	0.526	0.510	0.517	0.448	0.463	0.451	0.422	0.403	0.358	0.386	0.321	0.299	0.312	0.334	0.318
255.0	79.69	74.54	180.9	444.3	794.0	2266	7805	9999.9	9999.9	227.1	32.61	23.03	16.59	12.61	10.60	8.585	7.161	6.562	5.373	5.086	4.551	3.845	3.596	3.406	2.949	3.084	2.670	2.969	2.656	2.462	2.305	2.066	1.875	1.655	1.667	1.373	1.556	1.507	1.350	1.172	1.303	1.161	1.119	1.094	1.110	1.022	1.052	1.020	1.017	1.204	1.584	2.277	2.564	4.038	8.316	12.14	22.77	49.67	119.2	155.9	30.47	18.39	2.386	0.738	0.693	0.573	0.446	0.536	0.426	0.491	0.390	0.351	0.376	0.406	0.288	0.317	0.331
260.0	74.31	67.07	82.20	286.3	489.1	616.2	2109	9999.9	9999.9	9999.9	171.1	35.52	22.64	17.62	12.62	10.56	8.321	7.051	5.741	5.312	4.813	4.168	3.943	3.732	3.363	3.462	3.032	3.101	2.985	2.677	2.424	2.288	2.059	1.837	1.828	1.618	1.555	1.519	1.424	1.346	1.322	1.356	1.169	1.099	1.144	1.114	1.092	0.980	0.934	0.919	1.179	1.978	2.497	2.469	2.734	3.385	5.905	12.54	39.30	101.7	166.8	192.1	28.55	12.79	1.442	0.779	0.621	0.595	0.453	0.447	0.438	0.461	0.369	0.450	0.439	0.389	0.343
265.0	75.29	65.20	53.35	124.1	397.0	422.6	552.0	3192	9999.9	9999.9	1794	121.2	33.19	23.93	16.02	12.51	9.597	8.558	6.920	6.261	5.544	4.565	4.675	3.929	3.506	3.581	3.322	3.090	2.925	2.592	2.543	2.685	2.215	2.040	1.959	1.754	1.493	1.536	1.431	1.477	1.446	1.331	1.168	1.272	1.220	1.252	1.157	0.975	0.958	0.762	0.881	1.323	1.851	2.688	2.702	1.839	2.031	3.547	9.653	25.93	68.77	169.9	225.2	182.8	24.11	6.267	0.935	0.737	0.632	0.545	0.574	0.562	0.541	0.541	0.465	0.426	0.431
270.0	97.95	82.84	57.20	68.80	174.8	405.7	433.1	820.7	3527	9999.9	9999.9	9999.9	536.0	42.47	25.62	18.49	13.84	10.81	9.152	7.722	6.488	5.338	5.348	4.539	4.073	4.154	3.534	3.481	3.208	3.264	2.850	2.798	2.492	2.227	2.222	1.962	1.777	1.707	1.578	1.408	1.519	1.447	1.314	1.371	1.280	1.291	1.085	1.019	0.994	0.924	0.947	0.975	1.119	1.548	2.235	2.640	2.690	2.322	3.002	6.564	16.32	43.30	85.81	155.4	189.1	217.7	122.8	15.85	6.163	1.064	0.790	0.758	0.663	0.613	0.557	0.472	0.560
275.0	116.6	112.9	76.71	67.42	81.58	169.5	481.8	508.3	885.3	2456	9999.9	9999.9	9999.9	148.1	45.93	29.47	19.65	15.11	12.37	9.348	7.939	6.996	6.501	5.338	4.891	4.644	3.956	3.636	3.465	3.861	3.164	3.192	2.885	2.588	2.337	2.227	2.112	1.795	1.726	1.556	1.594	1.547	1.443	1.455	1.417	1.620	1.392	1.174	1.143	1.016	0.983	0.989	1.044	1.017	1.146	1.489	2.336	3.808	3.548	2.907	4.537	10.53	19.89	35.77	48.22	100.8	236.6	353.6	208.1	24.77	5.067	1.033	0.981	0.731	0.741	0.721	0.565
280.0	145.3	136.6	107.0	81.92	66.95	88.04	254.2	625.0	434.8	644.1	2738	9999.9	9999.9	8056	113.4	43.55	27.49	20.41	14.57	11.33	9.376	8.151	6.994	5.968	5.271	5.046	4.766	4.292	4.017	3.747	3.303	3.389	3.108	3.018	2.581	2.431	2.240	2.031	1.943	1.645	1.643	1.446	1.539	1.446	1.454	1.598	1.418	1.321	1.246	1.143	0.959	0.952	0.985	0.959	1.092	1.023	1.404	2.365	3.712	4.009	3.294	3.388	5.413	8.716	11.91	24.22	66.94	180.0	336.9	258.2	33.62	18.72	2.385	1.173	0.964	0.814	0.754
285.0	175.3	171.1	137.5	91.05	67.69	73.81	120.1	422.4	631.4	318.1	731.8	3434	9999.9	9999.9	5565	85.50	39.05	26.04	18.84	14.49	11.35	8.996	7.633	6.487	5.998	5.321	5.293	4.372	4.072	3.887	3.682	3.353	3.239	3.145	2.703	2.540	2.302	2.107	1.986	1.964	1.691	1.550	1.731	1.706	1.667	1.718	1.409	1.489	1.395	1.222	1.132	1.069	1.082	1.084	1.180	1.008	1.163	1.484	2.011	3.277	4.437	3.462	2.610	2.974	3.686	6.505	16.23	43.18	107.8	229.5	378.1	246.9	29.67	12.75	1.450	1.058	0.999
290.0	218.0	199.1	175.0	117.6	80.14	70.64	83.61	181.6	468.3	605.1	345.5	912.4	3631	9999.9	9999.9	9999.9	313.6	41.77	27.73	19.62	14.93	11.74	9.433	8.192	7.238	6.697	5.836	4.883	4.784	4.619	4.333	3.566	3.521	3.333	3.075	2.793	2.622	2.457	2.062	2.048	1.851	1.775	1.792	1.797	1.639	1.879	1.622	1.601	1.491	1.328	1.324	1.285	1.177	1.142	1.135	1.151	1.230	1.215	1.339	1.723	2.501	3.379	4.086	3.967	2.872	2.631	4.881	10.82	25.38	55.28	118.7	192.9	284.7	290.6	224.2	94.18	9.994
295.0	227.7	254.2	205.1	143.4	101.0	85.88	90.62	114.4	206.4	498.7	721.9	391.5	964.6	2492	9999.9	9999.9	9999.9	90.74	43.19	29.61	20.33	15.47	12.22	10.27	9.092	7.541	6.408	5.709	5.348	5.091	4.493	4.267	3.818	3.798	3.371	2.933	2.940	2.709	2.280	2.304	1.983	2.038	1.964	1.777	1.911	1.793	1.759	1.733	1.594	1.498	1.391	1.410	1.298	1.271	1.353	1.267	1.331	1.264	1.207	1.602	1.597	1.933	2.432	3.842	5.035	4.141	2.804	3.699	6.988	13.71	27.74	44.28	67.22	102.5	251.2	453.2	269.2
300.0	276.8	289.4	248.8	165.2	112.2	95.10	105.3	120.0	153.4	288.7	743.7	622.0	413.1	718.2	2717	9999.9	9999.9	4925	78.71	39.83	27.96	19.98	15.44	11.76	10.03	8.436	7.728	6.790	6.250	5.516	4.959	4.929	3.965	3.812	3.525	3.168	2.992	2.667	2.412	2.517	2.167	2.274	2.007	1.953	1.781	1.941	1.864	1.974	1.698	1.720	1.356	1.555	1.481	1.429	1.530	1.351	1.356	1.424	1.412	1.510	1.522	1.703	1.731	2.334	3.741	5.529	4.762	3.383	3.262	4.452	7.685	11.07	16.29	24.53	64.38	180.4	368.7
305.0	314.6	309.4	277.3	184.8	130.2	113.9	125.8	140.9	169.9	242.2	478.7	882.9	478.2	354.1	769.1	3391	9999.9	9999.9	3703	65.97	37.60	26.18	19.10	14.25	12.15	9.911	8.890	7.314	6.958	6.085	5.802	4.912	4.375	3.812	4.006	3.197	3.236	3.024	2.678	2.560	2.390	2.322	2.233	1.894	1.821	2.172	1.939	2.211	1.891	1.785	1.505	1.530	1.521	1.507	1.456	1.376	1.685	1.492	1.589	1.605	1.731	1.768	1.738	1.878	2.509	3.423	4.929	5.704	4.078	2.900	3.335	3.902	5.175	6.802	15.75	42.66	104.2
310.0	326.2	330.5	311.8	209.8	146.7	133.2	144.8	165.5	192.1	248.2	344.1	604.7	758.4	457.1	350.0	895.0	3821	9999.9	9999.9	9999.9	216.5	39.70	27.00	19.88	14.91	12.11	9.903	8.425	7.860	6.819	6.065	5.503	5.163	4.454	4.028	3.529	3.452	3.263	3.062	2.827	2.720	2.531	2.515	2.121	2.248	2.264	2.258	2.298	2.040	1.899	1.725	1.700	1.664	1.604	1.596	1.564	1.706	1.630	1.744	1.707	1.764	1.896	1.937	2.026	2.152	2.479	3.092	3.937	4.614	4.564	3.898	2.952	2.963	3.070	5.032	11.09	24.79
315.0	360.1	376.3	366.3	229.2	172.9	151.5	159.4	187.5	215.7	271.2	324.0	417.5	565.5	747.4	378.8	340.8	967.3	2475	9999.9	9999.9	9999.9	69.90	40.15	27.39	20.17	15.32	12.81	10.75	8.987	7.882	6.853	5.861	5.481	4.886	4.508	3.898	3.816	3.365	3.194	3.070	3.011	2.804	2.536	2.352	2.402	2.419	2.363	2.232	2.122	2.059	1.784	1.777	1.803	1.711	1.733	1.689	1.724	1.673	1.862	1.835	1.909	1.893	2.033	2.156	2.280	2.368	2.596	2.770	2.984	3.454	4.865	4.837	3.457	2.435	2.596	3.835	6.927
320.0	383.8	422.4	431.0	267.3	189.9	161.6	174.6	198.7	227.6	290.3	334.9	385.2	430.4	647.1	598.5	255.9	335.0	653.5	2793	9999.9	9999.9	3654	63.18	37.61	26.06	19.70	14.50	12.18	10.23	9.071	7.708	6.421	5.765	5.183	5.017	4.357	3.885	3.749	3.295	3.203	2.972	2.730	2.774	2.343	2.539	2.685	2.840	2.697	2.511	2.216	1.927	2.035	1.915	1.781	1.791	1.914	1.895	1.799	1.979	1.839	1.962	2.146	2.073	2.260	2.505	2.396	2.592	2.675	2.765	2.736	3.381	4.192	4.786	3.908	2.541	2.375	2.847
325.0	428.1	476.5	503.2	319.2	206.9	177.3	183.0	212.2	244.6	298.8	349.9	392.4	406.3	473.2	649.4	381.9	204.3	242.8	713.5	3757	9999.9	9999.9	2770	55.76	33.74	24.51	17.26	13.93	11.37	10.07	8.414	7.188	6.346	5.591	5.035	4.467	4.034	3.967	3.434	3.352	3.083	2.872	2.854	2.761	2.936	2.884	2.825	2.872	2.956	2.424	2.110	2.158	2.011	1.802	1.963	1.915	1.929	1.946	2.068	1.878	2.041	2.150	2.065	2.416	2.401	2.366	2.804	2.623	2.730	2.763	2.851	2.956	3.738	4.338	4.215	2.850	2.153
330.0	465.4	546.7	565.0	385.1	249.2	194.0	192.8	217.5	254.8	309.0	362.6	399.5	406.1	403.3	447.1	483.0	312.4	163.4	237.3	920.3	4328	9999.9	9999.9	9999.9	169.0	36.05	24.88	18.37	14.67	12.26	10.08	8.683	7.223	6.545	5.685	4.862	4.419	4.035	3.638	3.480	3.288	3.054	2.895	2.885	2.935	2.949	2.963	3.060	3.215	2.575	2.226	2.352	2.161	2.058	2.045	1.938	1.879	2.108	2.007	2.013	2.212	2.108	2.139	2.449	2.454	2.410	2.658	2.758	2.592	2.791	2.813	2.567	2.907	3.039	3.631	3.785	3.467
335.0	472.2	597.3	605.7	449.3	293.7	227.6	212.0	239.1	259.5	311.5	368.3	409.0	413.0	392.2	360.2	335.9	439.8	256.0	137.3	276.2	1032	2498	9999.9	9999.9	9999.9	59.47	36.31	25.17	18.81	15.59	12.29	9.924	8.855	7.027	6.105	5.267	4.363	4.221	3.885	3.752	3.522	3.297	3.087	3.080	2.939	3.159	3.257	3.259	3.342	2.920	2.368	2.515	2.348	2.236	2.107	1.978	2.115	2.272	2.145	2.247	2.284	2.306	2.443	2.549	2.749	2.660	2.730	2.809	2.685	2.511	3.000	2.625	2.668	2.643	2.422	2.451	2.865
340.0	484.9	606.2	625.9	474.9	322.6	243.8	225.6	242.9	265.6	313.1	364.4	406.9	404.6	388.3	338.4	268.6	340.9	376.5	160.9	134.2	296.6	624.2	2985	9999.9	9999.9	3082	55.37	33.23	23.70	18.75	14.53	11.51	9.146	7.874	6.921	5.616	5.122	4.703	3.801	3.848	3.513	3.442	3.136	3.036	2.875	3.064	3.249	3.414	3.285	2.898	2.573	2.603	2.353	2.360	2.168	2.088	2.307	2.321	2.199	2.301	2.329	2.381	2.452	2.504	2.731	2.418	2.795	2.832	2.632	2.618	3.000	2.652	2.663	2.640	2.237	2.239	2.351
345.0	466.5	591.1	648.4	493.7	338.4	258.3	234.8	243.6	265.4	309.6	353.9	393.7	396.4	378.9	328.2	252.8	247.9	350.5	271.0	121.1	133.1	202.6	737.3	4292	9999.9	9999.9	414.1	47.72	29.83	21.92	16.85	12.96	10.62	8.675	7.285	5.987	5.311	4.777	4.208	3.668	3.561	3.579	3.257	3.046	3.140	3.276	3.311	3.125	3.308	2.917	2.644	2.724	2.321	2.360	2.118	2.131	2.272	2.128	2.047	2.414	2.284	2.101	2.239	2.466	2.506	2.591	2.504	2.766	2.699	2.629	2.973	2.789	2.808	2.368	2.235	2.049	2.195
350.0	458.8	549.7	588.0	491.0	351.0	277.8	245.3	251.9	265.2	301.9	337.4	375.9	376.4	360.7	314.6	251.4	218.5	230.8	294.3	224.9	119.9	110.2	226.0	1028	4836	9999.9	9999.9	9999.9	48.47	30.79	22.15	16.38	12.38	9.801	8.177	6.556	5.865	5.119	4.589	4.079	3.814	3.542	3.318	3.221	3.243	3.229	3.151	3.188	3.118	2.791	2.531	2.651	2.502	2.378	2.294	2.072	2.242	2.314	2.036	2.257	2.274	2.181	2.174	2.289	2.505	2.398	2.464	2.589	2.409	2.474	2.489	2.526	2.502	2.330	2.230	2.064	2.099
355.0	410.9	510.6	559.5	474.6	368.0	302.5	264.4	265.8	273.5	302.1	332.1	355.9	352.0	342.2	305.8	250.0	217.1	190.6	203.2	280.1	206.4	104.3	116.1	288.0	1136	2537	9999.9	9999.9	9999.9	53.94	31.22	21.56	15.79	11.89	9.842	7.555	6.247	5.557	4.721	4.564	4.136	3.545	3.248	3.235	2.991	3.116	3.037	2.972	3.215	2.764	2.525	2.887	2.596	2.377	2.298	2.105	2.185	2.238	2.200	2.169	2.230	2.162	2.242	2.266	2.336	2.408	2.353	2.423	2.237	2.434	2.445	2.464	2.387	2.382	2.243	2.175	2.080
360.0	379.3	477.7	538.9	465.6	383.6	318.9	291.3	275.0	278.8	304.4	329.7	345.1	343.8	337.6	301.6	252.1	220.9	192.5	175.0	217.3	275.7	150.5	97.72	124.8	310.5	626.0	3039	9999.9	9999.9	2886	49.42	28.64	19.74	14.88	10.91	8.436	7.349	6.115	5.017	4.865	4.154	3.904	3.355	3.165	3.295	3.154	2.970	3.161	3.042	2.653	2.737	2.667	2.598	2.528	2.323	2.260	2.353	2.345	2.152	2.262	2.195	2.161	2.277	2.226	2.385	2.293	2.229	2.261	2.376	2.318	2.316	2.390	2.269	2.318	1.973	1.953	2.173
365.0	367.6	456.9	501.4	467.6	383.4	326.6	297.2	292.5	298.7	306.2	327.0	340.3	333.5	331.4	298.3	254.6	229.7	199.1	173.4	173.6	247.4	235.5	117.8	96.20	128.4	197.3	741.3	4422	9999.9	9999.9	384.9	44.02	25.80	18.21	13.28	9.877	7.952	7.129	5.714	5.289	4.472	4.105	3.632	3.088	3.443	3.090	3.058	3.303	3.138	2.687	2.540	2.552	2.767	2.568	2.219	2.316	2.269	2.278	2.269	2.219	2.461	2.356	2.163	2.315	2.316	2.223	2.389	2.285	2.309	2.289	2.190	2.454	2.297	2.531	2.124	2.012	2.153
370.0	370.5	438.2	480.1	444.5	390.8	349.9	316.8	309.5	311.0	316.7	331.5	333.2	329.2	322.2	295.2	257.6	237.8	208.3	187.1	172.6	185.9	235.5	206.4	117.3	95.92	103.8	219.8	1051	4993	9999.9	9999.9	9415	135.4	26.59	18.09	12.53	9.952	8.066	6.265	5.560	4.806	4.190	3.765	3.588	3.280	3.162	3.224	3.246	3.049	2.731	2.526	2.850	2.772	2.562	2.474	2.421	2.469	2.451	2.460	2.390	2.483	2.370	2.175	2.307	2.382	2.228	2.341	2.305	2.259	2.211	2.309	2.457	2.269	2.216	2.184	2.258	2.108
375.0	368.0	428.0	464.9	443.4	396.2	370.5	342.2	324.7	322.7	323.7	329.6	333.4	323.1	313.3	291.3	261.5	242.4	221.3	201.8	185.8	169.3	179.4	228.1	196.9	108.8	89.88	107.2	285.6	1164	2580	9999.9	9999.9	9999.9	45.67	26.07	16.73	13.14	9.526	7.589	6.380	5.653	4.805	4.371	3.852	3.527	3.479	3.186	3.123	3.272	2.890	2.423	2.753	2.627	2.839	2.439	2.451	2.650	2.481	2.505	2.527	2.544	2.414	2.314	2.340	2.356	2.118	2.184	2.432	2.234	2.202	2.424	2.414	2.243	2.163	2.314	2.200	2.080
380.0	356.0	417.5	451.4	442.8	416.5	382.5	362.8	341.4	335.3	330.0	331.9	335.4	323.1	307.3	290.4	262.1	246.4	229.0	213.1	192.2	176.3	167.7	188.2	236.2	153.7	95.79	85.49	118.4	309.1	629.6	3188	9999.9	9999.9	2446	40.02	21.73	16.02	11.59	8.817	7.447	6.083	5.256	4.863	4.120	3.898	3.721	3.543	3.429	3.206	2.906	2.739	2.811	2.936	2.804	2.785	2.483	2.567	2.581	2.356	2.506	2.412	2.519	2.469	2.555	2.510	2.388	2.132	2.481	2.214	2.347	2.290	2.217	2.099	2.021	2.213	2.219	2.273
385.0	366.2	396.9	451.2	438.1	424.7	396.7	367.4	356.9	341.0	338.1	336.9	337.2	319.1	308.3	288.3	264.0	246.2	232.9	215.6	199.9	184.5	168.4	165.6	210.3	210.0	117.5	85.90	83.44	120.7	189.6	768.6	4408	9999.9	9999.9	1879	33.29	20.09	14.02	10.78	8.288	6.625	5.623	5.139	4.393	4.084	3.972	3.393	3.217	3.179	2.751	2.817	2.915	2.930	2.605	2.786	2.834	2.740	2.707	2.634	2.499	2.566	2.674	2.521	2.360	2.526	2.407	2.218	2.289	2.178	2.148	2.198	2.170	2.224	2.064	2.282	2.058	2.168
390.0	343.6	398.3	446.2	439.7	424.8	404.0	384.8	373.5	352.6	343.4	336.8	334.1	316.6	301.3	285.8	263.4	248.0	238.9	223.6	209.3	190.3	178.3	167.0	171.0	199.7	182.2	112.0	84.03	82.83	91.26	216.7	1039	4497	9999.9	9999.9	7872	121.6	20.69	14.10	10.69	8.134	6.732	5.568	4.830	4.426	4.282	3.615	3.500	3.280	2.943	2.793	2.949	2.981	2.993	2.844	2.639	2.808	2.802	2.708	2.563	2.595	2.598	2.507	2.525	2.482	2.433	2.432	2.311	2.249	2.144	2.301	2.217	2.233	2.130	2.129	2.118	2.104
395.0	333.5	399.6	428.1	446.7	420.6	413.7	392.9	378.8	365.9	353.8	343.4	330.9	320.2	305.6	280.6	261.9	249.6	240.5	228.7	212.8	199.1	184.5	171.3	161.1	160.8	188.8	173.5	103.9	81.77	74.71	94.97	274.2	1042	2479	9999.9	9999.9	9999.9	38.97	20.87	14.06	10.69	8.180	6.586	5.410	4.767	4.396	4.314	3.659	3.499	3.195	2.902	2.991	2.980	3.036	2.746	2.846	2.851	2.872	2.780	2.792	2.448	2.509	2.515	2.569	2.450	2.471	2.461	2.234	2.341	2.252	2.358	2.181	2.295	2.132	2.245	2.184	2.209
400.0	339.5	398.6	412.3	430.2	421.3	412.7	403.1	385.6	368.8	356.2	341.6	334.1	316.8	298.4	279.1	259.3	248.4	237.4	229.4	216.9	202.6	188.8	177.3	162.7	151.3	158.2	192.6	142.8	89.72	74.98	70.65	103.4	269.7	592.2	2852	9999.9	9999.9	2199	35.43	18.22	13.22	9.839	7.848	6.092	5.265	4.696	4.375	4.073	3.632	3.225	2.850	3.093	2.964	2.919	2.739	2.883	2.851	2.739	2.590	2.482	2.723	2.590	2.563	2.516	2.290	2.389	2.433	2.108	2.379	2.270	2.237	2.090	2.148	2.054	1.994	2.143	2.365
405.0	316.7	358.9	418.5	425.5	429.3	417.3	411.0	392.9	378.7	354.5	345.0	336.2	312.7	293.4	275.4	255.7	245.7	233.2	226.5	216.7	202.1	191.2	179.3	166.2	154.0	143.8	168.0	179.3	113.3	79.14	67.69	66.69	97.47	166.2	675.5	3481	9999.9	9999.9	1850	30.71	15.74	11.60	9.288	6.892	5.917	5.337	4.317	4.183	3.669	3.395	2.861	3.119	3.024	2.697	2.842	2.780	2.886	2.865	2.798	2.618	2.635	2.553	2.492	2.666	2.393	2.207	2.457	2.152	2.318	2.235	2.229	2.159	2.155	2.193	1.960	2.163	2.019
410.0	305.5	371.3	405.7	422.9	418.6	418.0	406.1	398.6	379.2	360.5	345.6	332.8	308.7	286.0	267.9	250.8	237.1	227.6	219.8	213.4	200.1	188.3	181.8	168.9	155.9	142.5	141.9	161.7	156.4	104.5	72.76	61.39	60.01	70.30	181.0	810.3	3546	9999.9	9999.9	7731	122.4	17.03	11.75	8.913	6.592	5.912	4.846	4.384	3.844	3.495	2.967	3.099	3.238	2.830	2.938	2.774	3.068	3.014	3.006	2.773	2.700	2.670	2.584	2.477	2.392	2.325	2.328	2.183	2.194	2.147	2.101	2.159	2.199	2.129	1.978	2.293	2.096
415.0	291.9	372.0	395.0	397.3	415.3	414.4	399.1	396.0	372.9	367.0	352.4	332.2	300.6	279.4	260.5	240.9	225.6	219.5	210.3	206.5	195.8	186.3	179.2	168.4	157.2	143.8	135.2	132.9	151.2	147.1	90.54	64.82	54.12	49.64	70.44	206.4	815.8	2353	9999.9	9999.9	9999.9	36.46	17.05	11.37	8.485	6.841	5.429	4.799	3.986	3.667	3.286	3.258	3.288	3.116	3.033	2.936	2.999	2.955	2.973	2.907	2.814	2.698	2.790	2.682	2.179	2.392	2.314	2.214	2.099	2.200	2.097	2.053	2.173	2.034	2.226	2.186	2.146
420.0	280.9	349.9	385.2	400.4	401.8	393.0	384.3	390.2	383.8	360.7	351.6	322.1	294.0	275.9	253.8	233.1	219.0	213.9	205.5	199.0	190.7	180.6	175.6	166.9	157.3	144.1	133.6	126.4	127.8	152.0	120.0	72.41	55.37	47.30	45.68	71.76	206.1	549.7	2511	9999.9	9999.9	2108	33.19	14.76	10.52	8.368	6.312	5.255	4.480	3.926	3.602	3.439	3.335	3.147	3.224	2.862	2.940	3.041	2.951	2.879	2.819	2.737	2.756	2.439	2.416	2.237	2.344	2.234	2.298	2.156	1.994	2.091	2.184	2.258	2.126	2.167	2.007
425.0	299.1	333.0	376.1	379.7	399.4	391.0	386.1	384.5	380.9	357.7	344.8	319.6	291.6	268.9	246.8	226.7	214.7	204.9	199.3	192.1	185.1	177.5	170.9	164.0	154.9	144.3	133.5	124.3	115.8	128.6	140.4	89.95	59.24	47.91	39.95	41.69	68.98	144.6	585.4	2839	9999.9	9999.9	1880	28.28	13.75	9.973	7.230	5.994	4.966	4.071	3.507	3.658	3.307	3.507	3.142	2.938	3.017	3.037	2.811	3.070	2.696	2.710	2.764	2.499	2.225	2.329	2.384	2.239	2.163	2.155	1.933	1.860	2.284	2.133	1.911	1.905	2.094
430.0	535.3	328.4	363.9	379.0	386.7	382.2	386.9	380.0	374.2	359.5	343.5	317.9	284.6	260.0	237.9	217.0	206.9	196.6	192.4	183.7	178.1	173.1	165.9	160.2	152.2	141.6	133.8	124.2	115.3	111.8	123.5	115.9	76.81	52.56	41.78	36.16	39.32	53.50	150.7	656.0	2851	9999.9	9999.9	8247	127.6	16.34	9.890	7.702	5.982	4.638	3.900	3.900	3.651	3.400	3.286	3.196	3.244	3.208	3.017	3.032	3.033	2.714	2.660	2.628	2.438	2.429	2.269	2.145	2.180	2.086	2.047	1.902	2.008	1.944	2.050	1.874	2.013
435.0	1408	391.5	345.4	360.9	372.7	381.7	380.8	369.6	371.8	358.5	341.1	309.8	285.7	256.5	225.6	210.7	196.9	188.2	183.2	176.7	169.4	165.2	159.9	155.8	149.5	142.7	131.9	124.2	116.7	107.2	101.7	106.2	105.2	65.77	43.71	37.46	33.12	33.39	53.35	165.1	653.6	2279	6610	9999.9	9999.9	196.5	15.75	10.66	7.626	5.753	4.657	4.221	3.977	3.677	3.593	3.495	3.541	3.361	3.077	2.801	2.901	2.911	2.910	2.505	2.555	2.380	2.257	2.160	2.235	2.184	1.899	1.881	1.996	1.991	1.938	1.798	1.921
440.0	2122	760.1	341.4	348.6	356.6	363.7	368.9	372.3	360.0	350.0	337.6	306.8	280.7	248.8	220.1	203.4	189.5	180.2	176.6	170.9	163.6	159.3	154.5	149.3	146.3	140.9	131.2	121.2	116.9	106.5	99.06	91.61	104.4	86.10	52.22	38.97	33.41	28.66	31.17	54.76	163.1	527.0	1593	9540	9999.9	9999.9	30.58	15.33	9.488	6.687	5.481	4.662	4.374	4.061	3.900	3.668	3.590	3.363	3.218	3.113	2.941	2.991	2.831	2.610	2.688	2.333	2.162	2.195	2.222	2.077	1.966	1.816	2.045	1.915	1.863	1.845	2.047
445.0	2342	1685	373.3	336.1	349.0	352.4	363.6	364.2	361.5	348.9	327.3	305.0	270.0	241.8	215.7	194.6	184.3	174.0	170.1	161.5	156.1	151.3	149.8	145.6	141.0	135.8	127.9	120.2	113.0	106.0	97.11	85.93	89.43	94.13	65.28	42.74	34.42	28.70	26.79	30.49	53.31	133.9	374.9	2402	9999.9	9999.9	1747	28.82	12.60	8.038	6.257	5.427	4.851	4.469	3.923	3.545	3.862	3.437	3.386	3.124	2.949	2.855	2.702	2.625	2.604	2.382	2.238	2.301	2.038	2.132	1.996	1.830	1.901	1.914	1.642	1.969	2.053
450.0	1352	3600	946.0	327.1	331.5	335.3	343.2	342.5	343.5	335.0	322.4	295.3	260.8	233.1	206.0	184.0	171.9	163.3	159.4	151.5	146.6	144.1	139.8	136.1	133.6	128.2	122.3	116.5	110.5	103.9	96.11	83.84	76.76	79.66	78.35	54.93	36.78	30.17	26.94	24.91	28.44	45.67	99.54	553.5	2555	9099	9999.9	7820	115.8	14.10	8.193	6.860	5.546	4.951	4.400	3.778	3.818	3.638	3.533	3.242	3.115	2.808	2.752	2.756	2.659	2.416	2.241	2.285	2.191	2.054	2.064	1.893	1.921	1.929	1.800	1.840	1.776
455.0	506.4	3328	3906	486.8	314.6	305.0	313.7	326.6	330.6	322.8	301.2	274.8	242.7	216.1	191.3	169.4	159.5	149.1	147.5	139.8	136.0	131.3	127.4	126.0	122.4	118.4	114.4	110.0	105.5	100.4	91.75	80.79	70.92	64.97	68.96	69.01	46.23	32.27	27.17	24.04	22.64	25.19	35.88	137.7	584.0	2057	4758	9999.9	9999.9	168.7	14.34	8.652	6.910	5.469	4.684	4.089	4.053	3.876	3.441	3.197	3.114	2.972	2.820	2.699	2.525	2.381	2.321	2.189	1.946	2.130	1.884	1.728	1.918	1.784	1.738	1.801	1.741
460.0	295.2	1849	5988	903.0	295.9	290.4	293.9	307.7	308.6	309.9	289.5	264.1	237.4	206.1	182.1	159.9	149.7	139.3	137.9	127.9	125.6	123.6	118.6	116.5	115.4	112.7	107.8	104.3	101.3	96.85	89.10	78.35	69.08	59.35	56.19	65.33	56.83	36.53	27.37	24.21	21.41	20.43	21.88	44.56	144.0	473.9	1114	6367	9999.9	9570	133.6	12.80	8.712	6.684	5.454	4.669	4.400	4.105	3.551	3.208	3.436	3.061	2.751	2.838	2.433	2.587	2.169	2.079	2.045	2.047	1.864	1.851	1.803	1.831	1.840	1.857	1.708
465.0	248.2	731.6	5712	3585	346.8	281.1	287.6	291.8	294.6	286.2	271.9	256.5	226.1	197.8	172.3	150.6	140.5	132.6	126.9	121.5	117.6	114.0	110.1	110.6	106.5	105.9	101.0	99.95	95.07	92.28	85.01	75.76	67.51	56.87	52.60	54.24	58.72	42.83	28.83	24.62	21.60	19.39	19.15	22.86	45.21	119.1	264.8	1537	9050	9999.9	7519	26.94	11.99	7.849	6.640	5.317	4.847	4.362	3.949	3.500	3.437	3.301	2.734	2.858	2.864	2.646	2.247	2.315	2.289	1.931	1.961	1.857	1.741	1.761	1.691	1.773	1.682
470.0	235.9	347.3	2820	6529	1621	272.3	266.6	267.7	273.9	269.2	251.8	237.6	209.4	180.4	157.4	140.8	127.7	121.3	114.7	110.8	104.6	103.8	100.8	98.81	97.52	95.63	91.87	89.66	88.27	85.46	78.23	70.95	62.34	54.91	48.24	45.26	47.17	48.39	35.09	24.89	21.04	19.08	17.21	17.64	21.94	38.28	71.37	356.6	2183	6764	9999.9	7193	630.4	14.49	8.239	6.422	5.477	4.627	4.236	3.633	3.417	3.261	2.859	2.796	2.657	2.509	2.222	2.142	1.981	1.974	1.781	1.780	1.981	1.714	1.675	1.681	1.657
475.0	246.2	249.8	853.5	5311	5086	460.8	246.7	247.0	245.2	251.9	237.2	217.5	192.6	167.0	142.6	129.0	117.0	108.9	102.6	99.93	92.89	93.04	91.44	87.71	88.45	83.59	82.37	82.53	79.58	78.63	72.57	64.78	57.39	51.65	45.84	40.04	37.36	40.92	41.65	29.75	21.22	18.15	16.29	15.14	15.33	18.67	25.96	89.71	496.6	1522	3440	9999.9	9999.9	198.4	13.75	7.683	6.200	4.923	4.271	3.816	3.314	3.133	2.697	2.653	2.435	2.265	1.977	2.137	1.817	1.868	1.750	1.571	1.659	1.661	1.519	1.466	1.373
480.0	223.6	236.8	366.7	2723	8108	1610	233.5	230.2	238.0	234.2	221.7	202.5	177.7	155.8	136.5	120.2	108.9	102.1	96.29	92.53	87.75	85.96	84.41	81.45	80.21	78.12	77.53	76.75	72.94	73.53	67.29	61.88	55.82	49.76	43.17	37.83	34.94	33.74	39.24	34.60	23.13	18.56	16.18	14.58	14.00	14.08	15.37	29.37	119.7	348.9	791.9	4228	9999.9	9848	30.37	11.26	7.639	5.689	5.085	3.972	3.485	3.071	2.972	2.571	2.652	2.330	2.267	2.134	1.967	1.895	1.696	1.653	1.672	1.509	1.358	1.429	1.238
485.0	203.6	256.4	241.2	982.0	7773	4053	287.0	219.0	222.9	222.2	208.4	194.9	169.3	150.2	130.6	114.1	101.8	95.89	89.38	86.40	82.17	80.47	78.99	76.90	75.18	73.23	73.28	71.93	69.81	67.62	65.26	58.59	53.24	47.55	42.12	36.68	33.09	29.89	32.39	36.38	27.96	18.75	16.08	14.31	13.74	12.84	12.68	15.44	35.20	86.11	186.5	993.9	6447	9999.9	6714	26.85	9.996	6.981	5.680	4.480	3.826	3.318	3.040	2.840	2.501	2.217	2.263	2.039	1.847	1.843	1.561	1.635	1.647	1.468	1.423	1.401	1.359
490.0	161.8	251.2	223.5	371.1	3773	7863	1522	213.2	209.4	205.9	200.0	183.8	159.4	140.5	122.3	105.9	95.00	88.46	82.57	79.50	75.28	73.89	71.78	70.60	70.00	67.31	66.31	66.21	64.62	62.71	60.45	55.05	50.24	44.74	39.92	34.94	31.41	28.33	27.03	29.58	31.37	23.26	16.91	14.34	13.48	12.59	11.78	12.12	15.84	26.66	49.24	230.5	1524	5452	9999.9	7457	715.2	13.85	7.199	5.645	4.355	3.811	3.236	2.931	2.670	2.418	2.335	2.070	1.874	1.817	1.678	1.754	1.644	1.470	1.307	1.304	1.370
495.0	136.8	211.0	253.8	222.4	1055	6592	6024	340.5	194.5	191.9	186.3	166.4	148.8	127.0	111.1	98.22	87.77	79.94	75.11	71.07	67.26	67.01	63.64	64.18	62.35	61.00	60.53	59.12	58.84	57.43	55.00	50.63	46.19	41.13	37.08	33.58	29.97	26.25	24.12	23.56	26.34	27.71	19.98	14.63	13.25	12.24	11.48	10.70	11.11	12.64	17.25	58.28	347.1	1225	3331	9999.9	9999.9	223.8	13.58	6.974	5.255	4.311	3.676	2.980	2.728	2.550	2.577	2.206	1.687	1.700	1.713	1.548	1.487	1.355	1.348	1.368	1.318
500.0	130.6	160.7	246.9	195.1	368.6	3396	9285	1460	177.5	179.2	168.3	158.5	138.8	117.6	102.4	91.28	81.83	73.30	70.47	66.01	61.58	61.27	58.98	59.80	57.48	55.89	55.22	54.63	53.58	54.08	50.33	46.54	42.32	38.79	34.56	31.03	27.57	25.00	22.71	21.36	21.43	26.39	22.84	15.91	13.39	11.90	11.07	10.37	9.760	9.408	10.26	19.19	84.07	280.6	763.2	4045	9999.9	9999.9	184.0	9.832	6.285	4.792	4.070	3.472	2.776	2.421	2.433	2.048	1.721	1.792	1.736	1.684	1.324	1.267	1.374	1.178	1.368
505.0	116.9	133.7	237.4	208.6	194.6	1177	9061	3083	222.5	166.1	159.1	146.5	127.1	109.8	96.46	84.09	75.38	68.30	64.19	61.23	56.61	55.47	54.71	54.53	52.62	51.80	50.26	50.28	49.39	49.72	45.83	43.50	39.29	35.71	31.99	29.02	25.87	23.75	21.16	20.05	18.14	21.67	23.50	18.81	13.46	11.12	10.83	9.803	9.158	8.488	8.245	9.997	24.84	69.14	178.2	944.2	5624	9999.9	6726	28.78	8.305	5.732	4.328	3.669	3.242	2.590	2.243	2.230	1.818	1.719	1.711	1.618	1.272	1.236	1.333	1.190	1.108
510.0	103.7	117.6	177.1	223.5	159.0	378.4	4446	8901	1379	159.8	144.6	132.1	114.7	100.0	87.02	75.05	67.29	61.15	57.55	54.46	51.17	49.59	48.52	47.90	46.81	45.95	45.23	44.99	43.88	43.65	41.23	38.79	35.63	32.31	29.23	26.35	24.45	21.97	20.10	18.38	16.55	17.19	19.46	20.44	15.71	11.48	10.03	9.558	8.489	7.770	7.320	7.436	10.81	20.92	45.61	218.1	1316	4959	9999.9	7190	681.0	12.18	5.241	4.081	3.260	2.790	2.299	2.187	1.859	1.692	1.652	1.526	1.403	1.237	1.163	1.178	1.069
515.0	87.95	101.6	135.0	207.2	173.1	183.2	1184	8229	6527	254.9	132.7	118.7	103.6	88.88	77.94	67.10	60.25	55.34	51.19	48.23	45.08	42.75	42.38	42.10	41.20	39.33	38.95	39.38	39.01	38.75	36.87	35.10	31.69	29.18	26.42	24.09	22.33	20.08	18.31	16.53	15.03	14.19	14.01	17.44	18.18	13.19	9.857	8.731	7.917	7.139	6.823	6.698	7.230	9.182	15.10	54.05	299.3	1113	2931	9999.9	9999.9	223.2	10.35	5.033	4.003	2.946	2.597	2.096	1.921	1.706	1.632	1.393	1.366	1.238	1.071	1.053	1.129
520.0	99.11	94.68	111.2	165.2	197.7	131.0	359.6	4274	9999.9	1324	124.8	109.8	97.32	83.85	70.37	60.96	55.77	51.33	46.59	42.92	41.03	38.80	37.76	37.54	36.83	35.68	36.02	35.04	35.37	35.04	33.43	31.15	28.94	26.65	23.69	22.59	20.51	18.31	17.10	15.60	14.09	13.06	12.53	14.06	16.96	14.96	10.33	8.418	7.419	6.810	6.336	6.165	6.176	6.271	7.923	16.65	71.87	254.3	668.0	3618	9999.9	7478	32.57	7.352	4.478	3.311	2.699	2.247	1.898	1.711	1.551	1.545	1.242	1.298	1.030	1.089	1.044
525.0	84.72	84.67	96.45	121.9	200.2	130.2	165.3	1449	9999.9	4657	154.4	106.0	88.64	75.88	65.27	55.07	50.50	45.76	42.86	40.71	37.65	36.66	35.71	34.28	33.01	33.31	32.67	31.96	33.47	32.18	30.18	28.56	26.25	24.40	22.09	19.88	18.69	16.37	16.20	14.18	13.08	12.19	11.67	11.54	14.13	15.11	11.76	8.272	6.864	6.514	5.986	5.619	5.754	5.700	5.824	8.209	20.65	61.88	155.1	835.8	4661	9999.9	1918	27.95	6.089	4.082	2.953	2.715	2.180	1.775	1.515	1.507	1.327	1.248	1.087	1.073	1.136
530.0	71.99	77.31	84.64	91.87	167.4	154.6	112.5	414.0	5453	9999.9	946.5	101.4	83.10	70.20	60.38	50.42	45.44	41.61	38.38	36.07	34.01	33.25	31.19	30.96	29.67	29.42	28.24	28.69	28.28	28.03	26.52	25.23	23.36	21.59	19.50	17.55	16.17	14.79	14.25	12.90	11.57	11.10	10.42	9.748	10.64	12.75	12.87	9.306	6.808	5.808	5.529	5.207	5.210	5.311	5.339	5.379	8.503	17.89	39.24	191.5	1087	4295	8359	5305	132.6	9.384	4.073	2.931	2.315	2.091	1.689	1.510	1.314	1.227	1.066	1.138	1.018
535.0	61.36	66.92	78.22	80.56	108.0	169.4	107.6	161.4	1421	9999.9	6692	168.2	75.74	63.85	53.89	45.26	41.22	36.15	33.78	31.29	29.21	29.29	27.75	26.24	25.79	26.10	24.23	24.39	24.39	24.69	22.98	21.62	20.38	18.68	17.20	15.60	14.77	13.50	12.07	11.42	10.80	9.854	9.261	8.578	8.402	9.257	11.13	11.01	7.234	5.327	5.170	4.667	4.734	4.507	4.913	4.772	5.175	7.199	12.23	46.37	246.4	962.4	2385	7941	7210	208.9	7.657	3.696	2.855	2.237	1.842	1.490	1.432	1.422	1.014	0.990	0.983
540.0	60.54	65.95	62.64	75.36	81.34	154.8	129.7	101.4	389.1	5141	9999.9	924.4	69.30	58.70	49.56	41.02	36.42	32.40	29.80	28.39	25.63	25.02	24.83	23.27	22.67	22.67	21.95	22.00	21.73	21.37	20.75	19.13	18.14	16.66	15.38	14.10	13.46	12.39	11.20	10.35	9.629	8.902	8.432	7.746	7.668	7.448	8.750	10.42	8.165	5.506	4.745	4.460	4.290	4.124	4.405	4.664	4.265	4.598	5.742	13.64	58.46	218.7	541.5	2789	9447	5209	31.92	5.489	3.177	2.251	2.000	1.562	1.507	1.266	1.062	1.001	0.914
545.0	59.14	63.40	60.82	61.63	64.51	122.0	141.4	84.56	149.7	1667	9999.9	3930	84.19	53.59	47.32	38.02	33.03	29.44	27.59	25.48	23.82	23.17	22.01	20.64	19.80	20.65	19.81	19.97	19.42	19.42	17.62	17.73	15.96	14.91	13.82	12.81	12.10	10.66	9.904	9.050	8.454	8.371	7.593	7.341	6.920	6.448	7.044	8.861	8.835	6.096	4.364	4.148	3.774	3.674	3.777	4.193	4.289	3.866	4.018	5.936	16.41	52.19	125.3	642.5	3922	8970	1857	25.49	4.230	2.764	2.161	1.689	1.620	1.317	1.049	1.079	0.890
550.0	59.20	55.11	53.75	54.96	53.10	77.53	142.3	91.24	84.35	439.8	5472	9999.9	653.7	51.72	40.62	33.70	28.38	25.82	23.90	22.57	20.88	19.39	18.35	18.03	17.21	17.29	16.73	17.01	16.78	16.39	15.51	14.68	13.75	12.98	12.06	10.76	10.16	9.184	8.849	7.903	7.386	7.163	6.679	6.527	6.086	5.697	5.590	6.030	7.525	6.899	4.982	3.845	3.451	3.251	3.258	3.388	3.856	3.731	3.382	3.723	6.222	14.38	30.92	146.9	907.2	3395	5900	3837	131.1	7.305	2.631	2.073	1.633	1.276	1.217	1.095	0.924
555.0	52.96	52.77	48.27	45.69	46.24	54.47	102.9	116.0	63.00	142.6	1393	9999.9	5379	95.99	38.17	29.43	24.60	22.01	20.56	18.41	17.25	16.32	15.52	15.08	14.60	14.41	14.02	13.96	14.04	13.32	13.37	12.47	11.42	10.59	9.869	8.832	8.523	8.087	7.482	6.723	6.628	6.116	5.618	5.188	5.126	5.068	4.536	4.712	5.027	6.341	5.647	3.956	3.076	2.875	2.734	2.873	3.201	3.338	3.358	2.915	3.259	5.282	9.085	35.33	205.1	759.9	1669	5370	4698	200.0	5.295	2.686	1.840	1.532	1.150	1.223	1.025
560.0	45.31	44.60	43.17	38.32	39.29	42.16	68.26	131.5	61.92	70.15	360.2	5041	9999.9	541.8	37.06	27.09	22.20	19.89	18.40	16.48	15.71	14.32	13.43	13.27	12.61	12.40	12.39	11.65	11.89	11.87	11.04	10.43	10.30	9.484	8.325	7.836	7.297	6.953	6.409	5.776	5.759	5.198	4.932	4.511	4.413	4.519	4.227	4.076	4.046	4.500	5.267	4.196	3.027	2.684	2.502	2.443	2.709	2.716	2.995	2.860	2.568	2.981	4.204	9.939	48.06	172.1	378.5	1848	5855	2036	30.58	3.546	1.986	1.763	1.349	1.041	1.009
565.0	41.58	46.33	48.53	40.19	36.94	36.30	44.22	115.9	78.83	51.81	117.7	1573	9999.9	2781	41.58	26.83	21.09	17.63	15.42	14.94	13.73	12.95	11.73	11.54	10.88	10.82	10.70	10.19	10.45	10.50	9.714	9.613	9.106	7.836	6.992	6.991	6.311	6.378	5.871	5.263	4.754	4.711	4.095	4.155	3.992	3.953	3.463	3.605	3.287	3.563	4.459	4.364	3.435	2.486	2.314	2.400	2.448	2.305	2.629	2.841	2.517	2.381	2.683	4.113	12.69	40.68	87.28	424.3	2337	5200	1704	23.20	2.845	2.024	1.493	1.294	1.089
570.0	47.97	43.84	39.23	35.94	28.78	30.59	34.85	77.55	103.0	48.14	58.77	397.6	5298	8835	441.0	25.35	19.20	16.27	14.38	12.99	11.55	11.21	10.08	9.866	9.382	9.011	8.937	8.752	8.482	8.845	8.302	7.698	7.078	6.594	6.268	6.090	5.451	5.282	4.933	4.518	4.175	4.133	3.593	3.562	3.377	3.266	2.939	3.096	2.861	2.639	3.116	3.666	3.463	2.606	2.162	2.012	2.163	1.981	2.088	2.319	2.464	2.284	2.116	2.326	4.539	10.79	21.40	96.91	537.3	1936	3614	2494	126.6	5.293	1.809	1.389	1.115
575.0	45.93	41.97	38.19	30.96	23.70	28.82	28.33	42.12	103.1	63.79	41.57	119.4	1328	8897	4136	45.82	18.85	13.70	12.85	10.84	10.38	9.691	9.330	8.058	7.946	7.580	7.530	7.183	7.288	7.322	6.799	6.800	6.338	5.745	5.199	4.768	4.385	4.333	4.226	3.695	3.575	3.308	3.173	3.297	2.868	2.901	2.693	2.637	2.415	2.179	2.264	2.548	3.146	2.764	2.149	1.731	1.802	1.698	1.879	1.814	1.938	2.251	1.974	1.728	2.271	3.871	6.284	23.23	121.5	433.3	978.8	3057	2075	186.2	3.618	1.639	1.291
580.0	39.97	36.09	34.96	27.46	22.66	25.16	25.23	29.14	78.59	83.77	36.55	53.48	328.4	4419	8238	113.5	18.77	14.09	11.12	10.48	9.419	8.643	8.189	7.207	7.289	6.901	6.575	5.953	6.212	5.793	6.426	6.033	5.372	5.218	4.648	4.329	4.064	3.885	3.661	3.277	3.181	2.992	2.833	2.819	2.687	2.699	2.415	2.437	2.140	1.957	1.936	2.022	2.535	2.773	2.186	1.813	1.611	1.648	1.568	1.608	1.538	1.780	2.043	1.656	1.596	1.986	2.630	6.654	28.45	98.18	221.6	1006	3247	1871	30.13	2.566	1.479
585.0	33.88	35.56	30.34	27.18	23.44	22.60	20.30	25.14	49.46	97.60	39.41	37.56	99.94	1364	9780	835.7	21.66	13.37	10.38	9.644	8.604	8.023	7.270	6.775	6.534	5.993	5.553	6.002	5.351	5.437	5.689	5.296	4.982	4.484	4.021	4.030	3.530	3.383	3.041	3.016	2.931	2.508	2.466	2.650	2.473	2.345	2.102	2.129	2.006	1.863	1.734	1.684	1.985	2.542	2.487	1.968	1.586	1.383	1.389	1.549	1.452	1.518	1.929	1.777	1.630	1.394	1.796	2.698	7.635	23.37	51.11	230.5	1264	3212	1435	23.40	1.963
590.0	35.20	33.87	30.66	25.43	19.81	19.15	18.37	20.87	29.95	77.78	62.32	30.93	45.38	337.4	4682	6097	270.3	14.13	10.84	8.969	7.927	7.318	6.433	6.156	5.977	5.364	5.176	5.361	4.733	4.823	4.700	4.492	4.291	3.877	3.562	3.325	3.224	2.941	2.785	2.643	2.577	2.270	2.194	2.259	2.167	2.108	1.854	1.827	1.762	1.587	1.484	1.500	1.604	1.891	2.203	2.089	1.629	1.322	1.318	1.265	1.246	1.332	1.496	1.683	1.626	1.275	1.362	1.569	2.814	6.333	12.57	52.87	289.3	1120	2226	1195	128.6
595.0	35.94	28.91	28.75	22.62	17.84	16.46	16.35	17.85	20.52	45.16	80.90	34.48	30.24	94.50	1154	6635	2521	24.73	10.96	8.244	7.261	6.121	5.689	5.356	5.376	4.638	4.329	4.761	4.286	4.288	4.137	3.819	3.472	3.489	3.226	3.051	2.844	2.606	2.463	2.283	2.257	2.023	2.067	2.044	1.902	1.874	1.843	1.641	1.619	1.507	1.254	1.279	1.331	1.372	1.741	2.042	1.653	1.441	1.109	1.186	1.068	1.134	1.003	1.285	1.673	1.470	1.142	1.178	1.413	2.252	3.781	12.80	65.57	250.7	574.2	1634	1911
600.0	29.93	31.93	25.20	23.70	17.97	16.32	14.35	15.86	18.22	29.95	75.50	45.18	25.81	37.72	278.8	3452	5707	79.85	11.21	7.686	7.314	6.226	5.408	5.162	4.674	4.577	4.441	4.278	3.674	3.782	3.529	3.410	3.014	2.926	2.888	2.746	2.372	2.433	2.172	1.973	2.044	1.912	1.768	1.797	1.720	1.772	1.713	1.448	1.495	1.354	1.150	1.149	1.151	1.139	1.229	1.788	1.758	1.417	1.239	1.131	0.964	1.069	0.930	0.953	1.394	1.317	1.146	0.989	1.158	1.270	1.573	3.779	15.58	56.78	129.7	511.6	1957
605.0	28.56	29.60	24.22	20.31	18.75	15.09	13.41	15.72	18.46	21.01	58.85	60.73	26.02	25.54	78.40	1079	6845	619.0	12.13	8.025	6.956	5.964	4.856	4.710	4.514	3.997	3.800	3.791	3.685	3.715	3.137	3.010	2.948	2.689	2.430	2.536	1.987	2.007	1.854	1.899	1.792	1.806	1.674	1.639	1.520	1.752	1.545	1.393	1.467	1.213	1.150	1.035	1.003	1.056	1.206	1.321	1.581	1.554	1.230	0.960	1.009	0.928	0.876	0.921	1.031	1.324	1.201	0.936	1.083	1.090	1.058	1.509	4.249	13.47	29.98	116.7	680.0
610.0	32.25	29.23	26.45	20.53	16.75	12.81	14.69	16.13	17.39	19.64	36.74	68.39	32.32	21.74	31.54	264.1	3523	4280	168.7	8.845	6.842	5.620	4.897	4.192	3.905	3.711	3.429	3.297	3.096	3.198	2.915	2.748	2.763	2.419	2.228	2.224	1.927	1.939	1.753	1.723	1.594	1.468	1.545	1.499	1.419	1.481	1.271	1.193	1.210	1.076	1.036	1.004	0.931	0.935	1.059	0.955	1.286	1.438	1.229	0.954	0.920	0.856	0.848	0.901	0.846	0.878	0.986	1.042	0.918	0.874	0.821	0.967	1.575	3.702	7.490	26.95	154.3
615.0	31.03	26.98	26.62	18.43	14.87	13.20	13.17	15.06	16.59	18.32	25.25	52.46	49.03	20.53	20.85	70.58	880.9	5049	1668	14.08	7.151	5.777	4.480	3.982	3.799	3.612	3.084	3.121	2.943	2.833	2.605	2.821	2.182	2.299	2.024	2.048	1.899	1.668	1.634	1.570	1.493	1.389	1.353	1.333	1.241	1.314	1.141	1.087	1.007	0.975	0.971	1.001	0.861	0.863	0.874	0.914	1.008	1.210	1.245	0.968	0.902	0.804	0.826	0.874	0.662	0.774	0.837	0.870	1.023	0.846	0.775	0.732	0.936	1.434	2.343	6.732	35.05
620.0	31.34	22.92	23.17	17.67	14.22	11.24	12.57	13.98	15.96	15.85	22.15	37.59	56.74	22.14	17.88	26.16	212.3	2831	4078	55.18	7.581	6.074	4.986	4.016	3.744	3.340	3.196	2.765	2.700	3.015	2.396	2.533	2.124	2.122	1.940	1.897	1.930	1.578	1.544	1.393	1.274	1.310	1.294	1.328	1.198	1.132	1.091	1.026	1.036	0.920	0.870	0.823	0.842	0.813	0.787	0.780	0.848	0.956	1.041	1.062	0.878	0.814	0.807	0.712	0.663	0.698	0.731	0.751	0.910	0.864	0.632	0.700	0.698	0.901	1.082	2.109	8.473
625.0	25.51	22.42	23.98	16.49	12.38	12.73	12.63	12.92	15.71	16.62	21.48	26.74	57.39	28.78	16.64	15.76	58.08	918.2	5225	455.5	8.853	6.086	4.529	4.127	3.389	3.038	3.058	2.756	2.791	2.597	2.355	2.402	2.025	2.033	1.791	1.824	1.669	1.449	1.414	1.269	1.227	1.280	1.203	1.251	1.107	1.048	1.064	1.033	1.012	0.826	0.810	0.767	0.864	0.755	0.733	0.727	0.814	0.808	1.031	1.019	0.838	0.685	0.865	0.631	0.676	0.607	0.701	0.680	0.789	0.874	0.665	0.623	0.714	0.708	0.727	0.972	2.512
630.0	26.48	22.93	21.48	16.54	12.58	11.64	11.60	12.05	14.52	17.51	19.19	22.42	40.83	39.94	17.76	12.34	21.65	224.5	2910	3080	42.86	6.356	4.849	4.136	3.263	3.016	2.701	2.629	2.601	2.571	2.154	2.157	2.052	2.005	1.677	1.555	1.615	1.343	1.307	1.173	1.206	1.237	1.096	1.147	0.977	1.035	0.977	0.969	0.930	0.854	0.770	0.694	0.760	0.674	0.704	0.653	0.739	0.751	0.836	0.859	0.937	0.740	0.782	0.641	0.629	0.592	0.634	0.578	0.596	0.720	0.729	0.709	0.568	0.525	0.566	0.667	1.027
635.0	28.43	30.18	23.45	15.72	13.07	11.62	11.75	10.86	13.48	15.36	18.36	19.61	27.87	42.92	20.68	11.08	12.81	58.12	738.4	4039	521.9	9.175	5.091	4.261	3.015	2.967	2.661	2.514	2.502	2.430	2.169	2.146	1.858	1.866	1.564	1.604	1.455	1.370	1.229	1.095	1.087	1.119	1.051	0.968	0.902	1.074	0.955	0.977	0.929	0.845	0.689	0.714	0.750	0.706	0.704	0.601	0.688	0.683	0.840	0.687	0.876	0.825	0.735	0.726	0.590	0.553	0.625	0.556	0.547	0.568	0.616	0.691	0.570	0.484	0.384	0.520	0.638
640.0	28.31	27.97	25.74	16.46	12.36	10.51	11.26	11.02	13.11	15.66	18.73	18.81	22.71	37.68	27.82	11.38	10.08	20.84	176.0	2500	2811	38.31	5.642	4.362	3.399	2.999	2.605	2.649	2.077	2.220	2.111	1.961	1.955	1.708	1.656	1.398	1.321	1.199	1.179	1.134	0.930	1.014	0.995	0.894	0.914	0.959	1.004	0.908	0.821	0.755	0.689	0.640	0.804	0.644	0.602	0.625	0.607	0.720	0.690	0.642	0.747	0.827	0.672	0.578	0.601	0.530	0.659	0.525	0.474	0.491	0.493	0.622	0.713	0.490	0.455	0.427	0.483
645.0	25.63	28.64	21.84	14.54	12.09	10.55	11.13	10.30	12.64	15.12	18.81	17.76	21.71	27.18	33.80	12.36	9.277	11.50	46.17	878.0	4093	335.7	6.534	4.436	3.657	2.963	2.762	2.399	2.175	2.066	2.161	1.898	1.935	1.643	1.506	1.398	1.343	1.153	0.953	1.157	0.894	1.014	1.004	0.861	0.851	0.910	0.852	0.825	0.810	0.739	0.628	0.561	0.688	0.613	0.652	0.718	0.633	0.672	0.684	0.681	0.634	0.659	0.674	0.544	0.606	0.545	0.592	0.536	0.571	0.485	0.454	0.547	0.571	0.506	0.521	0.392	0.422
650.0	25.46	28.87	23.38	15.84	11.16	8.918	11.88	10.42	13.16	13.86	17.10	17.56	19.57	21.13	35.48	14.91	9.207	8.644	16.39	225.5	3328	1597	11.86	4.838	3.849	3.003	2.896	2.564	2.388	1.879	1.826	1.831	1.647	1.703	1.545	1.372	1.365	1.244	0.976	1.035	0.938	0.952	0.999	0.765	0.813	0.827	0.828	0.794	0.755	0.709	0.693	0.616	0.629	0.645	0.583	0.655	0.659	0.632	0.565	0.570	0.531	0.629	0.661	0.639	0.616	0.571	0.622	0.503	0.603	0.421	0.448	0.413	0.487	0.537	0.471	0.417	0.471
