Sample:	'1
File name:	t2025052202联四沟入塌河.FD3
Run date:	'13:22:34, 05/23/2025
Operator:	Administrator
Comment:	'

Instrument
Model:	F-2700 FL Spectrophotometer
Serial number:	23B8-004
ROM Version:	4J14000 07

Instrument parameters
Measurement type:	3-D scan
Data mode:	Fluorescence
EX  Start WL:	220.0 nm
EX  End WL:	600.0 nm
EX Sampling interval:	5.0 nm
EM  Start WL:	230.0 nm
EM  End WL:	650.0 nm
EM Sampling interval:	5.0 nm
Scan speed:	12000 nm/min
EX Slit:	5.0 nm
EM Slit:	5.0 nm
PMT Voltage:	700 V
Response:	Auto 
Corrected spectra:	Off
Contour interval:	50.000

Peak integration
Integration method:	Rectangular
Sensitivity:	1
Threshold:	1.000

Peaks
No.	ApexEX/EM(nm)	Height(Data)
1	225.0/585.0	85.14
2	225.0/605.0	72.79
3	225.0/630.0	60.59
4	230.0/345.0	1903
5	250.0/545.0	211.8
6	255.0/280.0	540.1
7	255.0/555.0	163.6
8	260.0/285.0	530.7
9	260.0/570.0	128.4
10	265.0/410.0	1400
11	265.0/585.0	118.8
12	270.0/300.0	1083
13	270.0/595.0	107.3
14	275.0/305.0	1420
15	275.0/610.0	108.1
16	280.0/310.0	1425
17	280.0/335.0	1362
18	280.0/625.0	93.73
19	285.0/635.0	72.73
20	460.0/340.0	5.449
21	505.0/275.0	2.772
22	510.0/280.0	2.954
23	520.0/285.0	3.356
24	545.0/300.0	5.918
25	555.0/305.0	6.828
26	560.0/310.0	7.090
27	570.0/315.0	7.146
28	580.0/320.0	7.058
29	585.0/325.0	7.125

Data points
	220.0	225.0	230.0	235.0	240.0	245.0	250.0	255.0	260.0	265.0	270.0	275.0	280.0	285.0	290.0	295.0	300.0	305.0	310.0	315.0	320.0	325.0	330.0	335.0	340.0	345.0	350.0	355.0	360.0	365.0	370.0	375.0	380.0	385.0	390.0	395.0	400.0	405.0	410.0	415.0	420.0	425.0	430.0	435.0	440.0	445.0	450.0	455.0	460.0	465.0	470.0	475.0	480.0	485.0	490.0	495.0	500.0	505.0	510.0	515.0	520.0	525.0	530.0	535.0	540.0	545.0	550.0	555.0	560.0	565.0	570.0	575.0	580.0	585.0	590.0	595.0	600.0
230.0	66.46	1161	2796	814.3	39.59	8.121	7.040	5.578	4.782	4.253	4.229	3.946	3.417	3.249	2.493	2.103	1.917	1.743	1.582	1.391	1.315	1.259	1.131	1.028	0.982	0.897	0.894	0.821	0.742	0.774	0.699	0.708	0.638	0.540	0.546	0.529	0.488	0.528	0.458	0.445	0.477	0.517	0.542	0.418	0.380	0.396	1.463	5.587	9.213	6.607	2.277	0.591	0.308	0.307	0.315	0.284	0.330	0.297	0.314	0.315	0.326	0.298	0.264	0.276	0.286	0.302	0.304	0.280	0.299	0.313	0.301	0.276	0.297	0.307	0.299	0.307	0.312
235.0	103.0	333.5	1698	2893	593.4	64.61	6.736	6.184	5.869	5.132	4.608	4.307	3.661	3.141	2.533	2.174	1.981	2.023	1.569	1.341	1.343	1.177	1.267	0.957	1.190	0.863	0.842	0.921	0.799	0.744	0.778	0.592	0.730	0.702	0.514	0.560	0.531	0.523	0.443	0.442	0.485	0.453	0.482	0.548	0.524	0.423	0.664	1.658	3.740	6.600	9.225	9.067	4.324	1.066	0.276	0.273	0.408	0.303	0.311	0.299	0.319	0.314	0.285	0.257	0.281	0.304	0.287	0.291	0.268	0.296	0.305	0.409	0.270	0.297	0.284	0.311	0.347
240.0	142.9	154.6	516.4	2401	3329	474.0	32.00	8.071	6.615	5.453	4.689	4.542	3.711	3.503	2.635	2.409	2.171	1.856	1.746	1.455	1.374	1.168	1.151	1.190	1.145	0.759	0.866	0.795	0.722	0.724	0.785	0.602	0.641	0.613	0.542	0.512	0.503	0.522	0.489	0.474	0.394	0.431	0.407	0.442	0.609	0.640	0.614	0.676	1.107	2.113	5.281	11.97	15.62	10.01	3.347	0.744	0.414	0.306	0.309	0.321	0.332	0.316	0.259	0.237	0.264	0.272	0.317	0.274	0.280	0.251	0.279	0.366	0.315	0.337	0.260	0.307	0.319
245.0	118.6	194.3	181.4	819.3	3416	3413	357.3	18.83	8.569	5.770	5.451	4.974	4.176	3.807	2.834	2.336	2.170	1.784	1.769	1.474	1.506	1.290	1.184	1.120	1.149	1.057	0.900	0.840	0.832	0.758	0.669	0.738	0.679	0.506	0.513	0.542	0.575	0.471	0.574	0.525	0.445	0.424	0.446	0.393	0.519	0.705	0.885	0.660	0.616	0.748	1.453	4.053	11.04	17.57	17.53	9.106	2.467	0.436	0.287	0.339	0.292	0.328	0.264	0.329	0.244	0.301	0.272	0.295	0.340	0.300	0.336	0.350	0.263	0.312	0.281	0.311	0.299
250.0	57.57	136.5	211.4	270.9	1063	3171	4083	1338	89.22	8.699	7.136	5.896	4.942	3.878	3.056	2.637	2.519	2.010	1.787	1.592	1.614	1.442	1.313	1.147	1.138	1.059	1.015	0.876	0.876	0.760	0.699	0.727	0.682	0.611	0.570	0.569	0.572	0.469	0.488	0.515	0.525	0.455	0.453	0.445	0.472	0.468	0.607	0.810	0.862	0.826	0.710	1.235	2.879	5.674	10.77	16.11	21.30	17.99	9.745	2.827	0.519	0.362	0.331	0.342	0.315	0.334	0.330	0.292	0.325	0.331	0.267	0.314	0.303	0.302	0.275	0.282	0.303
255.0	42.56	57.36	144.9	273.9	328.4	798.9	3014	6518	1876	96.63	9.446	6.969	5.812	5.069	3.700	3.017	2.496	2.011	1.972	1.745	1.616	1.280	1.385	1.155	1.281	1.136	1.065	0.981	0.872	0.805	0.742	0.795	0.798	0.617	0.546	0.510	0.571	0.534	0.396	0.578	0.491	0.468	0.401	0.462	0.460	0.409	0.452	0.512	0.532	0.793	1.105	1.245	1.205	1.589	2.802	4.092	8.183	19.46	33.55	28.41	15.37	3.302	0.526	0.408	0.301	0.366	0.320	0.331	0.366	0.355	0.325	0.343	0.339	0.323	0.333	0.287	0.339
260.0	36.52	42.62	64.98	225.6	302.3	248.1	888.0	4905	7459	1474	50.30	9.433	6.354	6.200	4.309	3.288	2.786	2.584	2.227	1.804	1.608	1.492	1.388	1.321	1.126	1.041	1.075	0.977	0.906	0.922	0.785	0.853	0.822	0.743	0.644	0.565	0.541	0.551	0.480	0.502	0.419	0.516	0.455	0.442	0.437	0.389	0.446	0.431	0.410	0.470	0.773	1.347	1.632	1.050	0.987	1.335	2.302	5.440	14.51	31.23	42.81	26.76	11.74	1.674	0.398	0.375	0.365	0.362	0.492	0.359	0.338	0.346	0.324	0.260	0.321	0.362	0.405
265.0	37.36	34.25	33.20	108.6	324.2	255.1	260.2	1554	7076	7794	238.4	24.62	10.02	6.638	4.873	4.087	3.140	2.700	2.264	1.897	1.743	1.504	1.454	1.350	1.393	1.044	1.067	1.101	0.945	0.994	1.000	0.839	0.697	0.821	0.619	0.597	0.566	0.570	0.495	0.500	0.428	0.530	0.465	0.457	0.418	0.448	0.413	0.425	0.364	0.369	0.465	0.772	1.410	1.765	1.392	0.902	0.935	1.681	3.763	9.388	23.64	43.93	50.08	23.94	7.299	0.790	0.403	0.366	0.422	0.348	0.393	0.448	0.305	0.320	0.308	0.315	0.414
270.0	57.96	50.59	39.43	56.18	171.6	356.5	306.5	427.0	2107	6538	8907	3075	70.28	10.83	6.561	5.168	3.983	3.139	2.431	2.346	1.910	1.748	1.551	1.493	1.378	1.245	1.192	1.054	1.008	1.134	0.923	0.924	0.770	0.746	0.666	0.683	0.618	0.559	0.583	0.583	0.526	0.564	0.532	0.517	0.475	0.488	0.477	0.467	0.396	0.337	0.382	0.502	0.775	1.112	1.590	1.984	1.821	1.242	1.459	2.553	5.842	12.68	24.27	37.31	37.88	41.31	16.61	6.641	1.017	0.477	0.432	0.402	0.410	0.377	0.357	0.355	0.394
275.0	119.5	104.7	80.52	59.97	101.2	203.4	451.1	377.5	537.9	1580	5247	9999.9	1350	81.51	11.63	7.211	5.477	4.673	3.078	2.716	2.248	2.000	1.891	1.514	1.469	1.330	1.169	1.077	1.143	1.208	1.133	1.068	0.851	0.867	0.827	0.706	0.680	0.651	0.589	0.635	0.599	0.653	0.687	0.613	0.600	0.824	0.562	0.688	0.491	0.491	0.422	0.472	0.696	0.748	0.846	1.313	2.052	2.772	2.315	1.468	1.773	3.338	5.964	8.965	11.79	29.93	59.93	68.29	26.28	7.738	0.687	0.514	0.428	0.386	0.363	0.377	0.446
280.0	221.8	188.2	151.1	94.13	102.6	150.3	309.7	540.1	318.2	449.6	1447	7508	9999.9	1062	47.10	9.737	6.932	5.129	3.865	3.190	2.391	2.504	1.950	1.790	1.554	1.415	1.448	1.179	1.207	1.142	1.017	1.009	0.935	0.777	0.786	0.829	0.749	0.739	0.823	0.757	0.760	0.683	0.769	0.787	0.814	0.893	0.786	0.798	0.720	0.644	0.519	0.562	0.639	0.701	0.780	0.980	1.356	2.050	2.954	2.909	1.644	1.393	2.014	2.739	3.325	7.829	20.28	46.72	72.78	34.81	21.60	4.322	0.547	0.557	0.416	0.408	0.488
285.0	299.5	291.2	234.7	151.2	129.4	147.0	195.8	449.0	530.7	282.4	486.8	2189	9837	9215	747.5	21.27	8.905	6.037	4.707	3.564	3.050	2.521	2.216	2.080	1.508	1.446	1.559	1.431	1.218	1.136	1.228	1.033	0.921	0.769	0.868	0.870	0.801	0.946	0.975	0.767	0.949	0.691	0.785	0.877	0.956	1.031	0.990	0.831	1.012	0.776	0.649	0.744	0.740	0.884	0.957	0.980	0.928	1.311	1.800	2.924	3.356	2.340	1.549	1.465	1.783	2.700	5.532	12.25	28.54	52.51	80.49	32.59	16.48	1.919	0.528	0.545	0.523
290.0	426.1	470.8	379.9	248.1	175.8	171.4	185.3	267.3	514.0	621.5	435.6	750.3	2802	7790	9390	2673	45.96	9.191	5.985	4.868	3.769	3.046	2.632	2.209	1.895	1.698	1.684	1.532	1.348	1.306	1.284	1.104	1.008	1.023	0.932	0.944	0.914	1.051	1.031	0.950	1.024	0.940	1.002	1.261	1.177	1.278	1.364	1.307	1.292	1.067	0.957	0.953	0.932	0.918	0.942	1.016	1.092	1.140	1.194	1.576	2.255	3.079	3.327	2.968	2.247	2.069	2.637	4.169	7.704	14.09	29.49	40.66	59.09	51.47	40.64	11.90	2.652
295.0	498.2	602.3	519.5	347.0	238.7	211.8	220.4	254.0	350.9	660.7	887.9	613.5	957.0	1978	4725	9999.9	3778	52.39	9.607	6.268	4.755	3.563	3.026	2.677	2.412	2.074	1.740	1.541	1.368	1.219	1.415	1.156	1.277	1.117	0.957	0.976	1.080	1.097	1.141	1.237	1.077	1.075	1.112	1.322	1.477	1.455	1.684	1.661	1.734	1.432	1.170	1.177	1.141	1.139	1.156	1.089	1.269	1.200	1.292	1.473	1.670	2.029	2.528	3.810	4.930	4.031	2.651	2.802	3.687	4.855	8.177	10.48	15.25	23.15	54.12	81.50	35.15
300.0	639.7	703.4	598.1	417.7	292.9	258.7	276.8	309.8	365.5	591.9	1083	955.1	706.0	768.8	1341	6529	9999.9	654.4	32.51	8.021	5.985	4.784	3.659	2.875	2.385	2.256	2.163	1.645	1.611	1.314	1.284	1.258	1.153	1.106	1.018	0.968	1.179	1.334	1.173	1.206	1.252	1.139	1.259	1.478	1.647	1.709	1.753	2.051	1.922	1.622	1.367	1.465	1.342	1.281	1.214	1.341	1.330	1.523	1.552	1.638	1.870	2.028	2.485	3.093	4.414	5.918	5.290	3.625	3.398	3.375	3.738	4.114	4.879	6.548	15.59	38.58	66.97
305.0	714.5	798.0	717.6	498.8	347.6	324.0	360.4	410.8	524.0	700.0	1049	1420	983.4	673.3	636.9	1903	8641	9999.9	489.2	15.45	7.257	5.158	4.295	3.266	2.452	2.305	2.110	1.635	1.790	1.469	1.254	1.277	1.144	1.068	0.959	0.993	1.273	1.170	1.310	1.257	1.224	1.389	1.402	1.502	1.822	1.942	1.983	2.294	2.092	1.866	1.467	1.618	1.553	1.469	1.398	1.590	1.703	1.765	2.065	2.000	2.468	2.713	3.273	3.564	4.095	5.283	6.348	6.828	5.400	4.139	3.774	3.399	3.340	3.699	5.266	10.22	21.34
310.0	752.1	884.6	812.1	559.0	424.2	390.1	440.6	523.9	637.6	810.4	1052	1347	1425	933.7	614.8	721.1	2442	6974	7149	1929	30.74	7.424	5.092	4.038	3.195	2.524	2.284	2.042	1.883	1.653	1.644	1.417	1.210	1.194	1.062	1.168	1.296	1.338	1.382	1.423	1.380	1.553	1.624	1.715	1.850	2.132	2.167	2.654	2.495	2.102	1.751	1.943	1.795	1.729	1.782	1.774	1.957	2.091	2.409	2.528	2.864	3.072	3.595	4.022	4.458	4.769	5.476	6.437	7.090	6.884	5.703	4.344	3.639	3.395	3.370	4.127	6.366
315.0	796.4	1002	917.8	637.4	487.8	456.2	501.3	589.7	721.3	897.9	1110	1263	1360	1341	801.9	538.5	813.5	1742	3888	9943	2646	35.01	7.470	5.207	4.177	3.448	2.790	2.205	2.080	1.816	1.757	1.650	1.328	1.243	1.079	1.166	1.215	1.225	1.437	1.387	1.380	1.520	1.724	1.836	1.927	2.350	2.356	2.861	2.665	2.272	2.022	1.995	2.101	1.890	1.935	2.059	2.226	2.544	2.728	3.028	2.918	3.478	4.024	4.513	4.845	5.176	5.547	5.737	6.045	6.427	7.146	6.721	5.168	3.929	3.219	3.207	3.356
320.0	888.5	1137	1054	751.0	542.8	506.2	555.4	645.5	771.2	964.1	1152	1297	1309	1331	1099	594.8	498.8	590.4	1030	5871	9314	490.7	20.03	6.816	4.685	3.738	3.067	2.737	2.236	1.928	1.822	1.655	1.360	1.307	1.235	1.290	1.248	1.312	1.473	1.587	1.615	1.618	1.688	2.012	2.252	2.666	2.884	3.190	3.171	2.635	2.310	2.339	2.131	1.989	2.192	2.220	2.473	2.765	2.842	3.158	3.336	3.774	4.387	4.744	5.110	5.471	5.439	5.680	6.232	6.146	6.257	6.678	7.058	5.675	4.264	3.242	2.893
325.0	1046	1377	1323	911.4	630.8	559.5	596.4	689.5	817.8	994.1	1203	1332	1341	1223	1224	780.7	473.4	362.1	343.5	1606	7258	7464	369.5	11.10	6.028	4.554	3.602	2.909	2.322	2.115	1.927	1.717	1.378	1.310	1.363	1.085	1.374	1.323	1.477	1.594	1.578	1.689	1.927	2.253	2.498	2.912	3.312	3.566	3.902	3.290	2.891	2.801	2.288	2.164	2.467	2.341	2.623	2.825	3.132	3.307	3.450	4.074	4.391	4.848	5.306	5.576	5.681	5.962	6.179	6.001	5.969	5.863	6.272	7.125	5.809	4.191	3.120
330.0	1131	1578	1582	1169	791.5	635.0	640.3	724.1	854.5	1024	1225	1350	1355	1222	1092	945.0	639.1	363.9	237.7	464.4	1970	5592	5758	1517	23.89	6.393	4.565	3.499	2.677	2.290	1.963	1.780	1.586	1.466	1.356	1.140	1.351	1.370	1.519	1.407	1.533	1.620	1.994	2.160	2.732	3.298	3.484	4.266	4.437	3.887	3.559	3.403	2.898	2.561	2.773	2.612	2.681	2.861	3.209	3.342	3.657	4.089	4.474	5.029	5.179	5.422	5.562	6.041	6.164	6.080	5.900	5.666	5.801	6.132	5.775	5.553	5.031
335.0	1228	1680	1752	1361	962.4	757.7	702.0	772.7	900.7	1062	1227	1351	1362	1240	1052	870.1	825.8	518.2	273.7	254.6	545.8	1342	3529	8286	2122	27.99	6.647	4.412	3.498	2.949	2.573	2.135	1.639	1.637	1.385	1.305	1.297	1.424	1.465	1.487	1.585	1.725	1.906	2.390	3.134	3.516	3.645	4.721	5.040	4.566	4.028	4.052	3.564	3.114	3.233	2.858	3.024	3.106	3.425	3.567	3.853	4.304	4.363	5.218	5.246	5.658	6.005	6.239	6.307	6.014	6.305	5.914	5.601	5.511	5.203	4.973	5.075
340.0	1249	1669	1862	1484	1068	817.0	765.0	806.4	915.1	1066	1216	1340	1360	1245	1060	840.6	770.1	686.4	361.9	243.5	258.7	397.6	938.7	5372	7742	407.4	15.51	5.731	4.058	3.102	2.705	2.328	1.926	1.771	1.390	1.294	1.366	1.356	1.467	1.456	1.521	1.677	2.003	2.426	2.973	3.680	4.078	4.946	5.449	4.892	4.330	4.431	4.028	3.584	3.296	3.032	3.244	3.517	3.646	4.019	3.968	4.269	4.632	5.072	5.298	5.574	5.923	5.710	5.953	6.151	6.218	6.087	6.065	5.482	5.396	4.879	4.700
345.0	1215	1695	1903	1551	1133	888.9	805.3	843.1	947.0	1084	1218	1321	1325	1230	1060	845.6	706.5	702.9	519.5	294.8	229.6	216.1	300.1	1509	6552	6097	56.24	9.259	5.416	3.922	2.849	2.401	1.825	1.637	1.490	1.453	1.278	1.336	1.548	1.489	1.615	1.706	2.002	2.306	2.734	3.706	3.797	4.882	5.153	4.922	4.267	4.699	4.377	4.046	3.545	3.481	3.592	3.487	3.794	4.122	4.116	4.302	4.670	4.986	5.434	5.248	5.823	5.676	5.827	6.173	6.203	6.287	5.927	5.535	5.259	4.871	4.586
350.0	1174	1641	1821	1559	1240	989.1	892.8	912.0	987.4	1100	1207	1282	1281	1196	1055	868.6	724.3	642.4	606.5	464.5	297.5	232.0	205.8	435.5	1855	4920	4708	1241	21.13	5.351	3.643	2.637	2.222	1.894	1.564	1.550	1.254	1.484	1.398	1.499	1.500	1.666	2.054	2.366	2.814	3.375	3.665	4.627	4.769	4.676	4.315	4.813	4.351	4.181	4.082	3.678	3.783	3.884	4.051	4.187	4.271	4.490	4.921	5.177	5.206	5.373	5.698	5.545	5.731	6.031	6.127	6.077	5.487	5.674	5.319	4.896	4.763
355.0	1129	1566	1732	1559	1329	1089	983.9	1004	1047	1131	1210	1260	1239	1180	1058	903.6	765.5	659.3	588.0	595.7	457.6	305.2	241.9	240.6	516.2	1196	3175	6667	413.2	21.99	5.054	3.819	2.760	2.014	1.726	1.512	1.494	1.430	1.382	1.412	1.677	1.764	2.005	2.284	2.423	3.179	3.581	4.382	4.844	4.501	4.334	4.797	4.723	4.609	4.346	4.088	4.143	4.056	4.514	4.299	4.532	4.865	5.161	5.124	5.111	5.424	5.360	5.708	5.423	6.135	5.822	5.732	5.407	5.509	5.276	5.308	5.118
360.0	1086	1494	1645	1543	1358	1149	1058	1073	1100	1157	1215	1245	1226	1163	1063	918.1	802.4	702.4	612.2	592.0	586.6	402.4	290.6	235.0	248.6	358.6	869.1	4742	5927	360.9	11.59	4.629	3.362	2.502	1.801	1.647	1.496	1.421	1.585	1.324	1.607	1.836	1.993	2.217	2.386	3.085	3.384	4.174	4.528	4.463	4.083	4.629	4.867	4.737	4.545	4.192	4.510	4.469	4.719	4.630	4.771	5.000	5.455	5.175	5.323	5.292	5.664	5.579	5.523	5.717	5.862	5.951	5.690	5.561	5.431	5.343	5.132
365.0	1080	1440	1644	1527	1362	1228	1122	1106	1140	1187	1227	1238	1209	1154	1065	938.6	835.3	744.7	658.6	597.3	611.2	537.6	362.3	276.0	225.3	201.1	274.2	1389	5720	3241	51.29	7.388	4.390	2.907	2.173	1.779	1.547	1.420	1.595	1.380	1.457	1.827	1.966	2.181	2.570	2.990	3.094	4.073	4.460	4.317	4.231	4.905	4.875	4.707	4.539	4.605	4.410	4.659	4.832	4.794	5.004	5.187	5.363	5.338	5.457	5.658	5.442	5.500	5.361	5.632	5.665	5.766	5.797	5.800	5.656	5.242	5.097
370.0	1068	1365	1557	1518	1393	1291	1187	1173	1199	1233	1249	1244	1208	1149	1067	960.0	872.0	797.3	722.8	656.2	613.4	609.5	509.9	364.1	274.5	214.5	180.9	390.8	1672	4047	4248	1059	17.84	4.390	2.884	2.158	1.753	1.656	1.557	1.697	1.605	1.762	1.980	2.218	2.506	3.129	3.280	4.059	4.292	4.065	4.167	4.715	5.092	4.831	4.879	4.746	4.790	5.072	4.915	5.115	5.258	5.411	5.753	5.557	5.534	5.724	5.565	5.397	5.251	5.600	5.686	5.473	5.784	5.765	5.554	5.422	5.488
375.0	1047	1332	1510	1505	1455	1329	1256	1228	1249	1278	1294	1255	1224	1149	1065	978.8	904.3	852.8	780.3	717.2	660.1	618.7	608.7	512.5	358.7	274.2	215.8	214.1	456.9	999.2	3102	5709	350.3	19.19	4.290	2.714	2.396	1.829	1.797	1.827	1.849	1.660	2.017	2.276	2.450	3.037	3.295	4.010	4.052	3.830	4.035	4.967	5.316	4.973	5.197	5.117	5.151	4.874	5.221	5.356	5.116	5.554	5.784	5.614	5.550	5.577	5.539	5.694	5.132	5.987	5.816	5.908	5.798	5.749	5.429	5.807	5.799
380.0	1040	1348	1480	1495	1471	1365	1295	1280	1286	1306	1319	1266	1234	1155	1059	981.8	929.1	878.8	816.5	761.0	698.4	643.5	620.4	601.7	449.1	328.0	262.6	213.6	216.3	306.3	881.0	4232	4760	293.7	9.467	3.779	2.676	2.180	1.975	1.954	1.899	1.934	1.981	2.319	2.602	3.081	3.280	3.626	3.907	3.777	3.996	4.710	5.305	5.151	5.257	5.052	5.633	5.331	5.221	5.510	5.463	5.686	5.786	5.830	5.832	5.647	5.733	5.730	5.352	5.683	5.861	5.770	5.631	5.565	5.278	5.473	5.871
385.0	1030	1359	1466	1485	1469	1400	1321	1306	1323	1327	1319	1274	1241	1161	1055	988.8	934.1	890.3	842.1	790.9	733.1	678.8	628.3	620.6	554.3	394.1	311.0	247.4	192.7	176.7	290.5	1283	4652	2692	41.74	6.323	3.319	2.561	2.105	2.070	1.694	1.876	2.169	2.245	2.532	2.999	3.157	3.613	3.984	3.741	3.939	4.611	5.299	5.240	5.300	5.324	5.494	5.292	5.289	5.554	5.499	5.800	5.798	5.736	5.875	5.394	5.929	5.609	5.474	5.792	5.789	5.759	5.383	5.869	5.424	5.517	5.525
390.0	1003	1318	1453	1458	1461	1411	1341	1325	1329	1327	1321	1267	1232	1141	1052	984.5	933.3	901.5	866.4	818.3	770.0	721.7	666.7	617.5	593.6	505.2	383.1	295.9	224.8	179.6	177.0	370.0	1360	3088	3159	822.4	14.94	3.802	2.700	2.289	1.916	2.051	2.302	2.228	2.603	3.062	3.165	3.748	3.968	3.694	4.007	4.689	5.288	5.200	5.310	5.211	5.522	5.441	5.564	5.730	5.705	5.771	6.017	5.836	5.774	5.800	5.669	5.394	5.534	5.498	5.947	5.580	5.587	5.664	5.685	5.777	5.778
395.0	1022	1270	1416	1421	1451	1396	1349	1344	1351	1345	1342	1282	1227	1145	1051	989.0	937.7	906.8	876.3	838.4	801.6	758.3	714.9	661.7	601.0	573.5	489.1	369.2	281.8	223.2	188.6	194.4	370.4	758.2	2210	4102	291.2	17.18	3.950	2.755	2.278	2.176	2.209	2.426	2.745	2.958	3.127	3.581	3.807	3.817	3.900	4.534	5.262	5.198	5.430	5.314	5.590	5.715	5.857	5.716	5.656	6.045	6.128	5.830	6.289	5.801	5.970	5.464	5.531	5.697	5.911	5.429	5.396	5.647	5.503	5.417	5.630
400.0	1071	1252	1391	1410	1440	1418	1368	1360	1362	1363	1355	1317	1249	1156	1062	986.3	939.3	904.9	882.0	850.6	817.7	792.9	741.0	698.1	631.9	587.1	571.7	458.4	338.7	276.0	230.0	185.8	172.8	227.7	611.1	2948	3523	251.5	9.296	3.425	2.716	2.367	2.455	2.431	2.704	3.003	3.061	3.658	3.838	3.565	3.760	4.564	5.089	5.145	5.303	5.197	5.707	5.603	5.703	5.870	5.884	5.953	6.062	5.806	6.130	6.014	5.605	5.740	5.500	5.558	5.693	5.538	5.326	5.611	5.510	5.746	5.920
405.0	982.6	1296	1360	1401	1424	1396	1368	1360	1368	1388	1382	1340	1267	1179	1068	988.8	939.9	910.0	879.2	858.9	827.3	808.4	771.6	737.1	675.9	614.6	596.8	544.8	406.9	326.5	275.4	214.2	154.7	127.9	191.4	868.0	3297	2261	37.54	5.432	3.198	2.751	2.523	2.493	2.740	2.917	3.206	3.673	3.592	3.560	3.828	4.649	4.913	4.949	5.303	5.100	5.744	5.529	5.874	5.696	5.944	5.754	6.115	6.019	6.212	5.899	5.786	5.706	5.521	5.575	5.751	5.542	5.537	5.861	5.430	5.606	5.993
410.0	974.6	1232	1350	1354	1362	1378	1364	1355	1381	1400	1396	1355	1263	1171	1063	984.3	927.8	891.5	871.8	845.9	828.2	812.1	790.5	755.5	705.4	648.9	604.4	573.9	501.2	393.1	317.7	249.3	177.7	129.5	116.7	246.6	949.6	2247	2420	709.1	13.44	3.450	2.849	2.687	2.828	3.233	3.149	3.600	3.677	3.712	3.833	4.434	5.052	4.888	5.264	5.067	5.630	5.494	5.723	5.754	5.803	6.124	6.013	6.101	6.110	6.066	5.713	5.696	5.619	5.574	5.577	5.422	5.430	5.475	5.465	5.553	5.616
415.0	943.9	1199	1262	1304	1330	1316	1333	1341	1358	1378	1382	1319	1231	1132	1038	949.8	893.0	858.7	840.2	821.8	813.3	790.1	781.7	758.8	710.3	659.5	609.0	561.5	526.1	458.7	354.7	270.7	196.4	145.8	111.8	117.5	254.6	544.2	1529	2987	263.5	15.80	3.646	3.090	2.921	3.006	2.934	3.450	3.675	3.727	3.657	4.353	4.738	4.759	5.195	5.015	5.514	5.466	5.717	5.849	6.006	5.830	5.787	5.996	5.907	5.733	5.642	5.678	5.319	5.258	5.092	5.082	5.459	5.301	5.327	5.164	5.382
420.0	897.9	1134	1240	1259	1293	1280	1299	1298	1319	1332	1352	1290	1198	1099	1003	914.2	857.0	821.8	810.5	794.0	783.0	766.1	759.5	739.0	700.7	654.6	603.5	557.0	508.4	482.3	392.2	289.9	213.6	157.7	118.5	94.31	103.2	151.4	404.7	1984	2174	235.5	8.755	3.692	3.157	3.155	3.177	3.388	3.782	3.491	3.550	4.238	4.523	4.580	4.952	4.785	4.996	5.428	5.410	5.619	5.678	5.724	5.858	5.989	5.702	5.391	5.170	5.144	5.391	5.301	5.200	5.094	5.216	5.057	5.441	5.115	5.007
425.0	889.8	1089	1177	1200	1256	1236	1265	1267	1309	1312	1305	1252	1173	1067	971.0	878.4	824.5	792.4	775.6	768.7	753.2	748.3	739.0	723.3	693.1	648.5	603.5	557.2	501.6	471.6	425.1	314.6	226.8	171.2	127.6	96.29	76.78	67.73	113.4	554.5	2101	2031	35.85	5.380	3.619	3.212	3.240	3.542	3.417	3.487	3.556	4.054	4.454	4.473	4.892	4.693	4.894	4.972	5.427	5.361	5.584	5.134	5.658	5.875	5.381	5.228	5.076	5.110	5.099	5.275	4.936	5.108	4.898	5.160	5.412	5.027	5.255
430.0	983.0	1044	1139	1171	1195	1197	1222	1241	1271	1292	1282	1219	1124	1034	934.9	842.6	786.8	753.1	739.1	726.7	723.6	720.1	718.1	699.7	678.5	641.8	598.6	560.1	505.3	459.7	425.4	359.4	258.2	191.9	144.7	110.4	81.70	57.91	54.20	143.4	575.4	1584	1919	656.8	14.34	3.937	3.319	3.576	3.603	3.351	3.251	4.060	4.473	4.488	4.600	4.386	5.069	4.968	5.342	5.329	5.511	5.373	5.419	5.667	5.651	5.192	5.422	5.190	4.993	5.074	4.847	4.879	4.687	4.869	4.530	4.589	4.847
435.0	1388	995.1	1089	1120	1148	1156	1186	1220	1244	1245	1249	1182	1089	1000	898.0	806.7	743.2	718.3	702.0	691.2	686.7	687.8	682.1	677.8	660.5	626.9	586.5	549.3	506.0	462.6	412.7	368.8	300.7	217.7	162.5	126.5	93.04	65.36	48.71	57.93	146.5	373.3	1032	2409	925.8	18.32	4.166	3.810	3.622	3.351	3.225	3.952	4.280	4.290	4.560	4.399	4.592	4.907	5.287	5.480	5.642	5.289	5.454	5.381	5.210	5.380	5.205	4.927	4.820	4.672	4.730	4.726	4.603	4.535	4.306	4.386	4.348
440.0	1837	1097	1032	1091	1116	1132	1144	1185	1216	1218	1212	1146	1064	956.1	867.4	770.4	718.9	683.6	671.7	656.4	656.8	654.6	658.0	650.7	636.7	606.8	575.2	542.8	503.5	461.4	408.0	355.5	310.7	241.8	176.3	136.3	102.4	72.36	52.92	42.93	54.92	99.89	264.7	1444	2193	237.6	11.03	4.230	3.717	3.581	3.174	3.919	4.257	4.078	4.473	4.223	4.855	4.826	4.889	5.493	5.491	5.088	5.270	5.210	5.002	4.920	5.085	4.650	4.735	4.819	4.433	4.464	4.703	4.144	4.247	4.397	4.310
445.0	1880	1561	982.7	1055	1080	1079	1119	1140	1174	1182	1176	1111	1014	913.6	823.3	731.3	681.5	655.3	635.0	622.1	622.0	617.8	626.4	616.4	607.6	582.6	553.9	524.5	492.1	450.7	398.4	343.1	299.2	259.6	191.4	142.9	108.9	79.64	57.83	44.14	37.34	41.00	73.85	386.9	1699	1944	180.0	7.526	4.079	3.602	3.147	3.653	3.994	4.158	4.276	4.224	4.781	4.919	4.968	5.162	5.024	5.040	4.932	4.899	4.813	5.047	4.847	4.446	4.488	4.417	4.030	4.374	4.328	3.904	3.992	4.391	4.191
450.0	1302	2200	1184	975.3	999.2	1020	1048	1084	1102	1116	1108	1033	943.8	852.1	765.2	679.7	627.4	601.8	585.3	572.9	568.1	568.2	570.4	569.6	558.0	538.8	516.2	490.2	461.7	428.3	380.9	329.5	279.1	245.8	209.5	155.5	115.3	85.87	64.86	49.77	39.39	32.83	34.36	100.3	445.2	1303	1729	674.7	14.13	3.948	3.342	3.696	3.796	3.787	4.088	4.009	4.407	4.407	4.535	4.725	4.819	4.804	4.729	4.651	4.800	4.655	4.480	4.356	4.314	4.059	4.119	4.040	3.946	3.833	3.898	3.766	3.819
455.0	783.9	2071	2091	920.3	911.4	945.3	971.7	1013	1030	1037	1018	954.6	865.0	774.5	695.3	619.0	570.0	546.5	526.1	519.7	514.7	516.1	513.8	515.8	505.6	489.8	472.0	452.1	426.4	399.7	363.2	313.7	265.1	226.1	201.2	172.0	125.0	92.59	72.70	56.00	43.70	35.21	28.72	39.16	111.9	303.0	752.6	1963	906.4	17.36	3.776	3.873	3.689	3.603	3.710	3.941	3.975	4.026	4.228	4.377	4.716	4.327	4.456	4.594	4.593	4.340	4.175	4.120	3.737	3.778	3.918	3.926	3.476	3.663	3.605	3.528	3.434
460.0	622.1	1442	2686	1015	857.0	881.6	908.5	949.6	953.1	979.2	958.2	892.6	807.7	727.3	641.0	571.8	524.6	501.8	485.2	474.2	475.5	470.7	470.8	473.7	462.3	450.2	440.2	419.4	401.4	378.4	347.3	301.0	254.0	216.8	186.1	172.0	136.4	97.13	74.48	59.95	46.69	38.28	29.98	26.55	38.73	78.98	184.8	978.7	1971	191.5	12.53	4.019	3.661	3.825	3.543	3.745	3.883	3.833	4.068	4.011	4.336	4.338	4.419	4.392	4.340	4.003	4.066	4.031	3.598	3.388	3.659	3.519	3.575	3.203	3.405	3.212	3.181
465.0	573.9	909.0	2566	1763	816.1	823.6	857.9	874.2	905.8	906.3	895.6	846.8	751.2	676.8	596.8	530.2	481.7	459.8	447.7	436.5	433.7	434.9	433.9	437.3	426.3	419.9	405.2	392.7	373.0	355.7	326.7	288.6	243.9	207.7	177.0	162.7	142.2	104.3	77.90	62.42	49.99	40.14	31.97	25.92	24.78	30.40	51.92	247.2	1214	1525	164.9	9.977	3.863	3.720	3.532	3.626	3.754	3.749	4.069	3.892	3.940	4.241	4.186	4.243	3.987	3.864	3.703	3.753	3.532	3.420	3.678	3.498	3.297	3.121	3.137	3.197	3.057
470.0	530.5	639.3	1558	2664	1125	732.2	771.5	795.0	816.7	829.1	819.7	763.4	683.8	605.4	535.1	476.0	435.3	408.1	396.7	387.3	383.5	382.3	383.1	382.9	378.1	370.9	359.8	350.4	336.8	322.4	300.5	263.8	225.7	194.4	165.7	144.1	129.1	111.0	85.09	65.12	51.90	42.58	34.07	27.72	23.80	21.34	23.26	64.87	303.2	862.1	1215	654.1	16.12	4.111	3.527	3.337	3.577	3.517	3.797	3.872	3.690	3.756	3.770	3.705	3.627	3.572	3.505	3.368	3.309	3.341	3.105	3.147	3.019	2.855	2.985	2.919	2.912
475.0	495.5	563.2	812.7	2201	2250	717.7	669.2	726.9	734.8	732.6	724.3	684.4	614.0	535.6	471.6	425.5	384.4	358.1	348.3	339.0	331.3	332.2	336.8	333.9	330.3	322.1	317.4	307.4	299.2	288.9	266.0	239.7	206.8	177.1	154.9	133.6	114.4	103.6	91.68	69.65	53.97	44.64	36.53	29.91	24.88	20.74	18.37	25.15	75.74	199.3	415.3	1231	803.4	21.98	3.804	3.164	3.511	3.312	3.309	3.449	3.262	3.311	3.402	3.140	3.281	3.444	3.308	3.185	3.113	2.949	2.795	2.901	2.718	2.424	2.769	2.460	2.736
480.0	454.8	506.0	602.0	1345	3034	970.2	626.9	662.7	669.1	681.7	666.5	632.8	565.0	498.5	433.9	388.6	355.1	326.3	316.8	308.2	302.6	300.7	303.3	301.8	298.6	295.8	286.1	280.2	272.8	264.3	244.1	220.5	193.2	168.8	145.7	125.5	108.2	95.29	89.35	75.11	56.59	45.41	37.32	30.74	26.79	22.04	17.97	17.03	25.80	51.64	100.7	494.6	1390	648.2	16.68	3.443	3.357	3.197	3.118	3.242	2.851	3.040	3.317	3.078	3.287	3.148	3.040	2.941	2.822	2.720	2.643	2.470	2.482	2.345	2.455	2.263	2.483
485.0	402.9	482.5	531.4	776.2	2765	1715	602.7	619.4	628.6	635.3	627.6	590.4	524.3	467.6	403.7	362.8	326.5	304.6	292.4	283.1	280.1	277.3	275.4	276.3	273.8	272.0	263.3	257.4	254.8	244.8	228.6	206.2	181.1	161.4	141.3	121.9	105.3	89.19	83.31	77.32	60.98	46.31	38.61	32.68	27.89	23.27	19.12	15.51	15.38	19.57	29.03	121.4	716.4	1372	207.0	10.77	3.478	3.268	3.144	3.094	3.060	3.126	3.026	2.959	2.972	2.942	2.767	2.762	2.717	2.499	2.279	2.301	2.254	2.477	2.285	2.124	2.378
490.0	347.7	463.0	488.7	544.2	1533	2651	937.0	563.6	575.0	574.7	577.3	532.4	475.9	423.8	369.5	327.7	296.5	273.5	263.0	255.4	249.7	247.2	247.2	246.6	245.1	240.7	236.6	234.2	228.8	222.3	208.6	189.8	168.2	149.4	130.5	114.2	99.67	85.71	75.86	70.72	64.96	51.31	39.68	33.79	28.04	24.28	20.11	17.07	14.40	13.12	13.58	33.10	173.5	592.2	1038	655.9	18.04	3.898	3.091	2.982	2.989	2.852	2.871	2.938	2.892	2.788	2.533	2.474	2.383	2.232	2.304	2.191	2.225	2.167	2.058	2.095	2.124
495.0	293.4	411.9	465.2	449.6	700.8	2182	2156	555.7	514.7	515.8	515.2	480.3	430.8	381.0	331.5	290.0	260.8	245.7	234.3	225.2	222.8	219.3	219.1	216.6	215.3	212.1	209.0	207.3	204.3	198.4	188.8	172.6	152.3	135.4	119.2	105.4	92.74	80.64	69.89	63.60	61.46	56.24	42.81	34.16	28.52	25.08	21.23	18.06	14.52	12.12	10.44	13.65	43.97	136.7	332.2	1097	926.7	25.87	3.462	2.981	2.814	2.739	2.609	2.611	2.587	2.320	2.324	2.290	2.003	2.270	2.099	2.120	2.037	2.115	1.901	1.834	1.702
500.0	266.2	356.4	453.2	396.2	473.8	1264	3015	796.6	472.1	477.7	474.8	431.8	390.3	345.5	300.2	264.7	241.0	223.4	212.2	204.4	199.9	199.1	197.2	195.2	192.8	192.5	188.7	187.4	184.9	180.7	171.8	160.8	140.5	126.4	111.4	98.65	86.46	75.65	64.77	58.13	55.17	53.61	46.23	34.32	28.52	24.62	21.34	17.61	15.12	12.28	10.23	9.926	15.43	35.16	79.59	408.8	1318	705.6	20.08	2.924	2.737	2.432	2.586	2.472	2.242	2.352	2.262	2.130	1.992	2.013	2.067	1.871	1.939	1.809	1.616	1.812	1.629
505.0	236.9	312.5	404.0	390.2	375.7	650.6	2849	1546	440.2	442.6	433.3	400.0	360.1	315.6	278.4	241.2	220.0	204.8	191.5	187.3	182.4	178.3	178.5	176.8	174.9	171.9	170.4	167.6	168.6	165.7	158.0	144.5	128.7	114.8	102.5	92.29	81.80	71.34	61.61	54.25	49.52	47.20	46.48	36.76	28.49	23.96	21.10	18.16	14.84	12.75	10.37	9.238	9.108	12.77	22.06	98.32	595.7	1303	232.8	12.52	2.857	2.361	2.524	2.426	2.283	2.245	2.166	1.884	1.874	1.840	2.023	1.714	1.907	1.649	1.644	1.682	1.599
510.0	212.2	258.7	334.6	385.0	339.6	409.8	1511	2675	717.9	390.7	382.5	355.0	316.9	274.9	243.5	214.4	191.3	179.3	168.8	161.8	159.1	154.3	154.4	152.4	150.7	148.7	148.0	145.2	146.6	144.6	137.7	126.9	114.6	103.0	92.23	82.15	73.83	65.50	57.23	50.85	45.69	41.42	41.04	38.19	30.38	24.26	20.21	17.79	14.58	12.70	10.80	9.185	7.792	7.750	9.038	25.92	141.9	528.3	900.2	559.9	17.79	2.767	2.420	2.132	2.012	2.042	1.953	1.796	1.769	1.738	1.740	1.605	1.548	1.537	1.586	1.675	1.429
515.0	179.0	218.6	277.4	342.4	317.4	310.9	606.1	2334	1853	373.2	334.7	307.7	280.4	243.6	212.1	182.7	163.3	154.5	147.3	139.1	139.0	131.7	132.0	130.3	129.2	127.3	126.5	126.8	127.5	124.2	118.9	111.0	99.00	89.97	80.72	72.25	65.38	57.59	51.71	46.11	42.06	37.08	35.70	34.24	32.24	25.06	19.82	17.13	14.16	12.36	10.92	9.193	7.756	6.629	6.453	9.887	35.25	121.1	268.5	877.9	726.5	25.15	2.522	2.160	1.866	1.834	1.742	1.724	1.682	1.597	1.675	1.506	1.347	1.357	1.330	1.384	1.244
520.0	162.2	198.6	229.1	289.5	315.3	277.2	344.5	1305	2908	573.1	292.7	279.9	247.2	219.0	190.1	166.2	147.4	138.7	130.0	124.4	119.9	118.5	119.7	114.6	112.2	113.4	112.7	110.7	113.0	110.9	106.0	101.4	89.96	81.67	73.50	65.60	59.77	53.23	47.38	43.56	38.37	34.16	31.82	29.78	30.40	26.49	20.10	16.20	14.15	12.39	10.44	9.475	7.943	6.613	6.148	6.236	11.65	30.44	63.68	320.3	1001	249.9	18.17	2.391	1.876	1.740	1.591	1.769	1.603	1.570	1.416	1.366	1.225	1.313	1.260	1.186	1.220
525.0	140.1	182.1	205.0	240.3	310.7	262.4	273.0	595.7	2927	1315	273.1	256.2	226.2	197.6	170.4	148.1	133.3	126.8	117.2	112.1	108.4	106.6	105.5	103.1	101.4	100.6	99.25	100.5	99.73	99.10	96.02	89.37	82.99	73.99	67.40	61.43	55.08	49.93	44.19	39.75	35.07	30.99	29.08	26.33	27.28	26.48	20.76	15.77	13.78	11.81	10.05	8.895	8.151	6.916	5.662	5.387	6.331	10.18	17.37	76.43	439.9	913.3	222.7	10.09	2.003	1.646	1.548	1.595	1.410	1.330	1.345	1.299	1.079	1.190	1.224	1.127	1.091
530.0	131.6	153.8	189.9	200.9	265.5	265.2	230.9	314.4	1541	2557	521.3	220.6	199.4	171.8	148.8	131.2	116.0	109.4	102.7	96.80	93.33	91.52	90.18	89.67	88.01	86.48	87.66	85.99	87.31	85.11	82.14	76.06	70.59	63.54	58.81	54.03	48.09	43.52	39.04	35.17	32.04	28.53	25.74	23.33	22.59	23.44	21.93	16.72	12.88	10.99	9.480	8.274	7.601	6.658	5.886	5.128	4.984	5.655	6.726	20.05	104.4	377.8	676.6	424.0	16.83	1.914	1.526	1.392	1.385	1.209	1.270	1.177	1.144	1.151	1.101	1.034	0.975
535.0	111.1	142.1	155.7	168.9	203.4	262.6	208.1	220.6	526.9	2429	1626	212.8	171.4	147.9	126.4	112.1	98.39	93.75	87.00	80.92	80.38	78.27	77.16	74.98	74.52	72.84	73.91	72.65	73.82	73.74	70.83	65.14	60.67	54.19	49.48	45.27	41.38	38.41	34.96	31.31	28.05	26.43	22.68	20.62	19.36	18.54	19.62	17.91	13.21	10.14	8.611	7.725	7.059	6.032	5.894	5.070	4.582	4.349	4.300	7.127	25.56	86.33	199.9	640.1	532.3	23.08	1.794	1.382	1.262	1.153	1.209	1.025	0.980	1.030	0.969	0.973	0.952
540.0	103.9	131.3	135.6	145.0	167.2	229.5	201.0	183.5	257.4	1284	2818	350.5	150.3	132.5	111.6	99.18	87.79	82.41	75.18	73.16	70.03	68.05	68.05	66.32	64.45	64.04	63.83	63.94	64.12	63.83	60.77	56.97	52.65	48.98	44.86	40.65	37.78	34.38	31.00	27.43	25.45	22.72	20.34	18.75	17.60	16.02	16.21	16.95	13.50	10.32	8.335	7.487	6.407	5.685	5.356	5.262	4.622	4.040	3.671	4.085	8.262	21.43	46.95	231.1	721.8	245.0	15.30	1.427	1.217	1.131	1.130	1.030	0.841	0.953	0.852	0.847	0.794
545.0	95.49	111.5	120.3	132.5	139.1	187.1	211.8	163.5	178.1	499.7	2945	978.9	140.1	116.3	98.36	88.49	77.81	72.88	66.61	64.73	62.03	60.89	59.18	57.10	56.05	55.19	56.53	56.25	56.54	55.92	54.45	50.10	46.32	43.65	39.65	35.98	33.42	29.67	27.92	24.84	22.45	20.62	18.46	17.01	16.00	14.38	13.67	14.55	13.90	10.34	7.781	6.764	5.789	5.445	5.036	4.835	4.803	3.827	3.282	3.509	3.873	6.812	12.43	54.62	312.4	666.3	203.4	7.114	1.344	1.099	1.009	0.924	0.970	0.922	0.886	0.812	0.962
550.0	98.44	100.5	103.9	112.5	112.5	138.0	197.5	155.2	139.1	215.2	1443	2190	296.5	100.4	83.70	73.26	66.30	61.55	56.65	52.74	51.24	50.21	49.07	47.65	47.00	45.98	46.34	45.88	46.63	45.96	45.03	42.13	38.56	35.37	33.06	30.23	27.63	25.30	23.75	21.24	19.20	17.79	16.18	14.81	13.85	12.56	11.59	11.18	11.80	10.65	7.813	6.291	5.704	4.957	4.716	4.335	4.254	3.918	3.231	3.158	3.002	3.529	4.587	13.93	73.76	266.2	475.7	250.5	15.83	1.425	1.000	0.898	0.857	0.786	0.818	0.770	0.737
555.0	78.94	92.04	87.34	96.57	98.60	106.0	149.8	163.6	116.5	135.2	435.1	2210	1159	92.86	67.80	59.73	55.09	49.32	48.12	44.09	42.14	40.97	40.27	38.98	38.14	37.97	36.60	37.58	37.18	37.65	36.72	33.76	31.72	29.20	25.81	24.44	22.21	20.93	19.40	17.65	15.95	14.91	13.68	12.05	11.54	10.37	9.542	8.988	8.995	9.158	8.134	6.069	5.000	4.353	4.102	3.932	3.705	3.699	3.243	3.014	2.728	2.639	2.853	4.763	18.05	60.93	136.9	414.5	257.0	21.11	1.248	1.013	0.853	0.752	0.719	0.690	0.624
560.0	79.85	84.23	87.01	86.88	87.85	89.48	115.2	163.5	106.9	105.2	173.8	1139	2274	149.1	60.79	51.40	45.92	42.86	39.67	37.17	35.34	34.04	33.20	32.77	32.66	31.19	31.00	31.33	32.46	31.00	31.67	28.83	26.49	25.23	22.15	20.92	19.11	17.68	16.69	15.21	13.49	12.77	11.87	10.45	9.870	9.043	8.316	7.711	7.208	7.436	7.430	5.958	4.399	4.020	3.861	3.497	3.350	3.283	3.173	3.018	2.422	2.439	2.289	2.539	5.529	15.01	32.23	148.4	444.4	225.1	12.69	1.024	0.808	0.806	0.616	0.702	0.630
565.0	80.48	84.49	78.21	79.56	72.28	79.39	92.65	146.9	114.1	91.16	110.4	403.1	2493	593.5	54.20	44.86	40.89	35.37	34.19	31.57	30.83	29.16	27.73	27.90	27.95	26.77	26.61	27.00	27.34	26.22	25.91	24.39	22.78	21.73	18.81	17.68	16.77	15.04	13.99	13.03	12.01	10.75	10.09	9.279	8.490	8.168	7.365	6.942	5.939	5.918	6.446	6.148	4.490	3.725	3.537	3.196	2.974	2.857	2.963	2.986	2.467	2.238	2.173	2.026	2.747	4.956	8.725	35.23	190.0	434.7	162.9	4.903	0.919	0.846	0.628	0.711	0.598
570.0	79.69	82.23	73.32	69.33	59.26	66.25	70.30	107.0	128.4	84.54	88.62	150.7	1247	1628	100.8	36.98	33.51	29.46	27.40	25.89	25.10	23.52	22.83	22.74	23.09	22.09	21.17	21.39	21.57	20.93	21.60	20.07	18.39	17.48	15.37	14.16	13.93	12.70	11.25	10.77	9.914	8.997	8.322	7.801	7.297	6.548	6.020	5.728	4.974	4.630	4.826	5.285	4.467	3.582	3.074	2.769	2.715	2.559	2.563	2.658	2.635	2.252	2.112	1.892	2.111	2.584	3.391	9.264	45.28	170.1	304.4	144.2	13.83	0.986	0.665	0.653	0.603
575.0	82.71	78.88	70.18	61.24	53.88	53.40	58.28	71.82	124.7	92.99	75.23	89.97	349.6	1792	736.0	34.05	26.19	24.23	22.90	20.96	19.81	19.19	18.81	18.57	18.41	17.91	16.88	17.92	17.35	17.04	16.67	15.74	14.24	13.90	12.66	11.80	11.07	9.920	9.424	8.481	8.105	7.536	7.010	6.589	5.940	5.622	5.127	4.456	4.266	3.675	3.562	3.850	4.112	3.763	2.800	2.450	2.424	2.168	2.249	2.333	2.222	2.350	2.148	2.002	1.815	1.930	2.335	3.397	11.64	39.45	88.09	252.7	218.9	17.53	0.757	0.697	0.513
580.0	73.88	78.78	74.47	56.73	52.27	49.62	51.90	57.46	101.5	108.7	71.54	76.23	126.3	953.1	1581	70.46	23.17	21.12	19.81	17.56	16.88	16.51	15.30	15.00	15.06	14.42	14.20	14.60	15.28	14.43	14.32	13.18	12.42	11.76	10.31	9.974	9.250	8.518	7.845	7.422	6.901	6.216	5.949	5.429	5.015	4.683	4.191	3.882	3.757	3.210	2.972	3.115	3.580	3.598	3.122	2.369	2.146	2.059	1.951	2.084	1.980	2.361	2.234	2.097	1.895	2.013	1.977	2.177	3.809	10.10	21.11	91.40	287.1	163.1	8.799	0.693	0.497
585.0	69.36	85.14	70.16	54.48	45.63	45.78	47.79	50.31	78.82	118.8	74.76	69.59	69.99	321.4	1848	301.6	21.23	18.43	17.10	14.78	14.53	14.03	13.68	12.79	12.92	12.33	11.90	12.72	12.61	12.27	11.90	11.33	10.62	10.04	8.811	8.521	8.052	6.978	6.959	6.422	5.960	5.496	5.261	4.750	4.501	3.979	3.841	3.564	3.281	2.840	2.553	2.574	2.776	3.073	2.971	2.299	2.020	1.862	1.907	1.947	1.861	1.919	2.095	2.218	1.740	1.981	1.824	1.757	2.005	3.462	5.659	21.90	120.3	275.1	36.01	3.209	0.590
590.0	75.21	75.07	68.87	52.08	45.10	41.55	40.53	42.73	55.54	105.1	89.81	63.88	57.40	105.3	942.9	1060	50.93	16.28	13.86	12.55	12.15	11.57	11.08	11.04	10.55	10.55	10.10	10.81	10.18	10.24	9.636	9.345	8.655	8.197	7.470	7.153	6.569	5.911	5.502	5.483	4.854	4.268	4.333	4.120	3.836	3.540	3.292	3.051	2.869	2.486	2.189	2.160	2.156	2.440	2.576	2.497	2.039	1.739	1.644	1.686	1.657	1.724	1.778	1.956	1.843	1.846	1.597	1.549	1.559	1.823	2.182	5.787	28.48	104.3	172.3	108.9	12.32
595.0	66.54	71.99	70.02	48.18	39.27	38.09	39.67	40.28	45.81	73.41	107.3	64.69	52.88	54.48	252.4	1232	385.4	14.45	11.47	10.66	10.16	9.663	8.608	9.129	8.452	8.483	8.125	8.662	7.855	8.186	7.896	7.452	6.933	6.340	6.252	5.687	5.369	4.873	4.405	4.367	3.783	3.657	3.580	3.235	3.008	2.891	2.796	2.603	2.296	2.159	1.869	1.885	1.643	1.812	2.053	2.285	1.831	1.525	1.451	1.560	1.321	1.356	1.474	1.656	1.878	1.648	1.483	1.267	1.399	1.434	1.284	2.019	7.056	23.90	48.93	154.9	146.6
600.0	66.11	67.04	62.54	48.94	37.93	36.01	34.91	35.43	45.64	59.76	107.1	72.85	52.74	43.19	78.69	695.4	820.2	28.75	10.17	9.044	8.712	8.365	7.684	8.168	7.040	6.805	6.861	6.990	6.665	6.962	6.687	6.402	5.785	5.761	5.236	4.635	4.319	4.213	3.889	3.730	3.224	3.252	2.939	2.904	2.452	2.576	2.294	2.164	2.189	1.817	1.652	1.535	1.421	1.533	1.680	1.761	1.959	1.530	1.416	1.190	1.185	1.233	1.309	1.404	1.512	1.606	1.441	1.270	1.267	1.175	1.116	1.092	2.144	5.940	11.55	52.23	175.6
605.0	60.44	72.79	63.05	45.87	35.52	34.17	32.26	36.66	43.51	54.59	93.09	91.29	54.60	41.74	40.92	236.9	1140	87.49	9.769	8.124	7.634	7.248	6.858	6.713	6.336	5.907	6.044	5.656	6.422	6.184	5.861	5.767	4.869	4.713	4.515	4.003	3.936	3.552	3.255	3.129	2.729	2.790	2.621	2.447	2.348	2.307	1.937	1.913	1.806	1.616	1.515	1.311	1.281	1.358	1.319	1.457	1.757	1.661	1.413	1.227	1.141	1.092	1.198	1.228	1.243	1.580	1.529	1.127	1.042	1.062	1.092	0.928	1.016	1.804	3.085	12.47	69.41
610.0	65.66	67.22	59.09	43.88	34.94	31.76	33.19	38.26	45.92	55.85	78.02	108.1	66.30	46.27	37.20	74.49	651.4	642.9	27.07	6.807	6.278	5.724	5.598	5.562	5.093	4.782	5.137	4.770	4.850	4.878	4.883	4.463	4.070	3.845	3.689	3.422	3.032	2.948	2.654	2.545	2.126	2.310	2.213	1.995	2.038	1.855	1.729	1.649	1.437	1.359	1.304	1.195	1.132	1.097	1.171	1.186	1.326	1.539	1.337	1.106	1.100	0.993	0.976	1.035	1.031	1.184	1.249	1.278	1.095	0.919	0.959	0.855	0.754	0.918	1.173	3.241	16.34
615.0	68.30	66.49	62.10	44.69	34.79	31.10	36.99	36.08	45.44	54.83	68.98	100.3	82.49	49.55	37.78	36.08	180.5	836.0	210.7	6.410	5.193	4.882	4.448	4.331	4.141	3.941	4.124	3.994	4.055	3.772	4.000	3.469	3.435	3.179	3.047	2.956	2.479	2.438	2.340	2.190	1.961	1.790	1.893	1.579	1.741	1.531	1.415	1.357	1.303	1.116	1.135	1.007	1.079	0.852	0.894	0.952	1.017	1.280	1.379	1.024	0.994	0.927	1.048	0.915	0.919	1.002	1.124	1.117	1.110	0.885	0.926	0.735	0.652	0.703	0.703	1.161	4.064
620.0	65.52	63.45	60.21	41.74	30.96	31.07	34.18	35.25	43.68	52.05	63.85	82.52	91.21	50.66	37.74	27.20	56.56	519.1	561.9	12.02	4.617	4.687	4.118	4.030	3.613	3.597	3.424	3.336	3.307	3.374	3.187	2.941	2.921	2.620	2.626	2.512	2.186	1.938	2.078	1.884	1.645	1.605	1.729	1.562	1.443	1.305	1.295	1.131	1.124	1.055	0.957	0.915	0.947	0.764	0.826	0.921	0.788	1.123	1.092	1.078	0.894	0.854	0.852	0.874	0.785	0.844	0.989	0.891	1.114	1.037	0.972	0.718	0.631	0.643	0.623	0.665	1.330
625.0	61.54	57.92	53.63	41.15	31.77	28.42	31.92	36.73	41.58	50.91	59.39	74.35	93.73	56.97	36.82	24.72	28.44	190.1	798.4	57.62	4.334	4.048	3.586	3.364	3.340	2.891	2.854	3.107	2.944	2.964	3.028	2.662	2.549	2.134	2.332	2.035	1.950	1.772	1.809	1.497	1.431	1.458	1.358	1.227	1.137	1.157	1.159	1.159	0.980	0.861	0.837	0.833	0.842	0.668	0.790	0.825	0.760	0.817	0.988	1.053	0.870	0.799	0.770	0.848	0.758	0.779	0.849	0.834	0.970	1.019	0.845	0.653	0.614	0.534	0.533	0.584	0.588
630.0	56.40	60.59	55.12	39.63	31.03	28.98	29.29	33.98	40.79	48.12	56.00	66.08	81.57	65.96	36.70	23.83	20.43	54.71	495.3	413.7	11.39	3.515	3.064	2.917	2.808	2.541	2.435	2.453	2.327	2.368	2.350	2.340	2.047	2.007	1.950	1.797	1.645	1.534	1.517	1.367	1.275	1.223	1.148	1.090	1.060	1.044	0.945	0.954	0.826	0.736	0.725	0.757	0.711	0.604	0.641	0.689	0.777	0.758	0.782	0.894	0.902	0.774	0.674	0.702	0.744	0.735	0.813	0.772	0.763	0.841	0.875	0.753	0.626	0.593	0.541	0.519	0.458
635.0	59.35	59.43	53.87	40.80	31.13	28.51	29.94	33.47	38.84	45.94	52.70	60.52	64.86	72.73	41.24	24.08	19.75	21.45	135.2	628.6	66.70	3.326	2.770	2.413	2.267	2.119	2.195	2.005	1.837	1.940	1.872	1.841	1.799	1.641	1.425	1.422	1.306	1.210	1.377	1.085	1.094	1.046	0.875	0.908	0.834	0.868	0.784	0.753	0.723	0.696	0.640	0.653	0.657	0.514	0.537	0.573	0.569	0.665	0.619	0.717	0.697	0.785	0.765	0.635	0.668	0.620	0.711	0.668	0.612	0.762	0.803	0.805	0.606	0.524	0.558	0.448	0.514
640.0	59.37	57.83	52.07	39.84	29.68	26.00	29.82	32.51	35.65	46.77	50.98	56.34	59.65	69.33	48.26	25.55	19.39	14.24	37.37	428.4	346.4	6.145	2.652	2.318	1.895	1.804	1.733	1.813	1.753	1.788	1.609	1.687	1.580	1.538	1.424	1.203	1.183	1.112	1.104	0.899	1.033	0.945	0.844	0.802	0.848	0.788	0.695	0.764	0.708	0.578	0.467	0.544	0.559	0.527	0.504	0.539	0.604	0.575	0.599	0.613	0.664	0.847	0.708	0.599	0.670	0.619	0.658	0.656	0.623	0.670	0.819	0.865	0.606	0.538	0.595	0.492	0.437
645.0	66.00	66.38	54.06	39.22	30.33	29.40	28.38	33.10	37.96	48.25	52.09	56.78	59.50	58.43	54.70	26.94	19.80	13.86	14.11	166.0	560.1	37.57	2.449	2.331	1.950	2.037	1.719	1.598	1.500	1.605	1.362	1.574	1.256	1.213	1.264	1.105	1.140	1.107	0.990	0.884	0.871	0.826	0.883	0.763	0.727	0.701	0.709	0.758	0.662	0.561	0.474	0.565	0.502	0.493	0.570	0.527	0.538	0.489	0.585	0.555	0.738	0.743	0.675	0.709	0.644	0.552	0.602	0.582	0.651	0.740	0.676	0.723	0.559	0.643	0.567	0.497	0.458
650.0	70.55	63.43	61.22	42.38	29.65	24.98	27.56	32.32	35.89	43.20	51.53	54.08	55.98	52.16	57.24	29.05	19.10	13.29	8.803	46.85	501.2	178.4	2.774	2.098	1.891	1.585	1.587	1.494	1.394	1.334	1.199	1.495	1.174	1.265	1.093	0.990	0.887	0.995	0.883	0.721	0.702	0.801	0.849	0.707	0.753	0.653	0.632	0.670	0.618	0.530	0.498	0.541	0.461	0.446	0.476	0.479	0.505	0.528	0.523	0.579	0.597	0.767	0.658	0.724	0.651	0.585	0.590	0.599	0.642	0.569	0.602	0.691	0.589	0.670	0.577	0.501	0.511
