Sample:	'1
File name:	Default_20230221_154903.FD3
Run date:	'15:42:42, 02/21/2023
Operator:	dsjg
Comment:	'

Instrument
Model:	F-2700 FL Spectrophotometer
Serial number:	2198-001
ROM Version:	4J14000 07

Instrument parameters
Measurement type:	3-D scan
Data mode:	Fluorescence
EX  Start WL:	220.0 nm
EX  End WL:	600.0 nm
EX Sampling interval:	5.0 nm
EM  Start WL:	230.0 nm
EM  End WL:	650.0 nm
EM Sampling interval:	5.0 nm
Scan speed:	12000 nm/min
EX Slit:	5.0 nm
EM Slit:	5.0 nm
PMT Voltage:	700 V
Response:	Auto 
Corrected spectra:	Off
Contour interval:	50.000

Peak integration
Integration method:	Rectangular
Sensitivity:	1
Threshold:	1.000

Peaks
No.	ApexEX/EM(nm)	Height(Data)
1	230.0/345.0	413.8
2	235.0/360.0	405.7
3	235.0/385.0	402.8
4	240.0/265.0	131.6
5	240.0/380.0	407.9
6	240.0/525.0	106.3
7	245.0/270.0	124.2
8	245.0/400.0	415.9
9	250.0/275.0	148.0
10	250.0/410.0	411.4
11	250.0/550.0	71.21
12	255.0/285.0	163.9
13	255.0/435.0	406.3
14	260.0/290.0	169.6
15	260.0/425.0	408.4
16	265.0/295.0	210.8
17	265.0/585.0	34.35
18	270.0/600.0	28.35
19	275.0/305.0	382.6
20	275.0/610.0	28.09
21	280.0/315.0	397.2
22	280.0/340.0	385.7
23	280.0/385.0	387.6
24	280.0/620.0	25.02
25	285.0/320.0	402.7
26	290.0/325.0	393.4
27	300.0/335.0	322.9
28	305.0/345.0	296.6
29	310.0/350.0	254.5
30	320.0/365.0	239.6
31	325.0/370.0	234.9
32	330.0/425.0	250.8
33	335.0/380.0	242.5
34	340.0/390.0	222.8
35	350.0/400.0	210.9
36	355.0/405.0	201.6
37	430.0/505.0	21.41
38	445.0/525.0	12.10
39	555.0/305.0	2.198
40	560.0/310.0	2.260
41	570.0/315.0	2.301
42	575.0/320.0	2.466
43	585.0/325.0	2.417

Data points
	220.0	225.0	230.0	235.0	240.0	245.0	250.0	255.0	260.0	265.0	270.0	275.0	280.0	285.0	290.0	295.0	300.0	305.0	310.0	315.0	320.0	325.0	330.0	335.0	340.0	345.0	350.0	355.0	360.0	365.0	370.0	375.0	380.0	385.0	390.0	395.0	400.0	405.0	410.0	415.0	420.0	425.0	430.0	435.0	440.0	445.0	450.0	455.0	460.0	465.0	470.0	475.0	480.0	485.0	490.0	495.0	500.0	505.0	510.0	515.0	520.0	525.0	530.0	535.0	540.0	545.0	550.0	555.0	560.0	565.0	570.0	575.0	580.0	585.0	590.0	595.0	600.0
230.0	29.11	465.8	682.7	123.8	3.250	1.770	1.710	1.356	1.249	1.023	0.947	0.807	0.844	0.660	0.603	0.521	0.430	0.507	0.389	0.385	0.351	0.380	0.307	0.340	0.273	0.261	0.278	0.255	0.257	0.246	0.244	0.255	0.182	0.199	0.215	0.296	0.293	0.251	0.266	0.213	0.185	0.227	0.204	0.158	0.191	0.177	0.316	1.306	3.027	2.660	1.102	0.236	0.122	0.116	0.103	0.099	0.092	0.071	0.089	0.070	0.079	0.069	0.068	0.063	0.071	0.063	0.073	0.063	0.074	0.049	0.063	0.049	0.055	0.050	0.057	0.056	0.052
235.0	18.87	153.7	711.9	849.1	175.4	3.724	1.695	1.517	1.092	1.176	0.870	0.830	0.942	0.714	0.672	0.598	0.542	0.514	0.504	0.396	0.366	0.346	0.277	0.283	0.408	0.285	0.308	0.285	0.237	0.270	0.257	0.237	0.177	0.198	0.173	0.206	0.311	0.276	0.235	0.247	0.205	0.215	0.214	0.241	0.232	0.204	0.190	0.411	1.157	2.361	3.591	4.028	1.903	0.432	0.161	0.105	0.120	0.065	0.073	0.059	0.067	0.079	0.091	0.065	0.082	0.080	0.050	0.045	0.059	0.047	0.094	0.072	0.072	0.050	0.054	0.060	0.065
240.0	30.70	47.84	293.7	 1025	870.6	114.2	3.103	1.747	1.567	1.268	1.061	1.119	0.895	0.762	0.675	0.652	0.505	0.569	0.538	0.377	0.410	0.415	0.301	0.374	0.388	0.332	0.292	0.244	0.308	0.262	0.208	0.229	0.190	0.204	0.143	0.134	0.239	0.272	0.258	0.317	0.249	0.207	0.213	0.213	0.243	0.304	0.220	0.263	0.390	0.783	1.901	4.685	5.902	4.338	1.445	0.186	0.083	0.088	0.082	0.085	0.091	0.097	0.093	0.071	0.080	0.085	0.069	0.045	0.071	0.062	0.063	0.076	0.056	0.064	0.059	0.051	0.062
245.0	37.45	48.17	78.65	495.3	 1289	389.4	60.91	2.347	1.767	1.458	1.373	1.031	0.917	0.782	0.855	0.703	0.550	0.540	0.485	0.405	0.419	0.293	0.384	0.342	0.410	0.287	0.273	0.287	0.302	0.225	0.254	0.221	0.211	0.290	0.189	0.140	0.162	0.253	0.301	0.294	0.224	0.231	0.239	0.185	0.257	0.264	0.325	0.301	0.270	0.278	0.562	1.649	3.810	7.029	6.516	3.136	0.674	0.121	0.091	0.089	0.097	0.099	0.073	0.081	0.073	0.075	0.056	0.069	0.073	0.058	0.043	0.063	0.045	0.056	0.059	0.045	0.037
250.0	17.73	58.05	74.72	136.1	563.8	 1104	893.2	142.6	8.644	2.191	1.340	1.341	1.179	1.001	0.880	0.687	0.534	0.586	0.508	0.525	0.428	0.374	0.412	0.318	0.351	0.291	0.286	0.293	0.305	0.258	0.223	0.198	0.199	0.216	0.171	0.155	0.143	0.172	0.212	0.304	0.215	0.257	0.248	0.200	0.211	0.232	0.267	0.343	0.407	0.357	0.336	0.500	1.037	2.420	4.085	5.885	6.655	5.551	2.995	0.819	0.123	0.088	0.098	0.089	0.076	0.083	0.066	0.081	0.068	0.056	0.063	0.060	0.047	0.057	0.055	0.053	0.045
255.0	7.640	24.97	91.73	108.0	143.7	367.4	 1250	 1597	197.7	7.589	2.316	1.724	1.238	1.113	0.985	0.841	0.638	0.743	0.566	0.435	0.448	0.441	0.331	0.322	0.316	0.329	0.342	0.296	0.275	0.279	0.261	0.267	0.197	0.169	0.177	0.182	0.139	0.190	0.139	0.228	0.207	0.279	0.244	0.252	0.199	0.183	0.239	0.227	0.269	0.386	0.504	0.588	0.453	0.677	1.021	1.548	2.854	6.548	10.65	9.473	4.087	0.679	0.126	0.077	0.099	0.094	0.051	0.063	0.050	0.058	0.069	0.039	0.048	0.060	0.046	0.064	0.049
260.0	5.002	10.01	49.06	119.4	93.69	95.27	494.5	 1760	 1518	146.7	4.760	2.162	1.400	1.336	1.153	0.926	0.655	0.780	0.492	0.485	0.501	0.434	0.440	0.361	0.305	0.311	0.285	0.343	0.256	0.253	0.260	0.292	0.200	0.182	0.248	0.154	0.134	0.188	0.149	0.153	0.188	0.249	0.284	0.234	0.233	0.170	0.226	0.198	0.195	0.233	0.358	0.725	0.807	0.517	0.411	0.474	0.791	1.943	5.136	10.44	12.03	8.278	2.920	0.314	0.113	0.102	0.073	0.068	0.060	0.057	0.073	0.058	0.058	0.039	0.048	0.049	0.046
265.0	4.685	5.748	16.18	78.21	131.6	60.79	125.4	774.6	 2098	 1323	108.9	3.151	2.283	1.502	1.385	1.073	0.755	0.701	0.594	0.613	0.568	0.426	0.446	0.334	0.388	0.319	0.320	0.351	0.437	0.287	0.237	0.274	0.266	0.191	0.207	0.150	0.155	0.185	0.134	0.125	0.147	0.233	0.263	0.257	0.186	0.184	0.239	0.204	0.179	0.178	0.161	0.385	0.711	0.839	0.572	0.308	0.300	0.534	1.367	3.551	7.489	12.65	13.32	6.719	1.442	0.121	0.091	0.082	0.074	0.074	0.086	0.048	0.054	0.050	0.042	0.051	0.047
270.0	7.164	9.466	9.625	26.41	86.39	124.2	83.42	196.6	807.6	 1763	 1773	444.1	19.64	2.423	1.647	1.425	1.003	0.844	0.700	0.577	0.566	0.504	0.528	0.370	0.418	0.362	0.370	0.319	0.317	0.299	0.287	0.267	0.266	0.227	0.220	0.197	0.155	0.177	0.134	0.144	0.139	0.174	0.229	0.254	0.248	0.224	0.244	0.248	0.194	0.152	0.139	0.221	0.342	0.484	0.663	0.782	0.580	0.467	0.486	0.950	1.925	4.141	7.246	10.29	11.72	9.457	4.916	1.343	0.151	0.069	0.097	0.073	0.067	0.055	0.065	0.067	0.077
275.0	13.85	17.78	15.72	14.78	28.09	84.12	148.0	109.4	197.1	515.3	 1630	 2387	621.6	15.31	2.271	1.728	1.374	0.933	1.003	0.770	0.683	0.563	0.545	0.414	0.427	0.331	0.400	0.314	0.355	0.405	0.306	0.210	0.298	0.258	0.196	0.177	0.179	0.193	0.148	0.155	0.151	0.157	0.150	0.182	0.304	0.273	0.242	0.285	0.209	0.204	0.171	0.180	0.195	0.192	0.299	0.420	0.796	1.045	0.858	0.465	0.564	1.035	1.781	2.621	4.311	8.747	14.25	14.70	7.372	1.045	0.108	0.086	0.085	0.059	0.107	0.072	0.051
280.0	20.98	33.37	26.75	17.31	15.07	37.41	123.9	161.7	90.27	139.6	570.9	 2085	 2283	117.3	6.455	2.179	1.676	1.115	1.035	0.853	0.735	0.643	0.656	0.684	0.471	0.378	0.380	0.361	0.358	0.371	0.278	0.337	0.307	0.260	0.249	0.202	0.206	0.220	0.153	0.182	0.119	0.167	0.151	0.144	0.245	0.291	0.277	0.321	0.270	0.232	0.199	0.193	0.184	0.181	0.201	0.269	0.380	0.764	0.999	0.972	0.591	0.430	0.567	0.737	1.159	2.571	6.297	12.94	17.46	12.30	4.266	0.323	0.110	0.085	0.113	0.081	0.068
285.0	30.67	44.55	37.06	23.27	16.91	20.03	62.17	163.9	143.0	71.75	164.2	806.5	 2324	 2076	87.81	3.833	2.314	1.296	1.130	0.922	0.835	0.713	0.618	0.610	0.492	0.447	0.438	0.406	0.429	0.357	0.322	0.282	0.296	0.222	0.257	0.200	0.189	0.194	0.162	0.182	0.164	0.153	0.154	0.122	0.222	0.330	0.372	0.335	0.349	0.269	0.230	0.174	0.214	0.178	0.185	0.198	0.294	0.410	0.656	1.105	1.209	0.816	0.466	0.357	0.451	0.841	1.658	4.092	9.247	15.77	16.89	8.843	1.955	0.133	0.073	0.102	0.071
290.0	40.36	59.39	53.24	32.29	23.61	22.38	37.48	88.39	169.6	162.5	108.4	234.0	817.7	 1753	 1966	368.5	19.59	2.052	1.455	1.182	0.981	0.760	0.674	0.692	0.615	0.426	0.473	0.429	0.413	0.378	0.371	0.338	0.333	0.282	0.291	0.217	0.221	0.211	0.174	0.163	0.181	0.146	0.181	0.201	0.196	0.279	0.331	0.337	0.400	0.344	0.295	0.281	0.239	0.224	0.229	0.197	0.262	0.273	0.320	0.591	0.858	1.034	1.115	0.889	0.546	0.490	0.659	1.201	2.466	4.858	8.325	11.71	14.17	11.41	6.390	1.348	0.159
295.0	50.54	68.08	67.43	46.79	35.07	33.88	41.08	61.08	110.7	210.8	200.9	146.3	245.6	486.9	 1267	 2440	557.2	16.32	2.012	1.576	1.184	1.012	0.917	0.794	0.601	0.588	0.528	0.467	0.398	0.431	0.378	0.305	0.347	0.309	0.274	0.296	0.154	0.272	0.208	0.187	0.161	0.176	0.189	0.185	0.194	0.266	0.253	0.455	0.440	0.407	0.362	0.307	0.319	0.261	0.300	0.261	0.294	0.318	0.305	0.397	0.493	0.554	0.798	1.186	1.480	1.061	0.597	0.665	0.941	1.418	2.169	3.038	5.047	9.342	17.63	17.57	7.275
300.0	55.37	78.41	77.97	54.87	44.62	51.09	58.42	73.71	102.8	189.3	299.9	186.6	159.4	182.0	434.0	 1665	 2576	346.3	6.820	2.179	1.852	1.134	1.025	0.857	0.691	0.603	0.581	0.439	0.447	0.491	0.478	0.367	0.353	0.284	0.285	0.288	0.200	0.278	0.165	0.195	0.182	0.238	0.217	0.198	0.233	0.251	0.328	0.386	0.360	0.425	0.396	0.402	0.342	0.372	0.337	0.275	0.351	0.390	0.403	0.469	0.472	0.568	0.655	1.035	1.371	1.848	1.502	0.994	0.896	0.839	0.989	1.086	1.502	2.856	7.206	14.82	20.60
305.0	61.89	93.59	92.45	75.52	61.32	74.68	88.96	105.4	142.9	196.1	306.0	382.6	238.8	152.0	190.0	607.6	 2046	 2266	51.22	3.906	2.118	1.397	1.288	0.900	0.708	0.741	0.696	0.569	0.514	0.497	0.471	0.402	0.385	0.282	0.306	0.309	0.220	0.280	0.173	0.247	0.196	0.197	0.190	0.217	0.252	0.304	0.339	0.410	0.437	0.437	0.464	0.456	0.468	0.385	0.418	0.418	0.513	0.534	0.615	0.618	0.690	0.787	0.834	0.943	1.289	1.673	2.015	2.198	1.604	1.005	0.973	0.892	0.851	1.249	2.180	4.787	10.92
310.0	67.00	102.4	102.6	92.78	85.79	94.30	113.1	135.4	169.4	215.8	277.4	379.9	388.2	243.9	171.6	228.6	680.4	 1660	 1958	816.1	16.98	2.173	1.633	1.200	0.869	0.828	0.814	0.612	0.586	0.531	0.514	0.462	0.411	0.297	0.307	0.326	0.275	0.283	0.205	0.234	0.230	0.216	0.258	0.258	0.254	0.284	0.340	0.481	0.484	0.473	0.462	0.543	0.538	0.500	0.487	0.544	0.618	0.627	0.705	0.769	0.855	0.994	1.052	1.121	1.264	1.393	1.586	2.033	2.260	2.038	1.451	1.089	0.888	1.064	1.052	1.560	3.073
315.0	69.94	122.3	126.2	111.8	104.3	109.8	137.1	158.7	190.4	236.3	284.2	330.4	397.2	386.9	228.1	166.7	246.1	462.4	 1069	 2619	431.8	17.28	2.081	1.596	1.056	1.132	0.933	0.736	0.612	0.572	0.505	0.540	0.369	0.373	0.351	0.340	0.296	0.260	0.201	0.242	0.230	0.272	0.247	0.210	0.236	0.349	0.395	0.570	0.597	0.495	0.406	0.564	0.580	0.553	0.544	0.647	0.727	0.755	0.754	0.919	0.943	1.116	1.133	1.196	1.366	1.435	1.578	1.705	1.811	2.085	2.301	2.056	1.441	1.108	0.940	0.950	1.255
320.0	83.03	144.7	151.7	126.2	113.7	122.9	147.1	176.8	203.1	252.1	295.3	328.2	367.3	402.7	338.8	185.8	165.9	175.9	327.4	 1509	 2579	342.7	7.683	2.195	1.334	1.332	0.959	0.886	0.724	0.626	0.670	0.566	0.479	0.344	0.374	0.342	0.340	0.257	0.237	0.287	0.236	0.326	0.229	0.266	0.311	0.393	0.442	0.659	0.662	0.588	0.533	0.615	0.575	0.660	0.628	0.784	0.745	0.726	0.860	0.940	1.125	1.078	1.117	1.412	1.499	1.561	1.685	1.709	1.667	1.786	2.034	2.466	2.148	1.605	1.138	0.864	0.992
325.0	104.5	197.8	205.4	155.8	131.9	139.9	161.2	186.0	210.9	264.4	308.0	347.0	357.3	357.4	393.4	256.8	162.5	121.4	114.5	462.5	 1891	 2444	50.49	3.775	1.814	1.471	1.154	0.984	0.865	0.765	0.672	0.455	0.602	0.335	0.362	0.337	0.382	0.273	0.261	0.244	0.221	0.297	0.248	0.307	0.327	0.488	0.559	0.772	0.802	0.778	0.629	0.682	0.596	0.760	0.653	0.829	0.842	0.790	0.968	0.968	1.105	1.155	1.115	1.496	1.555	1.635	1.755	1.721	1.667	1.899	1.833	2.019	2.302	2.417	1.682	1.015	0.963
330.0	128.4	245.6	282.9	232.7	169.7	160.0	174.2	195.4	221.6	268.9	316.1	357.2	370.3	341.5	342.5	332.7	236.3	130.1	84.72	141.7	544.5	 1610	 2089	814.0	13.56	1.985	1.459	1.189	0.931	0.802	0.797	0.576	0.591	0.390	0.330	0.373	0.359	0.313	0.315	0.288	0.263	0.251	0.280	0.328	0.354	0.480	0.596	0.934	1.044	1.072	0.944	0.985	0.895	0.850	0.777	0.844	0.926	0.922	0.998	1.107	1.170	1.196	1.341	1.497	1.586	1.667	1.718	1.803	1.805	1.918	1.886	1.853	1.937	1.908	1.965	1.881	1.628
335.0	148.0	282.0	357.1	302.3	221.1	189.6	184.3	211.9	238.0	271.7	328.9	366.6	376.4	351.7	322.9	297.7	322.9	201.6	101.1	85.85	161.0	402.4	 1023	 2656	304.1	16.90	2.090	1.645	1.129	0.922	0.879	0.645	0.613	0.441	0.381	0.385	0.348	0.318	0.308	0.298	0.280	0.283	0.311	0.417	0.347	0.609	0.679	1.079	1.250	1.152	1.222	1.212	1.262	1.045	0.901	0.935	0.959	0.949	1.016	1.223	1.280	1.222	1.385	1.483	1.613	1.540	1.841	1.837	1.975	2.030	1.889	1.877	1.942	1.748	1.713	1.673	2.039
340.0	157.9	304.2	397.8	342.0	247.3	214.6	207.5	221.8	246.4	286.3	329.4	372.6	385.7	360.0	326.5	279.9	299.0	284.3	138.0	86.93	85.60	127.3	288.9	 1497	 2403	254.8	8.201	1.974	1.372	1.109	0.884	0.737	0.695	0.484	0.475	0.432	0.454	0.329	0.277	0.315	0.351	0.286	0.315	0.363	0.382	0.655	0.774	1.098	1.287	1.344	1.238	1.259	1.255	1.022	1.054	0.946	1.037	1.004	1.174	1.254	1.139	1.233	1.288	1.448	1.514	1.582	1.810	1.880	1.918	1.958	1.979	1.894	1.886	1.724	1.551	1.545	1.675
345.0	163.6	316.5	413.8	373.2	279.0	232.4	224.5	231.7	250.3	285.9	330.7	372.3	384.3	363.2	334.2	280.3	260.4	296.6	213.5	106.5	81.11	76.15	98.89	435.1	 1880	 2071	45.07	3.784	1.798	1.389	1.052	0.741	0.750	0.600	0.484	0.453	0.340	0.384	0.316	0.338	0.282	0.287	0.271	0.374	0.461	0.578	0.760	1.175	1.331	1.372	1.399	1.365	1.259	1.174	1.020	1.037	1.055	1.133	1.229	1.337	1.254	1.372	1.381	1.442	1.583	1.564	1.785	1.840	1.978	2.020	2.176	1.939	1.936	1.788	1.728	1.456	1.468
350.0	157.2	306.2	412.7	395.8	312.0	256.3	242.1	248.8	258.7	289.0	330.0	364.9	377.4	361.7	337.6	288.4	251.9	244.2	254.5	180.7	108.3	81.91	71.55	132.1	528.7	 1456	 2010	773.5	12.86	2.017	1.409	0.933	0.839	0.676	0.553	0.479	0.408	0.375	0.385	0.298	0.344	0.268	0.315	0.356	0.441	0.576	0.734	1.126	1.301	1.373	1.446	1.555	1.471	1.220	1.194	1.141	1.186	1.101	1.307	1.408	1.284	1.376	1.383	1.559	1.634	1.572	1.727	1.787	1.834	1.884	2.001	2.013	1.866	1.763	1.707	1.614	1.482
355.0	157.0	300.2	405.5	403.1	335.5	282.9	264.2	266.2	268.5	291.9	329.0	352.5	370.4	356.8	336.2	297.7	262.5	232.8	223.8	225.0	184.0	108.5	82.77	79.63	151.7	355.7	952.9	 2520	281.8	18.06	2.137	1.313	0.961	0.822	0.617	0.529	0.444	0.466	0.422	0.332	0.347	0.349	0.330	0.378	0.438	0.535	0.721	1.036	1.267	1.458	1.471	1.646	1.507	1.347	1.391	1.265	1.196	1.293	1.309	1.360	1.340	1.429	1.456	1.639	1.602	1.555	1.679	1.764	1.882	1.892	1.886	1.855	1.996	1.933	1.711	1.656	1.676
360.0	147.0	282.2	397.4	405.7	353.4	298.8	289.1	281.0	281.7	305.3	328.2	356.4	366.0	356.7	342.4	304.1	271.8	242.5	214.5	206.9	239.5	153.3	96.03	80.70	79.36	107.5	257.8	 1392	 2219	295.2	8.371	1.575	1.317	0.878	0.621	0.586	0.496	0.447	0.448	0.359	0.342	0.304	0.350	0.401	0.462	0.603	0.706	1.043	1.376	1.464	1.442	1.576	1.484	1.410	1.484	1.267	1.344	1.400	1.486	1.362	1.481	1.519	1.553	1.656	1.648	1.584	1.699	1.792	1.940	1.873	1.872	1.877	1.930	1.835	1.717	1.717	1.723
365.0	143.1	283.4	385.1	405.1	364.8	320.4	298.1	296.3	295.2	311.3	332.8	359.2	364.9	352.5	345.9	309.8	280.6	256.0	225.4	196.3	239.6	217.7	120.2	94.09	75.60	59.57	86.70	391.8	 1716	 2243	42.70	3.260	1.607	1.257	0.694	0.698	0.528	0.501	0.389	0.415	0.334	0.352	0.307	0.378	0.449	0.556	0.741	0.973	1.245	1.217	1.414	1.567	1.498	1.506	1.524	1.404	1.320	1.481	1.485	1.398	1.410	1.604	1.599	1.741	1.580	1.689	1.778	1.705	1.773	1.858	1.830	1.841	1.980	1.954	1.725	1.658	1.706
370.0	136.1	269.8	379.5	397.9	380.3	343.1	327.1	318.1	314.2	324.5	338.4	358.2	368.9	355.3	339.8	315.5	293.8	271.9	246.6	211.1	217.4	234.9	187.4	130.2	95.57	67.20	62.63	119.0	479.5	 1551	 1967	628.2	13.34	1.752	1.026	0.855	0.604	0.581	0.383	0.455	0.389	0.371	0.333	0.398	0.445	0.564	0.727	0.989	1.228	1.244	1.401	1.650	1.547	1.533	1.652	1.563	1.557	1.565	1.575	1.397	1.512	1.588	1.643	1.674	1.752	1.698	1.764	1.773	1.757	1.877	1.864	1.837	1.962	1.858	1.789	1.720	1.781
375.0	136.2	261.2	371.5	396.7	399.5	366.0	352.7	332.7	335.7	342.9	353.3	364.9	376.1	360.3	340.5	322.8	305.8	289.8	268.4	233.6	227.9	219.4	218.4	205.5	130.7	89.38	77.06	77.88	139.7	379.6	984.2	 2203	293.7	15.91	1.647	1.161	0.722	0.679	0.517	0.472	0.421	0.357	0.366	0.404	0.466	0.599	0.722	0.998	1.112	1.207	1.283	1.651	1.706	1.647	1.643	1.672	1.655	1.627	1.688	1.619	1.563	1.565	1.577	1.737	1.912	1.741	1.868	1.829	1.932	1.988	1.760	1.942	1.990	1.890	1.852	1.873	1.786
380.0	139.4	257.7	353.0	400.5	407.9	380.1	360.2	350.1	342.5	348.6	364.5	372.0	381.4	363.8	339.5	329.8	314.3	299.5	278.8	247.9	244.0	222.8	206.6	242.5	176.9	111.8	95.03	82.48	78.27	118.0	273.5	 1301	 2191	252.7	5.213	1.450	0.821	0.789	0.514	0.426	0.396	0.350	0.378	0.438	0.523	0.521	0.691	0.965	1.164	1.263	1.326	1.693	1.724	1.822	1.702	1.718	1.700	1.797	1.756	1.761	1.722	1.624	1.748	1.842	1.939	1.714	1.796	1.970	1.983	1.849	1.967	1.820	2.020	1.895	1.944	1.973	1.822
385.0	142.6	248.1	349.6	402.8	402.1	386.6	367.7	362.6	358.9	361.6	367.6	377.6	387.6	374.2	339.1	326.2	316.5	303.9	290.6	260.5	252.7	232.5	205.3	233.1	222.4	141.9	112.3	94.75	72.83	66.71	98.68	387.9	 1720	 1832	28.85	2.362	1.128	0.928	0.649	0.497	0.442	0.403	0.417	0.413	0.481	0.546	0.666	0.932	1.161	1.196	1.245	1.736	1.765	1.754	1.652	1.858	1.897	1.740	1.709	1.741	1.696	1.751	1.755	1.846	1.906	1.896	1.807	1.908	1.929	2.063	1.945	1.958	2.060	1.933	1.821	2.020	1.876
390.0	136.4	244.2	345.4	397.0	408.5	398.6	380.9	375.3	368.0	369.0	373.5	377.3	383.9	369.8	339.5	326.2	320.6	309.7	296.7	272.5	263.9	246.6	214.9	216.6	222.8	195.6	140.6	109.0	84.20	66.66	64.92	120.9	481.0	 1319	 1392	493.4	9.341	1.265	0.884	0.686	0.543	0.473	0.443	0.415	0.524	0.555	0.709	1.012	1.213	1.188	1.300	1.731	1.771	1.793	1.681	1.853	1.951	1.870	1.747	1.853	1.770	1.814	1.764	1.828	1.824	1.837	1.823	1.950	1.822	2.002	1.921	1.932	1.921	1.935	1.772	2.026	1.886
395.0	145.9	242.6	332.6	392.2	409.4	412.6	395.9	388.4	377.2	376.0	377.7	378.7	376.8	364.5	337.7	321.9	320.6	311.6	302.4	287.2	273.2	257.4	227.8	222.1	207.1	208.4	193.0	133.5	100.9	77.72	66.81	68.77	132.0	315.6	751.2	 1836	232.7	11.27	1.274	0.836	0.655	0.515	0.435	0.496	0.562	0.650	0.729	1.010	1.204	1.128	1.360	1.747	1.838	1.860	1.701	1.649	1.820	1.811	1.812	1.836	1.873	1.918	1.884	1.791	1.838	1.853	1.839	1.761	1.923	1.978	1.903	1.962	1.907	1.795	1.965	1.856	2.022
400.0	143.0	248.3	339.0	384.4	413.4	415.9	403.4	396.6	385.9	382.7	382.0	379.1	379.6	365.5	333.5	318.6	317.5	310.1	301.7	290.6	275.0	265.9	236.2	228.6	209.5	198.3	210.9	170.3	118.8	87.33	76.35	65.47	60.13	88.82	198.6	 1126	 1679	197.9	4.011	1.077	0.741	0.629	0.506	0.522	0.549	0.624	0.775	0.924	1.213	1.147	1.294	1.621	1.681	1.906	1.866	1.718	1.922	1.892	1.774	1.899	1.919	1.820	1.937	1.794	1.840	1.799	1.874	1.714	1.909	1.957	1.975	1.828	1.898	1.897	1.864	1.894	1.991
405.0	142.2	247.1	331.1	379.7	407.0	412.4	406.8	407.8	388.5	384.5	385.8	380.4	376.3	364.0	330.2	314.7	317.0	307.7	302.0	291.5	275.9	264.9	246.9	236.2	213.0	198.8	199.9	201.6	143.5	96.02	86.32	73.44	48.99	41.99	57.76	317.8	 1351	 1387	29.91	1.662	0.968	0.672	0.542	0.555	0.552	0.685	0.743	0.892	1.147	1.215	1.323	1.646	1.701	1.834	1.767	1.761	1.939	1.931	1.919	1.919	1.937	1.858	1.763	1.814	1.865	1.780	1.751	1.797	1.847	1.933	1.858	1.946	2.021	1.764	1.874	1.926	2.013
410.0	135.4	238.4	320.5	376.3	404.4	407.7	411.4	408.1	396.5	387.9	384.8	374.6	367.0	354.0	324.6	307.1	305.8	302.5	296.4	287.9	274.1	262.6	249.8	238.2	217.9	203.8	186.9	192.2	179.9	116.3	95.75	80.09	53.26	37.68	30.71	84.07	376.3	 1020	 1190	323.6	7.991	1.029	0.740	0.602	0.673	0.694	0.736	0.902	1.157	1.193	1.346	1.598	1.736	1.803	1.802	1.846	1.969	1.880	1.815	2.007	1.935	1.938	1.836	1.913	1.855	1.830	1.810	1.743	1.800	1.846	1.926	1.848	1.798	1.820	1.799	1.915	1.970
415.0	135.0	236.7	327.9	374.3	397.3	404.0	406.4	403.3	404.7	391.6	383.8	372.3	356.4	341.3	317.7	298.0	297.7	293.9	284.7	285.5	266.8	256.9	248.4	237.3	220.6	202.8	186.0	176.0	177.5	150.4	114.4	87.67	61.24	42.83	30.23	35.55	95.62	242.2	684.8	 1297	205.7	8.461	0.974	0.754	0.783	0.693	0.759	0.923	1.166	1.091	1.363	1.561	1.712	1.687	1.755	1.814	1.817	1.749	1.768	2.049	1.938	1.842	1.993	1.878	1.817	1.795	1.848	1.681	1.820	1.701	1.891	1.860	1.725	1.733	1.736	1.774	1.839
420.0	127.7	228.9	321.2	359.1	392.6	401.1	404.7	401.9	407.6	390.4	380.7	369.2	354.9	329.8	310.8	290.4	289.5	283.1	275.2	274.7	260.5	253.6	247.7	235.2	220.3	204.4	187.3	172.5	164.8	159.9	140.4	96.29	68.68	49.89	34.52	27.93	35.75	62.87	179.8	854.0	 1263	167.0	2.606	0.885	0.931	0.818	0.831	0.978	1.087	1.122	1.308	1.611	1.667	1.675	1.799	1.734	1.921	1.846	1.879	1.945	1.988	1.908	1.950	1.915	1.950	1.828	1.779	1.772	1.766	1.659	1.820	1.771	1.707	1.687	1.742	1.887	1.725
425.0	136.2	228.5	310.0	345.6	383.0	394.6	394.1	403.9	408.4	396.6	385.5	370.2	344.4	329.4	307.4	282.9	280.2	273.3	268.4	266.8	250.4	247.5	250.8	232.2	219.4	203.8	188.4	175.7	162.4	150.2	159.2	113.0	75.27	55.91	40.56	29.84	24.60	24.57	48.40	247.4	 1092	 1041	23.20	1.388	0.907	0.879	0.883	1.009	1.099	1.102	1.254	1.577	1.595	1.583	1.607	1.668	1.801	1.804	2.001	1.908	1.883	2.036	2.066	1.859	1.835	1.865	1.661	1.838	1.770	1.797	1.674	1.599	1.697	1.663	1.786	1.840	1.774
430.0	128.6	217.6	300.2	348.6	376.6	390.8	396.8	406.0	403.3	399.1	382.8	364.1	339.8	316.0	299.5	277.3	265.7	263.6	257.7	252.6	238.6	240.5	242.4	223.5	216.7	205.2	190.9	178.8	165.6	145.0	152.6	138.0	92.55	64.66	47.74	35.30	26.56	19.04	21.30	62.16	311.3	852.8	909.3	99.32	6.539	1.065	0.976	1.014	1.058	1.087	1.192	1.494	1.569	1.680	1.743	1.706	1.832	1.771	1.892	1.913	1.992	1.946	2.050	1.915	1.905	1.926	1.779	1.767	1.804	1.755	1.751	1.741	1.657	1.630	1.716	1.714	1.720
435.0	135.7	207.8	281.7	338.9	363.9	378.1	394.9	406.3	405.3	402.9	383.9	359.5	330.4	304.6	289.7	266.1	252.8	252.7	246.5	240.3	226.8	233.0	228.8	212.4	211.4	203.1	190.6	179.5	170.6	147.1	143.3	137.0	114.7	80.51	55.82	41.73	31.44	21.76	18.03	22.67	75.99	202.7	572.4	 1051	184.1	4.990	1.223	1.127	1.158	1.109	1.168	1.439	1.538	1.689	1.752	1.711	1.788	1.863	1.895	1.878	1.986	2.025	1.996	2.078	2.001	1.820	1.775	1.765	1.692	1.673	1.518	1.607	1.543	1.542	1.616	1.604	1.628
440.0	177.9	203.6	273.9	330.8	356.9	380.2	397.4	396.6	404.1	402.3	386.2	355.8	325.8	301.7	280.2	260.7	244.1	242.2	235.9	232.2	217.7	222.4	221.1	205.2	208.4	200.7	186.9	180.5	170.6	149.8	142.6	129.5	118.3	97.28	64.86	46.96	35.37	24.52	19.46	15.65	24.51	50.73	154.5	789.6	 1083	27.58	2.103	1.214	1.179	1.085	1.229	1.469	1.456	1.650	1.654	1.793	1.711	1.804	1.945	1.925	2.024	1.974	2.002	1.997	1.867	1.788	1.734	1.735	1.743	1.678	1.541	1.623	1.493	1.479	1.517	1.581	1.574
445.0	234.8	209.5	271.0	323.4	348.0	363.0	389.1	391.6	398.7	393.3	379.2	347.1	323.2	295.2	271.4	255.3	233.7	231.2	228.4	224.6	210.4	213.4	215.0	199.7	203.4	197.4	179.9	177.8	170.8	153.7	142.6	125.3	110.1	108.4	77.32	50.71	38.90	27.22	21.28	15.75	14.40	18.11	39.76	246.6	 1068	804.1	20.83	1.663	1.305	1.268	1.218	1.415	1.395	1.531	1.584	1.543	1.701	1.722	1.937	2.074	1.907	2.061	2.085	2.060	1.881	1.712	1.749	1.648	1.662	1.678	1.409	1.547	1.543	1.500	1.508	1.475	1.524
450.0	255.0	278.5	260.5	307.5	335.5	349.7	373.0	381.8	383.4	382.8	369.2	337.6	310.5	278.5	255.1	240.3	221.4	218.4	212.3	209.4	198.9	196.9	202.0	189.1	193.7	188.0	172.2	174.0	166.9	156.1	138.0	125.6	102.6	101.6	91.68	59.54	43.40	30.78	24.23	18.37	14.19	12.10	15.10	59.83	315.1	793.9	815.8	97.76	4.794	1.313	1.255	1.431	1.500	1.511	1.568	1.581	1.691	1.822	1.770	1.877	1.816	1.975	1.959	1.882	1.836	1.708	1.565	1.590	1.565	1.583	1.558	1.500	1.465	1.372	1.337	1.391	1.520
455.0	187.6	442.2	292.1	289.7	314.1	335.1	353.3	366.5	371.3	369.5	355.1	322.7	288.7	263.6	237.1	224.4	203.1	202.0	194.1	194.1	182.2	179.7	187.6	176.0	179.6	176.2	161.7	164.2	161.0	151.6	132.3	124.7	99.32	91.81	87.73	70.56	51.49	33.89	26.94	21.14	15.99	12.17	11.11	18.78	74.42	190.6	532.0	960.3	130.7	3.911	1.372	1.483	1.373	1.450	1.587	1.518	1.513	1.822	1.718	1.671	1.830	1.769	1.863	1.848	1.884	1.667	1.482	1.516	1.578	1.396	1.488	1.374	1.422	1.376	1.265	1.199	1.307
460.0	128.5	488.8	387.7	271.9	297.6	316.0	335.3	352.8	353.3	357.1	338.8	305.9	276.3	253.0	223.9	208.7	190.1	188.2	182.6	179.4	171.4	168.7	174.4	166.1	169.4	167.1	153.8	156.2	152.6	147.1	127.6	120.7	96.71	88.40	78.99	71.36	60.80	38.20	28.75	22.24	16.85	13.35	10.55	10.30	21.26	46.45	141.7	724.0	787.8	17.34	2.124	1.668	1.445	1.444	1.479	1.513	1.554	1.652	1.657	1.615	1.692	1.790	1.747	1.766	1.717	1.582	1.405	1.558	1.568	1.308	1.477	1.393	1.375	1.390	1.243	1.123	1.280
465.0	98.48	410.7	563.0	282.0	279.3	301.6	312.9	331.5	330.2	338.6	323.0	297.0	264.0	239.3	210.7	195.5	180.0	176.2	172.6	165.7	161.5	157.2	165.3	157.6	159.2	158.0	145.2	149.6	146.1	145.1	124.1	116.9	95.28	85.97	74.30	63.79	66.07	43.93	30.47	24.38	17.02	14.58	11.46	9.035	10.07	14.77	35.34	222.1	800.8	570.3	16.72	1.730	1.589	1.415	1.512	1.540	1.478	1.612	1.612	1.559	1.522	1.522	1.749	1.598	1.555	1.515	1.462	1.411	1.373	1.265	1.383	1.288	1.211	1.287	1.210	1.173	1.289
470.0	85.43	230.7	626.8	444.2	264.2	278.6	289.8	303.7	313.2	314.4	304.6	273.6	240.8	217.5	195.8	178.8	166.7	157.2	154.0	151.1	148.1	143.8	149.0	142.8	145.6	143.2	133.5	137.8	136.5	134.8	115.3	109.9	90.69	82.18	69.49	56.25	58.03	51.20	35.40	25.34	18.03	15.52	11.96	9.609	8.326	8.097	11.88	53.35	238.6	562.2	594.8	92.00	5.183	1.455	1.396	1.448	1.508	1.558	1.487	1.528	1.511	1.461	1.493	1.548	1.597	1.417	1.404	1.407	1.264	1.131	1.201	1.148	1.149	1.204	1.130	1.099	1.100
475.0	72.51	149.4	394.8	725.6	321.7	250.5	267.2	275.1	285.7	288.0	279.3	251.7	218.5	201.4	177.1	163.1	150.9	142.5	138.2	136.3	133.4	128.6	132.1	129.9	130.2	128.0	121.3	124.1	123.1	122.5	105.4	101.1	86.71	76.44	65.14	52.66	49.02	47.68	42.27	29.32	19.21	16.29	12.93	10.85	8.935	7.566	7.078	15.48	55.94	133.2	358.0	690.9	133.5	3.811	1.454	1.312	1.393	1.427	1.492	1.316	1.485	1.353	1.278	1.350	1.364	1.322	1.300	1.269	1.141	1.097	1.140	1.072	1.011	1.084	0.965	0.987	0.926
480.0	76.52	123.8	234.3	737.6	441.2	232.0	243.9	258.6	266.8	269.1	259.1	236.4	204.3	185.9	164.3	152.2	140.8	130.5	125.1	125.8	122.1	119.3	121.0	122.4	119.7	118.9	113.8	113.1	114.0	113.3	101.0	95.57	83.72	72.76	62.88	50.12	45.33	41.35	42.29	33.75	20.19	16.71	13.40	11.18	9.259	7.401	6.322	7.251	15.58	32.04	94.14	465.8	622.4	23.73	2.104	1.346	1.306	1.378	1.463	1.350	1.302	1.266	1.323	1.265	1.230	1.250	1.136	1.275	1.100	1.061	1.016	0.970	1.025	0.996	0.889	0.916	0.946
485.0	72.88	107.5	172.0	531.8	694.9	256.5	227.1	240.3	252.5	249.8	245.9	221.5	194.9	176.5	154.7	141.0	131.1	122.7	115.5	116.6	114.8	111.1	113.5	114.0	111.7	110.4	107.9	104.7	107.8	104.3	94.93	90.56	80.80	70.17	60.35	48.90	43.59	38.58	37.17	36.36	23.03	17.43	13.60	11.47	9.534	8.016	6.365	5.793	6.780	9.695	23.40	134.2	592.1	522.6	20.23	1.675	1.257	1.289	1.352	1.293	1.245	1.242	1.180	1.256	1.107	1.087	1.119	1.110	1.068	1.004	1.089	0.907	0.959	0.873	0.979	0.834	0.928
490.0	69.48	111.7	143.3	279.3	706.2	476.1	217.2	223.8	232.0	229.9	222.3	206.4	178.8	162.9	140.8	127.7	120.4	110.1	105.6	105.2	104.9	102.5	102.9	102.3	101.3	100.3	98.71	93.94	97.44	96.35	88.42	83.71	74.09	63.05	57.27	46.51	41.36	36.11	31.57	31.99	27.45	20.32	14.42	12.02	9.956	8.106	6.944	5.775	5.009	4.868	7.512	32.27	167.1	441.5	403.0	95.46	5.531	1.291	1.262	1.236	1.177	1.199	1.140	1.134	1.086	1.072	1.055	1.034	1.015	0.925	0.895	0.937	0.897	0.858	0.793	0.830	0.780
495.0	57.60	110.8	135.4	172.8	415.3	750.2	291.9	197.8	206.1	207.3	199.4	188.1	161.0	145.2	126.3	114.0	108.9	97.48	93.43	93.27	92.61	90.74	90.26	93.19	88.77	89.57	87.39	82.64	87.27	86.22	81.09	75.49	68.81	56.08	52.20	45.42	38.38	33.49	28.56	26.61	25.56	24.79	16.48	12.29	10.33	8.337	7.020	6.125	4.971	4.080	4.024	9.415	38.98	104.5	308.7	633.0	146.9	3.970	1.268	1.211	1.013	1.062	0.994	1.001	1.011	1.025	0.941	0.973	0.918	0.899	0.833	0.782	0.721	0.802	0.712	0.710	0.757
500.0	51.82	98.14	131.3	136.6	230.0	718.9	491.5	182.1	189.0	188.0	185.9	168.6	146.2	131.9	116.4	103.7	99.00	88.03	85.54	84.60	84.51	83.51	81.58	84.29	79.11	81.46	79.14	75.80	79.01	78.70	74.86	69.90	63.63	51.75	48.68	42.18	36.40	30.96	26.80	23.79	21.73	24.07	19.90	12.70	9.992	8.487	6.958	6.070	5.168	3.945	3.272	4.171	10.55	25.04	81.70	421.3	592.5	25.65	2.129	1.118	1.088	0.982	0.958	0.869	0.896	0.972	0.865	0.867	0.868	0.780	0.819	0.719	0.703	0.728	0.676	0.720	0.667
505.0	45.42	83.94	124.6	126.3	153.9	482.6	720.8	215.5	176.1	173.5	170.2	155.3	134.7	121.1	105.8	95.15	89.41	80.62	76.64	75.76	75.87	75.43	74.28	76.06	70.11	72.96	73.96	69.48	71.54	71.74	68.10	63.60	57.92	47.14	44.07	38.87	33.90	29.28	25.33	22.02	18.57	20.57	21.41	15.03	10.13	8.252	7.104	5.639	5.202	4.278	3.314	3.134	4.227	7.350	19.76	120.1	516.5	475.0	21.78	1.330	1.124	0.993	1.024	0.799	0.877	0.921	0.840	0.820	0.790	0.795	0.744	0.685	0.738	0.702	0.662	0.638	0.612
510.0	40.07	69.54	115.1	118.4	122.3	230.7	662.3	439.3	165.2	150.7	150.9	138.9	118.3	107.8	93.60	85.01	77.67	71.58	67.95	67.43	65.82	66.17	64.37	65.40	61.59	63.05	63.91	60.24	61.65	62.53	60.50	56.46	50.78	41.99	39.71	34.87	30.43	26.77	22.52	19.84	17.12	16.44	17.76	16.82	11.40	8.318	7.030	5.700	5.023	4.252	3.326	2.925	2.786	3.240	5.920	28.17	142.5	370.9	335.3	98.48	5.542	0.997	0.914	0.761	0.779	0.806	0.731	0.732	0.716	0.710	0.624	0.633	0.619	0.575	0.581	0.541	0.551
515.0	34.27	55.79	94.91	113.6	104.4	133.0	337.7	697.0	245.0	130.7	130.1	119.0	104.4	94.18	82.34	73.53	66.07	62.15	58.57	58.36	56.58	56.31	55.05	54.76	53.06	53.53	54.80	51.36	54.25	53.23	52.75	47.81	43.34	37.36	34.91	30.57	26.83	23.44	19.84	17.86	15.65	14.40	13.39	15.13	13.24	9.420	6.895	5.579	4.753	4.119	3.179	2.962	2.509	2.315	2.734	7.562	32.94	85.94	204.6	471.2	143.0	3.782	0.941	0.804	0.656	0.751	0.682	0.667	0.646	0.645	0.525	0.532	0.574	0.548	0.535	0.465	0.475
520.0	31.11	51.23	77.78	106.7	102.9	105.5	168.8	611.6	480.0	127.4	114.3	106.3	94.19	82.20	72.92	66.40	59.74	56.74	53.22	50.48	49.29	50.17	47.68	47.78	46.26	48.14	47.38	45.73	48.53	47.69	47.28	42.93	38.91	32.83	31.39	28.18	24.44	21.39	18.13	16.24	14.34	12.84	11.58	12.26	12.67	10.93	7.061	5.520	4.556	3.798	3.070	2.850	2.463	2.089	1.936	2.918	8.592	20.41	52.38	294.1	448.0	26.11	1.592	0.736	0.675	0.651	0.597	0.608	0.637	0.512	0.487	0.459	0.489	0.420	0.488	0.462	0.482
525.0	31.24	42.47	61.56	93.51	106.3	92.68	113.5	370.0	673.3	180.8	104.0	95.60	87.69	73.80	67.43	58.89	53.93	51.40	48.92	45.98	44.42	43.89	42.85	43.63	41.91	42.35	42.83	40.99	43.12	42.89	42.38	38.98	35.05	29.66	28.24	25.36	22.46	19.73	16.38	15.27	13.46	11.61	10.45	9.965	10.80	12.10	8.176	5.655	4.265	3.590	3.040	2.715	2.496	2.003	1.875	1.858	3.015	5.778	12.71	80.81	351.9	351.9	20.60	1.028	0.653	0.735	0.580	0.555	0.520	0.504	0.436	0.410	0.377	0.412	0.413	0.381	0.419
530.0	25.34	37.13	51.96	71.35	99.58	88.48	88.33	168.1	542.2	450.3	109.4	83.37	75.59	63.62	58.61	51.43	47.05	45.15	42.81	40.11	38.82	38.06	37.50	37.94	36.08	36.10	36.80	36.41	36.57	36.86	35.90	33.27	30.38	26.43	24.54	22.11	19.44	17.70	14.87	13.61	12.26	10.66	9.527	8.588	8.137	10.14	9.470	6.528	4.395	3.613	2.889	2.567	2.354	2.140	1.893	1.652	1.820	2.303	3.800	18.91	93.77	256.8	264.3	88.28	4.508	0.688	0.499	0.525	0.477	0.494	0.440	0.386	0.355	0.336	0.343	0.372	0.397
535.0	22.25	35.96	43.47	54.57	80.57	85.51	74.94	94.43	244.7	603.4	201.7	73.34	62.80	56.48	50.21	43.60	41.04	38.15	35.56	34.52	32.61	32.68	32.57	32.40	30.47	31.17	31.61	31.54	30.17	31.52	30.35	27.92	26.38	22.80	21.26	19.34	17.00	15.16	12.83	11.71	10.74	9.358	8.447	7.423	6.697	7.379	8.593	8.024	5.070	3.598	2.738	2.328	2.084	1.874	1.966	1.604	1.445	1.441	1.734	5.067	21.63	59.16	143.3	339.6	121.2	3.119	0.528	0.515	0.397	0.411	0.341	0.391	0.417	0.337	0.313	0.356	0.360
540.0	21.92	29.88	42.15	50.16	62.66	87.90	66.60	70.64	113.6	466.7	471.0	78.86	57.13	49.45	44.67	39.20	35.88	33.38	32.77	30.19	30.20	29.53	28.92	28.83	27.15	26.92	27.57	27.29	26.06	27.39	26.94	24.50	23.08	20.80	18.77	16.64	14.89	13.62	11.57	10.81	9.543	8.461	7.701	6.888	5.963	6.016	6.491	7.994	5.854	3.588	2.807	2.265	1.990	1.767	1.752	1.645	1.443	1.259	1.298	1.947	5.544	13.85	35.79	201.7	330.3	25.86	1.278	0.497	0.378	0.357	0.373	0.307	0.361	0.330	0.350	0.273	0.281
545.0	19.61	26.28	36.60	41.86	48.21	74.11	66.70	65.63	71.76	266.2	592.8	151.1	52.92	44.74	39.61	35.93	32.19	30.02	29.17	27.56	26.58	26.36	25.05	25.63	24.75	24.16	25.59	24.91	23.22	24.44	24.14	22.43	20.60	18.86	16.63	15.28	13.74	12.03	10.38	9.733	8.996	7.650	7.060	6.390	5.631	5.185	5.048	6.766	6.491	3.955	2.841	2.087	1.845	1.686	1.584	1.677	1.516	1.229	1.127	1.263	1.947	3.724	8.614	54.58	246.7	208.8	20.17	0.664	0.348	0.378	0.349	0.326	0.290	0.329	0.303	0.329	0.234
550.0	17.24	26.37	32.61	36.59	40.28	57.96	71.21	56.11	54.15	112.0	401.2	407.9	71.61	38.97	33.47	30.92	27.59	25.47	24.81	23.44	22.53	22.34	21.66	21.74	21.12	20.66	21.24	21.47	19.93	20.49	20.48	18.69	17.60	15.76	14.18	12.80	11.64	10.38	8.857	8.527	7.745	6.753	6.123	5.636	5.083	4.333	4.320	4.816	5.637	4.797	3.278	1.985	1.660	1.544	1.405	1.423	1.327	1.309	1.094	1.048	1.079	1.414	2.491	12.78	65.16	164.4	203.8	75.10	3.404	0.402	0.311	0.325	0.274	0.249	0.267	0.277	0.246
555.0	14.07	20.89	27.85	32.56	31.51	42.15	58.88	55.23	45.50	59.22	158.8	453.6	233.9	32.97	27.91	26.48	23.08	21.41	20.43	19.30	19.05	18.50	17.67	17.76	17.89	16.36	17.42	17.82	16.67	17.24	16.93	15.29	14.69	13.41	12.13	10.43	9.452	8.771	7.399	7.238	6.132	5.509	5.347	4.821	4.430	3.652	3.711	3.386	3.812	4.721	4.138	2.394	1.470	1.375	1.379	1.281	1.191	1.063	1.070	0.980	0.777	0.833	1.033	3.327	15.01	37.80	96.06	232.5	27.89	2.330	0.324	0.295	0.278	0.247	0.218	0.228	0.238
560.0	13.48	21.14	27.03	28.72	29.10	33.39	48.30	54.84	41.57	44.05	69.50	306.1	401.1	42.98	24.08	22.36	20.80	18.91	17.08	16.03	16.18	15.84	15.24	15.28	15.36	13.86	14.91	14.85	14.35	14.35	14.70	12.80	12.15	11.47	10.68	8.897	7.972	7.872	6.723	6.497	5.426	4.777	4.616	4.008	3.851	3.372	3.157	2.854	2.826	3.646	3.933	2.804	1.634	1.301	1.244	1.135	1.062	0.834	0.944	1.020	0.745	0.671	0.687	1.183	3.739	8.809	23.61	128.3	206.9	24.53	0.921	0.307	0.218	0.218	0.183	0.212	0.221
565.0	12.47	18.25	25.55	24.28	26.40	28.19	38.28	53.73	38.72	36.53	43.32	152.3	443.6	98.60	21.33	18.63	16.93	16.17	14.62	13.97	13.86	14.02	13.41	12.98	13.04	12.23	12.57	12.84	12.16	12.72	12.54	10.91	10.74	9.754	8.659	7.909	6.979	6.634	5.977	5.556	4.741	4.015	4.059	3.617	3.404	2.900	2.742	2.603	2.321	2.606	3.370	3.039	1.781	1.185	1.121	1.037	0.969	0.814	0.908	0.928	0.772	0.639	0.547	0.709	1.198	2.303	5.595	33.50	150.0	166.7	18.23	0.463	0.215	0.233	0.193	0.202	0.152
570.0	11.87	14.73	20.88	20.47	21.52	21.18	26.98	41.35	40.84	29.81	31.37	59.58	261.3	299.9	41.11	15.17	13.40	12.49	12.19	10.85	11.06	10.78	10.64	10.14	10.38	9.473	9.960	9.636	9.477	9.975	9.821	8.659	8.530	7.637	6.861	6.297	5.465	5.284	4.840	4.402	3.871	3.442	3.251	3.004	2.815	2.433	2.105	2.126	1.773	1.790	2.171	2.637	2.042	1.361	0.945	0.889	0.773	0.736	0.638	0.712	0.778	0.599	0.474	0.513	0.569	0.790	1.543	7.769	38.89	107.8	125.6	44.08	1.873	0.208	0.200	0.170	0.145
575.0	9.357	13.34	17.85	16.63	17.39	17.04	19.66	27.14	38.65	27.99	23.98	30.09	91.69	300.8	177.4	12.59	10.10	9.311	8.932	8.272	8.534	8.154	8.215	7.930	8.079	7.102	7.489	7.259	7.536	7.495	7.481	6.506	6.548	5.721	5.316	4.871	4.067	4.000	3.506	3.427	2.982	2.774	2.666	2.350	2.280	1.922	1.621	1.510	1.427	1.346	1.364	1.720	1.840	1.745	0.993	0.698	0.693	0.611	0.555	0.516	0.565	0.546	0.464	0.417	0.369	0.440	0.568	2.019	8.889	24.63	56.52	130.3	25.97	1.281	0.160	0.188	0.137
580.0	8.580	14.78	15.42	14.28	14.20	15.69	16.08	19.14	33.80	31.42	21.03	21.42	34.44	186.0	294.4	29.67	8.614	8.418	7.290	7.097	7.051	7.001	6.641	6.451	6.380	5.795	5.981	5.842	6.145	5.921	6.166	5.576	5.164	4.859	4.361	3.911	3.314	3.264	3.034	2.739	2.470	2.324	2.165	1.927	1.901	1.617	1.411	1.352	1.246	1.059	1.108	1.154	1.459	1.675	1.203	0.710	0.610	0.518	0.419	0.443	0.472	0.490	0.461	0.374	0.271	0.346	0.343	0.660	2.178	5.685	13.88	71.06	110.7	19.99	0.384	0.149	0.087
585.0	9.351	13.10	12.88	12.38	11.63	12.36	14.11	14.95	24.79	34.35	19.50	17.67	19.75	86.56	301.9	84.74	7.738	6.923	6.536	5.804	5.845	5.665	5.235	5.315	5.359	5.062	5.200	5.006	5.126	4.870	4.996	4.455	4.175	3.959	3.520	3.377	2.942	2.816	2.454	2.334	2.089	1.826	1.764	1.568	1.750	1.318	1.205	1.142	1.040	0.939	0.887	0.863	1.052	1.378	1.284	0.821	0.618	0.406	0.414	0.403	0.424	0.350	0.408	0.387	0.263	0.287	0.289	0.325	0.671	1.439	3.270	18.74	80.41	86.96	11.80	0.210	0.131
590.0	6.534	10.72	10.96	10.46	9.918	10.61	11.91	12.34	17.65	30.42	23.79	16.11	15.05	30.09	164.6	230.0	32.80	5.810	5.229	4.838	4.703	4.600	4.052	4.433	4.348	4.100	3.988	3.940	3.878	3.898	3.717	3.657	3.277	3.152	2.752	2.659	2.258	2.227	2.071	1.876	1.748	1.397	1.449	1.351	1.264	1.125	0.933	0.911	0.806	0.767	0.683	0.707	0.681	0.912	1.085	0.925	0.630	0.406	0.368	0.298	0.344	0.302	0.344	0.326	0.301	0.228	0.228	0.228	0.289	0.481	0.878	4.353	20.94	56.08	66.82	16.04	1.018
595.0	8.797	7.985	9.852	8.255	9.986	9.513	10.61	11.41	13.51	21.59	27.60	16.31	12.66	15.04	51.33	202.8	159.1	6.041	4.291	3.762	3.800	3.344	3.285	3.405	3.197	3.267	3.086	3.133	3.216	2.991	3.110	2.682	2.701	2.490	2.102	2.128	1.740	1.717	1.543	1.450	1.350	1.127	1.107	1.083	0.935	0.874	0.729	0.714	0.723	0.628	0.547	0.539	0.492	0.557	0.651	0.876	0.754	0.495	0.341	0.310	0.278	0.258	0.274	0.269	0.332	0.218	0.227	0.184	0.197	0.240	0.328	1.077	4.804	12.84	30.75	67.26	21.78
600.0	6.928	7.564	9.453	7.632	8.183	8.026	10.83	9.917	12.47	17.28	28.35	19.73	13.35	12.14	18.12	115.9	245.9	22.38	3.578	3.193	3.209	2.871	2.870	2.877	2.928	2.687	2.505	2.546	2.753	2.539	2.811	2.386	2.127	1.918	1.821	1.609	1.527	1.520	1.317	1.240	1.096	1.026	0.857	0.930	0.862	0.743	0.614	0.644	0.571	0.526	0.511	0.465	0.408	0.412	0.496	0.707	0.886	0.574	0.311	0.253	0.236	0.234	0.233	0.215	0.286	0.311	0.229	0.221	0.201	0.185	0.233	0.325	1.200	2.980	7.571	37.85	62.41
605.0	7.290	24.21	9.245	8.634	8.249	9.192	9.807	10.65	12.21	15.50	26.14	25.19	14.31	12.23	10.86	49.79	224.5	70.72	3.359	2.661	2.823	2.644	2.185	2.490	2.346	2.284	2.314	2.300	2.171	2.298	2.091	2.043	1.820	1.789	1.472	1.375	1.362	1.383	1.083	1.037	0.947	0.899	0.753	0.813	0.753	0.610	0.528	0.561	0.503	0.492	0.450	0.437	0.341	0.357	0.376	0.497	0.770	0.632	0.303	0.252	0.222	0.200	0.217	0.201	0.232	0.258	0.267	0.242	0.155	0.162	0.155	0.221	0.374	0.774	1.813	10.07	45.00
610.0	6.404	11.32	9.462	7.894	7.498	8.580	8.823	10.71	12.29	15.48	21.72	28.09	18.00	12.92	10.12	17.73	107.8	194.2	27.57	2.462	2.246	2.156	1.929	2.056	1.805	1.930	1.898	1.808	1.753	1.713	1.831	1.503	1.466	1.502	1.188	1.123	1.078	1.003	0.884	0.812	0.772	0.739	0.685	0.618	0.577	0.553	0.479	0.431	0.450	0.368	0.375	0.361	0.298	0.354	0.262	0.322	0.559	0.568	0.390	0.275	0.222	0.220	0.218	0.186	0.177	0.228	0.235	0.259	0.204	0.177	0.173	0.152	0.188	0.301	0.514	2.331	11.92
615.0	7.770	8.110	8.557	6.848	6.376	7.212	8.842	10.05	12.01	14.36	16.87	24.03	22.98	12.71	10.10	9.744	33.14	146.8	135.1	3.104	1.961	1.750	1.582	1.642	1.430	1.552	1.565	1.333	1.404	1.350	1.276	1.115	1.188	1.026	0.952	0.913	0.918	0.683	0.785	0.696	0.588	0.615	0.487	0.490	0.502	0.554	0.397	0.333	0.359	0.275	0.287	0.248	0.249	0.272	0.204	0.203	0.274	0.357	0.462	0.388	0.187	0.211	0.191	0.170	0.221	0.188	0.184	0.169	0.233	0.204	0.176	0.156	0.156	0.177	0.207	0.625	2.717
620.0	5.121	6.237	6.745	7.188	6.517	7.428	7.780	9.444	11.13	14.48	15.19	19.87	25.02	13.38	9.579	7.043	12.31	74.01	200.1	21.81	1.722	1.562	1.249	1.327	1.276	1.304	1.208	1.230	1.188	1.066	1.110	1.076	1.033	0.863	0.748	0.702	0.698	0.542	0.610	0.573	0.482	0.447	0.436	0.389	0.479	0.432	0.357	0.289	0.324	0.280	0.251	0.215	0.222	0.207	0.193	0.209	0.194	0.268	0.432	0.405	0.272	0.192	0.187	0.160	0.173	0.158	0.144	0.193	0.202	0.225	0.158	0.138	0.132	0.168	0.182	0.234	0.673
625.0	6.384	6.168	5.922	6.514	6.761	7.341	8.383	9.004	11.03	12.58	13.49	17.24	24.60	15.31	9.645	6.938	6.938	29.11	170.6	62.53	1.510	1.219	1.122	1.220	1.066	1.101	0.961	0.973	0.970	0.890	0.885	1.035	0.900	0.852	0.624	0.650	0.560	0.576	0.514	0.408	0.438	0.374	0.356	0.311	0.357	0.384	0.406	0.300	0.264	0.246	0.223	0.175	0.178	0.186	0.184	0.195	0.171	0.158	0.328	0.399	0.323	0.190	0.229	0.155	0.155	0.151	0.146	0.195	0.167	0.237	0.189	0.148	0.126	0.141	0.126	0.109	0.243
630.0	5.776	7.319	7.420	6.383	5.581	7.505	7.849	8.756	10.76	11.97	13.40	14.66	20.14	19.74	10.54	7.131	6.114	10.34	73.84	159.1	21.85	1.023	0.999	0.951	0.846	1.026	0.778	0.803	0.862	0.730	0.810	0.788	0.683	0.605	0.512	0.557	0.476	0.454	0.430	0.383	0.354	0.332	0.294	0.270	0.301	0.306	0.263	0.230	0.219	0.236	0.208	0.179	0.168	0.159	0.162	0.180	0.147	0.134	0.215	0.288	0.274	0.243	0.191	0.157	0.150	0.134	0.150	0.174	0.160	0.179	0.203	0.166	0.136	0.119	0.109	0.107	0.128
635.0	5.201	6.118	7.167	6.540	6.120	6.053	7.642	8.387	9.378	11.28	13.06	13.68	16.49	19.66	13.71	7.369	5.754	5.567	20.54	107.1	104.6	1.811	0.875	0.844	0.770	0.767	0.716	0.687	0.736	0.651	0.682	0.566	0.530	0.495	0.447	0.453	0.432	0.344	0.367	0.277	0.238	0.271	0.225	0.236	0.209	0.218	0.221	0.210	0.197	0.197	0.187	0.156	0.135	0.148	0.149	0.171	0.145	0.127	0.129	0.183	0.231	0.255	0.160	0.169	0.124	0.180	0.158	0.168	0.111	0.137	0.172	0.186	0.164	0.099	0.086	0.082	0.071
640.0	5.946	6.887	8.257	6.344	5.738	5.712	6.628	8.338	9.813	12.39	12.31	12.79	14.47	17.12	15.49	7.514	5.667	4.595	6.433	47.89	147.9	18.16	0.832	0.754	0.629	0.680	0.642	0.525	0.587	0.524	0.481	0.556	0.450	0.500	0.426	0.457	0.393	0.301	0.357	0.250	0.276	0.269	0.233	0.233	0.197	0.188	0.216	0.237	0.172	0.186	0.139	0.146	0.130	0.192	0.144	0.129	0.112	0.142	0.132	0.157	0.184	0.231	0.217	0.126	0.120	0.169	0.148	0.142	0.166	0.127	0.109	0.189	0.176	0.109	0.097	0.071	0.083
645.0	6.090	7.276	7.511	5.868	5.629	5.723	6.482	8.012	9.333	11.64	11.98	12.46	13.68	15.10	17.01	8.129	5.747	4.550	3.234	16.37	122.0	54.00	0.974	0.661	0.479	0.605	0.500	0.604	0.513	0.493	0.471	0.489	0.457	0.384	0.353	0.336	0.305	0.251	0.324	0.223	0.216	0.213	0.210	0.212	0.178	0.193	0.190	0.213	0.153	0.152	0.128	0.146	0.142	0.165	0.148	0.107	0.108	0.133	0.116	0.117	0.146	0.176	0.192	0.178	0.128	0.162	0.091	0.113	0.127	0.119	0.132	0.127	0.186	0.138	0.087	0.101	0.091
650.0	4.842	8.071	9.210	7.582	5.641	5.407	7.495	7.862	9.519	10.77	10.91	12.45	11.69	12.72	15.49	10.28	5.759	4.221	2.529	5.370	64.77	130.6	5.822	0.520	0.561	0.489	0.454	0.502	0.436	0.409	0.462	0.466	0.343	0.423	0.369	0.323	0.268	0.231	0.211	0.204	0.171	0.178	0.172	0.195	0.166	0.165	0.154	0.150	0.161	0.127	0.117	0.146	0.107	0.119	0.134	0.105	0.098	0.104	0.093	0.101	0.118	0.144	0.151	0.154	0.121	0.153	0.078	0.110	0.151	0.115	0.118	0.128	0.137	0.148	0.126	0.116	0.075
