Sample:	'1
File name:	Default_20211223_113730.FD3
Run date:	'11:31:09, 12/23/2021
Operator:	user
Comment:	'

Instrument
Model:	F-2700 FL Spectrophotometer
Serial number:	2190-003
ROM Version:	4J14000 07

Instrument parameters
Measurement type:	3-D scan
Data mode:	Fluorescence
EX  Start WL:	220.0 nm
EX  End WL:	600.0 nm
EX Sampling interval:	5.0 nm
EM  Start WL:	230.0 nm
EM  End WL:	650.0 nm
EM Sampling interval:	5.0 nm
Scan speed:	12000 nm/min
EX Slit:	5.0 nm
EM Slit:	5.0 nm
PMT Voltage:	700 V
Response:	Auto 
Corrected spectra:	Off
Contour interval:	50.000

Peak integration
Integration method:	Rectangular
Sensitivity:	1
Threshold:	1.000

Peaks
No.	ApexEX/EM(nm)	Height(Data)
1	225.0/335.0	*****   
2	225.0/615.0	53.71
3	230.0/330.0	*****   
4	230.0/580.0	43.93
5	230.0/610.0	51.56
6	265.0/575.0	93.56
7	275.0/340.0	 6666
8	275.0/605.0	148.8
9	280.0/620.0	151.9
10	315.0/395.0	938.3
11	320.0/400.0	945.7
12	325.0/405.0	946.7
13	460.0/340.0	47.73
14	555.0/340.0	27.40

Data points
	220.0	225.0	230.0	235.0	240.0	245.0	250.0	255.0	260.0	265.0	270.0	275.0	280.0	285.0	290.0	295.0	300.0	305.0	310.0	315.0	320.0	325.0	330.0	335.0	340.0	345.0	350.0	355.0	360.0	365.0	370.0	375.0	380.0	385.0	390.0	395.0	400.0	405.0	410.0	415.0	420.0	425.0	430.0	435.0	440.0	445.0	450.0	455.0	460.0	465.0	470.0	475.0	480.0	485.0	490.0	495.0	500.0	505.0	510.0	515.0	520.0	525.0	530.0	535.0	540.0	545.0	550.0	555.0	560.0	565.0	570.0	575.0	580.0	585.0	590.0	595.0	600.0
230.0	-22.10	125.0	 1347	 1122	86.07	-4.938	-3.029	-2.591	-2.063	-1.644	-0.385	0.514	0.587	0.631	0.075	0.301	-0.036	0.182	0.023	0.429	0.343	0.154	0.224	0.174	0.205	0.269	0.328	0.149	0.088	0.055	0.062	0.069	0.089	0.156	0.162	0.118	0.054	0.175	0.017	0.039	0.044	0.031	0.009	0.119	0.061	0.069	0.234	2.298	6.600	6.531	2.893	0.391	0.092	-0.048	-0.014	-0.035	-0.074	-0.152	-0.148	-0.143	-0.196	-0.207	-0.195	-0.278	-0.271	-0.260	-0.311	-0.287	-0.354	-0.373	-0.357	-0.345	-0.364	-0.390	-0.370	-0.428	-0.432
235.0	-13.30	14.06	487.0	 1853	 1428	126.6	-1.945	-1.869	-1.797	-0.666	-0.077	0.631	0.486	0.411	0.722	0.323	0.375	0.405	0.319	0.215	0.530	0.296	0.035	0.115	0.341	0.125	0.103	0.150	0.123	-0.035	-0.043	0.022	0.014	0.070	0.148	0.050	0.106	0.075	-0.023	0.050	0.054	0.102	0.144	-0.100	0.035	0.065	0.133	0.557	1.848	4.336	9.177	10.87	4.508	0.552	-0.130	-0.176	0.132	-0.170	-0.113	-0.159	-0.163	-0.289	-0.212	-0.231	-0.285	-0.244	-0.260	-0.287	-0.238	-0.410	-0.460	-0.362	-0.403	-0.331	-0.389	-0.435	-0.447
240.0	-4.915	13.94	107.4	906.5	 2569	542.7	77.75	-0.571	0.090	0.738	-0.011	0.645	-0.161	1.329	1.210	0.614	0.466	0.425	0.318	0.195	0.385	0.254	0.135	0.123	0.445	0.263	0.196	0.177	0.156	0.104	0.023	-0.037	0.026	0.057	0.026	0.122	0.064	0.176	0.150	0.104	-0.019	0.083	0.179	-0.132	0.071	0.102	0.182	0.228	0.433	1.202	4.004	11.75	15.26	11.62	3.239	0.084	-0.026	-0.124	-0.216	-0.098	-0.192	-0.218	-0.231	-0.198	-0.207	-0.265	-0.238	-0.280	-0.313	-0.416	-0.347	-0.306	-0.512	-0.428	-0.379	-0.423	-0.368
245.0	-5.807	19.00	38.35	228.5	 1503	 3014	448.5	32.63	-0.292	1.157	1.570	1.241	1.057	1.312	1.523	0.873	0.686	0.189	0.378	0.256	0.732	0.228	0.346	0.141	0.296	0.294	0.273	0.083	0.228	0.022	0.121	0.218	0.094	0.063	0.034	0.174	0.118	-0.045	0.186	0.111	0.043	-0.002	0.023	0.075	0.143	0.144	0.287	0.101	0.176	0.373	0.924	3.418	9.480	19.39	19.11	10.27	1.618	-0.037	-0.094	-0.070	-0.186	-0.157	-0.197	-0.218	-0.202	-0.233	-0.187	-0.362	-0.307	-0.404	-0.499	-0.362	-0.430	-0.421	-0.373	-0.449	-0.381
250.0	-19.75	4.385	40.43	84.56	376.4	 1611	 3110	 1658	139.5	3.695	3.497	2.318	2.749	2.187	1.954	0.986	0.554	0.444	0.344	0.486	0.632	0.437	0.166	0.351	0.644	0.402	0.410	0.226	0.058	0.337	0.200	0.179	0.148	0.052	0.094	0.196	0.059	0.100	0.106	0.106	0.041	0.073	0.178	0.182	0.209	0.086	0.231	0.217	0.281	0.330	0.330	0.830	2.241	5.934	11.54	19.34	24.34	17.64	9.296	1.622	-0.114	-0.127	-0.200	-0.298	-0.245	-0.302	-0.269	-0.382	-0.361	-0.397	-0.340	-0.368	-0.361	-0.332	-0.401	-0.446	-0.422
255.0	-7.989	-7.897	12.05	84.04	139.0	367.7	 1182	 4715	 2521	185.5	6.915	4.358	3.886	3.406	2.583	1.419	1.024	1.066	0.593	0.523	0.421	0.285	0.371	0.497	0.390	0.561	0.480	0.293	0.106	0.341	0.217	0.263	0.187	0.196	0.072	0.121	0.100	0.281	0.218	0.070	0.125	0.206	-0.007	0.084	0.302	-0.008	0.166	0.081	0.138	0.308	0.473	0.508	0.588	1.323	2.617	4.572	9.632	24.95	47.60	27.63	13.90	1.008	-0.076	-0.263	-0.221	-0.270	-0.185	-0.264	-0.300	-0.355	-0.370	-0.515	-0.291	-0.426	-0.299	-0.505	-0.455
260.0	-18.47	-7.782	-1.536	43.28	125.6	119.7	282.4	 2146	 6593	 2167	123.0	7.570	5.115	3.922	3.190	1.847	1.274	1.580	1.267	0.622	0.773	0.321	0.551	0.246	0.325	0.520	0.463	0.469	0.275	0.521	0.295	0.279	0.213	0.095	0.212	0.264	0.129	0.147	0.168	0.033	0.091	0.248	0.078	0.128	0.182	0.046	0.108	0.135	0.081	0.264	0.186	0.516	0.508	0.555	0.564	1.012	2.156	6.841	22.44	46.14	65.38	24.99	8.409	0.130	-0.234	-0.291	-0.154	-0.335	-0.309	-0.202	-0.437	-0.397	-0.375	-0.467	-0.412	-0.480	-0.469
265.0	-15.31	-7.025	-1.542	13.50	84.59	129.4	84.37	533.0	 3494	 8647	 1761	59.52	8.654	5.404	3.756	2.682	1.920	1.683	1.051	0.761	0.901	0.859	0.374	0.514	0.391	0.764	0.557	0.536	0.312	0.800	0.171	0.241	0.315	0.152	0.257	0.206	0.333	0.156	0.137	0.039	0.113	0.207	0.118	0.228	0.093	0.107	0.224	0.121	0.146	0.173	0.143	0.227	0.391	0.585	0.454	0.237	0.525	1.613	5.245	14.90	42.24	73.62	75.99	19.57	2.905	-0.108	-0.263	-0.234	-0.268	-0.234	-0.400	-0.314	-0.309	-0.286	-0.385	-0.412	-0.344
270.0	-4.871	5.724	11.06	8.142	30.96	106.9	140.6	163.1	873.0	 3994	 8695	 6151	99.84	10.98	6.689	4.744	3.091	2.115	1.531	1.123	1.183	0.940	0.681	0.961	0.686	0.818	0.775	0.476	0.372	0.618	0.426	0.368	0.244	0.235	0.279	0.303	0.239	0.107	0.133	0.123	0.119	0.104	0.220	0.271	0.232	0.226	0.151	0.212	0.194	0.195	0.166	0.045	0.141	0.368	0.618	0.704	0.600	0.527	1.189	3.385	10.00	23.04	46.30	65.93	57.84	58.47	12.26	2.585	-0.065	-0.111	-0.225	-0.252	-0.305	-0.274	-0.322	-0.340	-0.336
275.0	21.03	44.62	44.95	29.80	18.17	38.74	124.8	213.0	252.3	943.4	 2866	9999.9	 9027	117.1	11.19	7.029	5.268	3.255	2.472	1.868	1.579	1.237	0.903	1.028	1.167	0.793	0.699	0.381	0.613	0.728	0.653	0.604	0.401	0.277	0.445	0.275	0.242	0.326	0.161	0.219	0.194	0.231	0.212	0.185	0.350	0.352	0.309	0.247	0.201	0.181	0.099	0.099	0.127	0.175	0.260	0.511	0.712	1.187	0.810	0.892	2.343	5.169	10.41	15.60	24.78	72.95	119.7	31.46	17.31	1.120	-0.088	-0.221	-0.282	-0.168	-0.352	-0.307	-0.427
280.0	72.61	109.7	82.83	49.83	26.20	27.69	72.02	227.6	234.4	298.4	752.5	 4219	9999.9	 6449	75.22	10.48	6.662	4.742	3.259	2.708	2.128	1.948	1.517	1.344	1.218	1.005	0.895	0.521	0.613	0.653	0.754	0.655	0.542	0.480	0.544	0.213	0.248	0.359	0.146	0.225	0.240	0.342	0.251	0.447	0.486	0.455	0.522	0.414	0.398	0.383	0.261	0.120	0.103	0.189	0.235	0.312	0.376	0.951	1.388	1.142	0.882	1.464	2.610	3.858	6.112	19.85	55.15	102.5	134.0	28.56	10.69	0.114	-0.030	-0.093	-0.240	-0.252	-0.269
285.0	110.0	170.6	166.5	96.21	45.62	38.09	59.41	158.5	335.6	271.2	341.9	 1199	 6094	9999.9	 1032	38.64	9.613	6.511	4.396	2.762	2.233	1.956	1.723	1.607	1.183	1.239	0.898	0.830	0.837	0.837	0.827	0.612	0.598	0.519	0.513	0.345	0.280	0.441	0.299	0.225	0.275	0.226	0.432	0.602	0.600	0.552	0.637	0.641	0.638	0.426	0.364	0.323	0.153	0.205	0.327	0.375	0.313	0.573	0.889	1.302	1.494	1.195	1.192	1.505	1.866	5.112	13.69	33.45	88.65	140.0	128.0	22.47	3.978	-0.035	-0.109	-0.211	-0.124
290.0	226.2	338.8	317.1	208.9	102.7	82.31	103.7	173.2	336.3	541.8	567.6	749.2	 1910	 6269	9999.9	 3919	56.18	10.76	6.682	4.699	3.573	2.563	2.476	1.898	1.533	1.635	1.305	1.108	0.972	0.950	1.063	0.626	0.643	0.621	0.430	0.431	0.452	0.645	0.429	0.336	0.430	0.466	0.410	0.752	0.798	1.046	1.099	1.136	1.015	0.759	0.704	0.547	0.358	0.367	0.366	0.488	0.554	0.759	0.790	1.216	1.787	2.397	2.484	2.326	2.209	3.014	4.914	9.457	22.44	45.58	83.88	110.1	88.91	82.20	14.12	3.866	0.005
295.0	353.7	508.4	522.7	356.8	210.1	164.8	201.9	307.3	459.2	734.6	 1115	 1126	 1284	 1995	 3960	9999.9	 5705	69.34	11.47	7.266	5.434	3.776	3.093	2.376	2.023	1.839	1.695	1.564	1.147	1.207	1.034	0.707	0.758	0.688	0.727	0.667	0.512	0.696	0.530	0.447	0.659	0.858	0.581	1.055	1.164	1.388	1.523	1.782	1.609	1.337	1.072	0.919	0.737	0.744	0.739	0.813	1.010	1.071	1.399	1.895	2.235	2.693	3.447	4.477	4.764	4.422	4.694	5.746	8.259	12.70	20.92	27.39	42.54	116.7	173.6	126.7	21.48
300.0	459.0	665.1	693.0	485.2	305.6	247.9	329.0	433.3	684.1	972.2	 1452	 1704	 1509	 1324	 1368	 5738	9999.9	 4334	49.14	9.915	7.356	5.112	3.784	2.896	2.579	2.050	1.741	1.712	1.625	1.295	1.209	0.813	1.015	0.719	0.654	0.604	0.524	0.746	0.757	0.630	0.732	0.869	0.761	0.987	1.265	1.672	2.142	2.201	1.988	1.784	1.380	1.285	1.100	0.999	1.079	1.360	1.539	1.817	2.143	3.082	3.287	3.704	4.727	5.508	6.704	7.390	6.329	6.196	6.302	6.837	7.804	8.343	11.34	32.91	87.81	177.8	190.5
305.0	562.7	812.0	883.7	633.0	403.4	354.8	436.7	618.4	889.7	 1215	 1666	 2138	 1963	 1445	950.6	 1702	 8665	9999.9	632.2	29.46	9.952	6.856	4.841	3.492	2.770	2.426	2.023	1.728	1.815	1.445	1.293	1.086	1.180	1.199	0.721	0.822	0.743	0.771	0.823	0.956	0.601	0.711	1.029	1.264	1.533	1.912	2.367	2.646	2.376	2.012	1.739	1.460	1.427	1.236	1.398	1.725	1.979	2.388	2.913	3.709	4.424	4.664	5.918	6.717	7.497	8.507	9.016	8.533	7.277	6.603	5.720	4.811	4.739	8.805	21.30	58.76	141.3
310.0	682.5	 1045	 1163	842.8	523.1	448.6	556.6	788.1	 1117	 1517	 1994	 2425	 2524	 1950	 1143	854.2	 2332	 7750	9999.9	 5908	42.27	11.69	6.876	4.897	4.022	3.091	2.676	2.048	1.895	1.750	1.464	1.252	1.174	0.968	0.984	0.840	0.848	0.860	0.964	1.061	0.986	0.981	1.387	1.408	1.831	2.312	2.831	3.335	3.314	2.817	2.269	2.045	1.709	1.596	1.682	2.246	2.432	2.993	3.575	4.563	5.251	6.261	7.389	7.893	8.715	9.140	9.805	10.53	10.60	8.724	7.248	5.798	4.399	4.485	6.336	13.97	34.41
315.0	 1038	 1587	 1944	 1285	676.0	569.2	704.3	993.1	 1402	 1885	 2451	 2889	 2969	 2637	 1698	924.3	838.2	 1874	 4637	9999.9	 4132	55.32	12.36	7.913	5.404	3.957	3.152	2.958	2.348	2.107	1.544	1.640	1.214	1.211	1.094	1.016	0.934	0.971	1.146	1.114	1.129	1.421	1.585	1.905	2.657	3.419	4.435	5.531	5.404	4.236	3.158	2.957	2.296	2.126	2.324	2.694	2.975	3.693	4.403	5.794	6.485	8.021	8.990	9.776	10.52	11.34	11.79	11.96	12.39	11.34	10.94	8.535	6.411	5.033	3.872	4.782	8.758
320.0	 2087	 4001	 5151	 2999	 1104	811.9	991.0	 1407	 1961	 2521	 3377	 3931	 4012	 3532	 2629	 1438	752.8	708.0	 1270	 6801	9999.9	 3378	44.91	10.83	7.570	5.168	4.154	3.160	2.869	2.329	1.859	1.759	1.634	1.156	1.098	1.196	0.935	1.102	1.312	1.506	1.628	1.943	2.549	3.633	4.984	7.823	10.30	13.46	14.04	10.26	6.270	4.176	2.985	3.037	3.111	3.638	4.246	5.160	6.205	7.632	8.828	10.36	12.39	13.01	15.10	16.00	16.49	15.91	16.39	15.63	15.06	13.08	10.26	7.520	5.367	4.129	4.073
325.0	 3817	 7834	 9912	 6461	 1879	 1188	 1462	 1995	 2787	 3696	 4720	 5452	 5487	 4814	 3685	 2211	 1054	640.2	619.7	 1982	 9603	9999.9	 2567	30.70	10.81	7.235	5.070	3.725	3.350	2.876	2.300	1.982	1.838	1.413	1.289	1.057	1.166	1.439	1.431	1.889	2.314	2.927	4.065	5.771	9.256	14.05	19.88	27.19	26.88	21.98	13.30	7.590	4.577	4.224	4.324	5.147	6.184	7.555	9.131	10.84	12.76	14.52	17.29	18.89	20.18	21.90	22.16	22.36	22.39	21.28	19.94	17.15	15.46	11.78	8.371	6.137	4.966
330.0	 4479	 9360	9999.9	 8269	 2357	 1451	 1711	 2314	 3151	 4213	 5238	 6049	 6076	 5334	 4055	 2590	 1349	735.5	546.5	756.0	 2733	 8390	9999.9	 5913	172.5	11.40	7.813	5.598	4.406	3.511	2.929	2.667	2.027	1.736	1.699	1.354	1.303	1.422	1.643	1.988	2.373	3.319	4.645	6.769	10.75	16.95	23.61	32.92	36.49	29.98	16.91	9.288	5.634	5.362	5.350	6.235	7.266	8.671	10.47	12.33	14.57	16.93	19.14	21.20	22.31	24.03	24.25	24.75	24.65	23.52	21.90	19.46	16.96	13.95	10.55	7.991	5.608
335.0	 5071	9999.9	9999.9	 9497	 2798	 1743	 2019	 2630	 3437	 4547	 5592	 6426	 6449	 5675	 4342	 2715	 1571	922.5	621.8	548.6	957.8	 2133	 5245	9999.9	 3444	48.07	11.21	8.368	6.366	5.098	4.048	3.156	2.577	2.114	2.001	1.666	1.654	1.222	1.736	2.127	2.541	3.732	4.950	7.650	12.05	19.14	26.43	37.80	42.39	34.58	18.94	10.78	6.919	6.334	6.134	7.241	8.673	9.889	11.51	13.60	15.60	18.57	20.30	22.36	23.89	25.64	26.41	26.24	26.18	26.03	23.86	21.35	18.36	13.55	10.79	9.344	7.333
340.0	 5538	9999.9	9999.9	9999.9	 3204	 1990	 2261	 2871	 3679	 4755	 5840	 6666	 6654	 5862	 4472	 2819	 1604	 1073	732.1	557.4	609.0	771.0	 1364	 7569	9999.9	 3018	39.23	10.68	8.161	5.758	4.692	3.484	2.957	2.450	1.950	1.685	1.653	1.602	2.018	2.204	2.940	3.950	5.234	8.577	12.64	21.05	29.47	42.34	47.73	40.45	21.39	12.31	7.932	6.918	6.987	8.294	9.330	11.05	12.70	14.12	16.97	19.46	21.98	23.74	25.73	26.50	26.90	27.40	27.08	25.78	24.57	21.91	19.27	14.64	11.40	9.256	7.650
345.0	 5159	9999.9	9999.9	9999.9	 3120	 2067	 2256	 2799	 3493	 4441	 5404	 6145	 6127	 5408	 4172	 2654	 1497	 1041	818.1	578.6	534.3	482.6	455.2	 2039	9999.9	9999.9	 2431	29.31	10.49	7.565	5.583	3.933	3.126	2.645	2.247	2.060	1.693	2.116	2.159	2.258	2.800	3.515	5.088	7.910	11.96	19.82	27.19	38.09	43.94	37.61	20.40	12.53	8.081	7.339	7.142	8.240	9.528	10.35	12.09	13.77	15.87	18.12	20.07	22.08	23.79	24.36	24.68	25.10	24.75	23.55	22.62	20.37	18.01	13.59	11.18	8.620	7.158
350.0	 4234	 8577	9999.9	 8185	 2835	 2041	 2180	 2561	 3057	 3800	 4542	 5126	 5129	 4559	 3572	 2318	 1360	935.7	805.9	662.9	544.8	443.3	302.5	588.1	 2698	 8643	9999.9	 6058	165.9	12.29	7.645	5.585	4.167	3.077	2.732	2.132	1.818	2.118	2.075	2.266	2.634	3.184	4.434	6.723	10.18	15.94	21.88	30.46	34.74	29.85	17.10	11.22	7.410	7.158	6.810	8.100	9.043	9.540	10.91	11.94	13.56	15.49	17.30	18.41	19.24	20.42	20.94	21.10	21.07	20.09	19.33	17.51	15.39	12.19	9.561	7.689	6.261
355.0	 3590	 7327	9999.9	 7109	 2725	 2061	 2156	 2423	 2783	 3330	 3885	 4339	 4345	 3876	 3082	 2055	 1269	903.2	770.7	722.8	653.2	492.2	330.7	323.7	743.5	 2042	 5282	9999.9	 9132	46.69	12.03	8.315	5.956	4.128	3.139	2.589	2.149	2.177	2.156	2.353	2.413	3.214	3.938	5.902	8.551	13.79	18.08	25.83	29.49	25.88	15.21	10.34	7.580	7.427	6.995	8.221	8.739	8.905	10.26	10.79	11.67	13.51	15.36	15.88	16.40	16.83	17.79	17.84	18.09	17.47	16.27	14.88	13.92	10.54	8.421	7.119	6.069
360.0	 2961	 6006	 8707	 6065	 2583	 2037	 2110	 2259	 2545	 2931	 3377	 3730	 3735	 3365	 2714	 1862	 1205	893.5	771.6	714.2	724.2	581.7	394.4	315.7	350.0	581.8	 1340	 7519	9999.9	 2880	38.51	11.38	7.528	5.099	3.777	3.134	2.434	2.508	2.376	2.346	2.470	2.986	3.584	5.151	7.445	11.32	14.99	21.74	24.73	21.50	13.26	9.726	7.094	7.534	6.918	7.982	8.935	8.627	9.381	10.06	10.73	11.78	13.04	13.66	14.38	14.53	15.62	15.41	15.55	15.42	14.23	13.01	11.92	9.666	7.709	6.722	6.103
365.0	 2380	 4840	 6918	 4933	 2358	 1954	 2021	 2110	 2282	 2561	 2892	 3183	 3191	 2886	 2367	 1677	 1149	890.2	787.1	716.8	726.1	682.6	479.2	364.3	307.5	294.8	409.6	 2015	9999.9	9999.9	 2445	29.18	9.693	7.047	4.612	3.377	2.774	2.573	2.337	2.067	2.582	2.950	3.386	4.590	6.174	9.085	12.17	17.14	19.53	17.11	11.00	8.741	6.852	7.304	6.996	7.176	7.914	7.858	8.553	8.862	10.11	10.35	11.25	12.18	12.28	12.14	13.07	13.22	13.32	13.24	11.48	11.19	10.24	8.683	7.474	6.319	5.738
370.0	 1932	 3690	 5263	 3905	 2140	 1897	 1942	 1928	 2016	 2203	 2427	 2630	 2648	 2424	 2046	 1504	 1093	902.5	820.7	761.4	740.5	726.4	615.9	474.2	373.4	298.7	253.8	557.9	 2661	 9175	9999.9	 7026	156.2	11.28	7.044	4.935	3.528	3.066	2.630	2.552	2.484	2.583	3.007	3.799	5.330	7.355	9.802	13.19	15.03	13.06	9.045	7.733	6.449	6.989	6.676	7.279	7.545	7.509	7.825	8.107	8.605	9.194	9.667	9.758	10.27	10.61	10.96	10.94	11.12	11.07	10.44	9.521	8.658	7.720	6.730	5.795	5.654
375.0	 1575	 2878	 4005	 3208	 1965	 1808	 1812	 1797	 1801	 1913	 2064	 2204	 2218	 2058	 1773	 1353	 1057	922.0	860.8	817.1	794.7	756.0	712.0	628.0	480.3	367.9	280.3	286.5	703.3	 2138	 5517	9999.9	9999.9	40.14	10.71	7.000	5.152	3.963	3.087	2.956	2.633	2.572	2.975	3.543	4.557	6.111	7.666	10.62	11.41	10.24	7.714	6.951	6.456	6.462	6.301	7.181	6.951	7.264	6.473	7.310	7.414	7.897	8.333	8.229	8.882	8.931	9.332	9.058	9.677	9.170	8.949	8.091	7.936	6.790	6.051	5.494	5.510
380.0	 1291	 2318	 3232	 2648	 1813	 1709	 1733	 1670	 1646	 1725	 1833	 1942	 1960	 1823	 1592	 1258	 1037	929.0	882.8	857.5	837.1	798.5	746.1	713.6	591.7	442.3	336.5	268.6	304.2	575.3	 1377	 7917	9999.9	 2493	32.44	9.490	6.340	4.672	3.852	3.190	2.871	2.814	3.093	3.441	4.044	5.398	6.259	8.415	8.976	8.185	6.507	6.422	6.038	6.307	6.079	6.836	6.805	6.742	6.395	6.399	7.132	7.589	7.597	8.046	7.483	7.870	7.890	8.047	8.314	8.066	7.811	7.539	7.268	6.405	5.718	5.515	5.446
385.0	 1138	 1924	 2630	 2244	 1688	 1651	 1655	 1581	 1543	 1582	 1654	 1738	 1756	 1651	 1460	 1190	 1016	927.5	902.5	881.8	870.6	841.1	789.3	746.9	694.4	531.3	403.4	312.1	257.3	260.2	394.9	 2100	9999.9	9999.9	 2075	23.87	8.308	6.171	4.798	3.341	2.990	2.977	3.177	3.026	4.051	4.766	5.572	7.352	7.619	6.887	5.720	5.912	5.504	5.742	5.818	6.275	6.539	6.475	6.193	6.420	6.587	6.756	6.669	7.114	7.441	7.076	7.338	7.136	7.110	7.235	6.999	7.068	6.829	6.127	5.718	5.522	5.590
390.0	949.8	 1589	 2060	 1888	 1550	 1542	 1553	 1476	 1417	 1429	 1470	 1549	 1564	 1483	 1342	 1131	986.6	935.2	918.9	915.3	910.2	887.6	850.4	797.0	750.0	661.2	517.5	398.2	312.5	245.8	216.6	552.0	 2644	 8709	9999.9	 6198	129.6	9.993	6.630	4.659	3.677	3.118	3.079	2.991	3.475	4.267	4.834	5.897	6.132	5.852	4.980	5.687	5.359	5.514	5.633	5.952	6.154	6.119	5.823	5.843	5.712	6.176	6.029	6.094	6.217	6.309	6.224	6.363	6.711	6.457	6.569	6.424	6.303	5.834	5.428	5.600	5.698
395.0	813.2	 1240	 1675	 1605	 1423	 1451	 1476	 1379	 1306	 1306	 1333	 1395	 1404	 1360	 1240	 1070	968.2	935.1	924.3	938.3	935.4	923.8	902.6	854.4	794.9	728.4	648.5	499.2	391.2	299.3	224.5	239.7	667.3	 2009	 5393	9999.9	 8975	34.69	10.06	6.790	5.195	4.091	3.427	3.315	3.571	4.061	4.190	5.181	5.400	4.918	4.469	5.009	5.058	5.374	5.305	5.811	5.719	5.534	5.448	5.167	5.356	5.651	5.440	5.521	5.514	5.994	5.895	6.103	5.978	5.953	6.149	5.868	5.676	5.541	5.244	5.266	5.133
400.0	726.5	 1119	 1421	 1425	 1353	 1385	 1386	 1308	 1241	 1247	 1264	 1302	 1313	 1279	 1167	 1030	949.8	924.2	923.0	934.9	945.7	941.4	930.2	890.2	834.0	757.0	705.6	590.5	457.2	351.1	256.8	197.5	247.3	513.8	 1329	 7460	9999.9	 2161	28.76	8.902	6.368	4.991	3.939	3.819	3.547	3.778	4.084	4.520	4.724	4.452	4.247	4.879	4.883	5.222	4.936	5.466	5.504	5.402	5.380	5.295	5.241	5.492	5.174	5.382	5.145	5.377	5.556	5.482	5.790	5.699	5.355	5.359	5.571	5.107	4.896	5.157	5.349
405.0	671.6	 1005	 1237	 1303	 1274	 1308	 1295	 1261	 1196	 1182	 1205	 1232	 1251	 1216	 1118	990.9	924.1	902.9	908.7	924.2	943.0	946.7	943.0	912.7	865.4	783.8	724.0	660.7	531.3	400.4	301.5	217.5	178.0	197.1	353.9	 1950	 9322	9999.9	 1838	22.20	7.740	5.931	5.010	3.983	3.599	3.821	3.843	4.346	4.301	4.201	4.187	4.628	4.637	5.257	4.756	5.195	5.487	5.081	5.291	5.033	4.897	5.218	5.202	5.050	5.188	5.068	5.372	5.387	5.472	5.294	5.335	5.471	5.655	5.000	4.777	4.943	4.902
410.0	587.7	883.8	 1080	 1182	 1199	 1238	 1236	 1210	 1150	 1137	 1146	 1165	 1167	 1131	 1054	947.2	880.0	870.5	885.1	897.4	922.5	932.6	937.8	918.8	879.6	816.7	746.6	684.7	612.0	482.7	360.3	263.9	193.4	153.8	156.7	489.9	 2422	 7966	9999.9	 5397	117.8	9.066	6.144	5.038	4.288	3.927	3.631	4.014	4.007	3.758	3.932	4.709	4.399	4.831	4.564	4.948	4.833	4.980	5.119	4.993	4.822	4.820	4.762	4.896	4.830	4.708	4.958	5.173	4.758	5.238	5.037	5.031	5.009	4.861	4.636	4.880	4.988
415.0	537.9	801.4	970.5	 1055	 1127	 1149	 1176	 1153	 1103	 1089	 1106	 1119	 1102	 1061	976.9	889.0	840.8	828.2	849.0	862.1	888.7	904.9	917.3	906.5	881.4	831.4	764.1	695.7	636.9	563.5	426.5	312.5	230.7	170.2	133.6	177.7	588.9	 1824	 4869	9999.9	 7560	32.28	8.609	6.066	5.498	4.444	3.851	3.865	3.690	3.471	3.786	4.457	4.116	4.685	4.523	4.841	4.552	4.638	5.011	4.605	4.749	5.019	4.514	4.844	4.504	4.679	4.670	4.794	4.761	4.793	4.666	4.818	4.623	4.838	4.108	4.582	4.763
420.0	495.8	720.3	893.7	 1001	 1060	 1099	 1117	 1126	 1081	 1065	 1060	 1093	 1062	 1014	926.5	851.0	801.1	801.2	814.7	830.9	851.1	875.0	888.6	894.7	870.8	824.6	770.5	707.9	638.1	584.6	483.8	350.4	256.3	189.0	140.6	119.6	188.3	445.7	 1182	 6606	9999.9	 1990	26.36	8.234	6.284	5.146	4.346	3.775	3.785	3.437	3.552	4.342	4.363	4.525	4.423	4.695	4.662	4.540	4.761	4.516	4.599	4.755	4.863	4.818	4.754	4.375	4.366	4.613	4.589	4.339	4.570	4.770	4.645	4.135	4.019	4.356	4.662
425.0	445.7	669.1	795.4	938.6	 1024	 1054	 1072	 1083	 1060	 1042	 1048	 1051	 1023	965.4	883.3	813.9	763.3	764.6	773.8	792.6	820.2	844.3	864.0	869.0	858.8	815.6	766.0	712.0	642.6	584.2	513.9	391.6	281.8	211.4	155.4	117.8	107.6	145.1	297.0	 1723	 8557	9999.9	 1663	19.33	7.402	6.159	4.766	4.116	3.744	3.556	3.646	4.336	4.144	4.595	4.288	4.465	4.960	4.628	4.383	4.393	4.579	4.677	4.831	4.436	4.400	4.547	4.296	4.499	4.493	4.446	4.469	4.687	4.450	4.227	4.125	3.926	4.292
430.0	493.9	627.7	748.3	884.9	972.3	 1013	 1035	 1050	 1040	 1029	 1021	 1027	980.1	915.1	837.8	764.6	723.4	723.7	735.1	755.6	779.1	807.3	827.3	836.1	829.1	795.8	759.4	713.0	654.4	586.3	516.4	435.9	327.5	238.8	178.1	131.9	102.8	88.71	106.5	414.4	 2216	 7306	9999.9	 4856	106.8	8.606	5.981	5.054	4.397	3.679	3.607	4.369	4.078	4.440	4.146	4.445	4.556	4.639	4.708	4.569	4.429	4.478	4.636	4.283	4.240	4.342	4.347	4.392	4.010	4.179	4.022	4.231	3.935	3.872	3.634	4.100	3.840
435.0	611.3	626.4	704.8	819.9	920.0	961.6	994.5	 1013	 1015	 1010	 1012	 1000	948.7	874.1	791.1	722.4	682.6	683.9	694.4	711.0	733.9	768.3	792.0	803.1	789.2	773.0	740.7	705.0	659.8	593.7	519.1	442.0	371.3	276.9	202.0	153.9	116.0	87.55	72.03	128.0	519.9	 1664	 4974	9999.9	 7250	29.13	8.242	6.619	5.088	4.098	3.953	4.480	4.118	4.321	4.174	4.343	4.656	4.398	4.451	4.489	4.309	4.360	4.649	4.197	4.500	4.341	4.210	4.287	4.134	3.970	3.960	4.158	4.040	3.704	3.877	3.959	3.836
440.0	717.7	650.9	681.9	796.0	864.9	924.7	947.7	983.2	995.0	989.5	 1001	980.0	925.8	840.9	758.5	687.7	653.7	652.1	662.1	677.4	695.4	733.1	747.7	767.3	764.1	753.2	725.8	690.1	656.0	598.5	522.4	441.5	380.6	305.3	222.6	166.2	125.1	95.41	71.63	69.64	146.2	394.8	 1212	 7165	9999.9	 1815	21.97	7.741	6.093	4.806	4.339	4.697	4.052	4.404	4.224	4.591	4.569	4.549	4.477	4.534	4.484	4.620	4.428	4.555	4.196	4.111	4.307	4.141	3.756	3.986	3.931	3.897	3.617	3.434	3.655	3.324	3.603
445.0	679.9	812.7	631.7	767.9	835.4	908.2	929.0	954.7	973.9	966.7	966.0	957.0	893.6	805.6	719.8	655.8	625.7	614.8	626.4	648.5	661.7	693.7	713.0	728.5	733.4	723.9	696.5	674.4	643.0	588.7	521.8	438.9	370.8	319.8	244.2	177.6	136.3	103.1	76.16	60.41	65.99	114.1	292.2	 1899	 9317	9999.9	 1378	16.57	6.845	5.255	4.522	4.992	3.998	4.532	4.080	4.664	4.451	4.565	4.248	4.329	4.273	4.573	4.306	4.484	3.997	4.324	4.267	4.025	3.975	4.051	3.688	3.614	3.147	3.133	3.299	3.120	3.460
450.0	467.6	 1014	790.7	710.3	786.5	846.4	878.6	897.8	915.5	927.1	913.6	899.3	841.5	747.9	662.7	601.1	572.8	569.3	575.5	593.7	609.0	634.8	655.2	672.9	675.7	669.7	652.8	634.3	608.6	566.4	506.7	431.0	362.0	308.0	259.3	198.9	147.1	111.8	85.41	65.39	54.71	56.09	89.44	443.3	 2450	 7888	9999.9	 4189	80.69	6.778	5.467	5.557	4.442	4.593	4.092	4.406	4.272	4.190	4.344	4.289	4.350	4.298	4.159	4.051	4.001	4.128	3.925	3.681	3.568	3.740	3.554	3.485	3.103	2.873	3.014	3.170	3.270
455.0	330.2	809.4	 1187	700.8	737.4	771.6	803.7	829.9	849.2	858.3	861.2	848.9	781.9	693.6	606.8	546.8	517.9	511.6	524.6	536.3	554.3	576.7	591.2	606.6	614.4	613.2	600.8	587.3	567.0	535.7	482.7	413.6	351.0	290.3	251.4	216.1	163.4	120.1	92.74	71.97	56.40	47.08	47.51	120.2	563.1	 1798	 4902	9999.9	 5162	19.55	7.072	6.302	5.058	4.765	4.133	4.364	4.183	3.998	3.824	4.207	4.253	4.253	4.265	3.987	3.600	3.731	3.403	3.422	3.512	3.256	3.214	3.117	2.773	2.871	2.905	3.003	2.967
460.0	298.5	535.8	 1383	843.9	701.8	744.9	754.0	782.7	798.1	817.4	816.7	804.7	732.1	644.5	560.9	508.4	482.9	476.3	482.5	496.0	509.2	525.7	546.8	559.4	566.9	563.0	558.0	543.7	532.5	503.2	458.9	399.3	339.5	282.2	239.4	213.8	175.7	127.1	96.58	77.12	60.02	48.18	39.70	50.44	144.6	417.4	 1192	 6862	9999.9	 1244	16.52	7.289	5.714	5.213	4.505	4.308	4.013	4.013	3.927	4.066	4.211	3.885	4.165	3.541	3.783	3.587	3.233	3.207	3.009	3.055	2.909	2.955	2.482	2.677	2.643	2.771	2.589
465.0	249.4	381.2	 1166	 1300	663.7	685.8	713.7	741.5	770.3	774.8	766.8	750.7	684.1	597.0	523.4	469.1	445.4	441.4	445.6	456.3	472.1	483.0	504.4	513.0	521.4	518.8	517.5	502.9	499.6	474.0	436.6	379.7	326.3	273.3	231.5	201.6	179.9	135.1	101.2	80.92	63.64	50.78	41.24	37.18	53.68	111.2	282.8	 1825	 8652	 9813	 1074	13.67	6.247	5.628	4.706	4.441	4.266	3.760	3.901	3.875	3.822	3.473	3.779	3.665	3.835	3.368	3.099	2.973	2.838	2.991	2.718	2.789	2.565	2.777	2.252	2.503	2.639
470.0	236.4	318.7	683.1	 1675	979.1	608.2	647.0	668.0	697.0	701.5	700.8	685.4	620.3	536.7	471.8	423.6	400.5	391.6	394.3	400.9	416.4	430.3	443.8	455.2	460.6	459.4	457.8	450.0	447.8	428.8	396.9	352.6	305.0	257.3	218.1	186.3	164.8	141.3	110.2	84.11	66.97	54.60	44.53	37.10	36.38	44.38	79.99	422.5	 2291	 7030	 8335	 2800	16.67	6.837	5.409	4.846	4.345	3.999	3.621	3.814	3.642	3.468	3.401	3.442	3.316	3.123	3.093	2.989	2.842	2.662	2.688	2.567	2.385	2.279	2.183	2.286	2.374
475.0	219.8	296.6	433.2	 1173	 1797	624.9	578.6	594.2	627.7	631.1	624.4	620.2	560.3	482.6	421.0	374.2	353.2	348.3	347.0	352.2	365.8	376.5	389.8	396.9	406.7	407.3	403.3	397.7	394.1	387.3	357.9	322.6	282.3	238.7	205.3	174.4	150.7	131.5	116.5	91.02	69.95	56.78	47.15	39.62	34.26	30.73	36.07	108.7	522.5	 1603	 4148	 9335	 1485	21.71	6.271	5.223	4.576	4.067	3.412	3.490	3.483	3.296	3.199	3.129	2.724	2.764	2.720	2.968	2.450	2.410	2.437	2.243	2.164	1.815	2.047	1.850	1.947
480.0	189.2	281.4	363.1	689.2	 1995	986.8	533.1	547.7	579.1	580.5	583.8	563.1	520.1	449.6	383.5	345.4	324.3	318.6	320.8	318.1	332.6	342.3	355.3	364.0	371.5	369.9	369.5	366.3	362.9	357.3	334.3	301.2	266.0	230.2	195.5	168.8	144.7	124.5	113.4	96.25	73.09	58.82	49.45	40.71	34.34	29.15	26.98	40.28	129.4	368.4	 1026	 5904	 9176	 1318	15.48	6.068	5.141	4.506	3.790	3.506	3.354	3.361	3.225	3.119	2.435	2.449	2.568	2.578	2.326	2.279	2.293	1.962	1.893	1.964	1.975	1.734	1.909
485.0	168.4	251.7	332.7	451.7	 1526	 1629	516.4	522.5	535.7	550.0	556.0	533.9	483.8	418.0	356.0	320.2	303.1	294.7	296.2	295.7	308.8	316.8	324.2	335.0	339.3	343.0	340.8	338.1	335.8	330.9	313.3	284.1	252.1	219.4	189.3	163.3	140.0	119.7	108.2	98.71	78.91	61.49	51.14	42.59	37.19	30.62	26.22	25.60	42.30	93.72	239.2	 1649	 7816	 8327	196.0	10.13	5.844	4.846	3.984	3.912	3.404	3.051	3.216	2.895	2.651	2.447	2.569	2.220	2.003	2.250	1.926	1.959	1.858	1.841	1.623	1.703	1.626
490.0	151.7	226.4	305.1	365.7	774.7	 1990	 1030	484.3	491.2	505.0	504.9	492.4	444.9	377.4	329.5	294.0	272.8	266.9	265.5	265.5	276.1	282.3	289.7	299.7	303.6	306.8	306.6	308.3	307.7	300.9	286.1	263.1	233.9	205.2	178.1	153.1	133.7	115.7	101.8	93.81	84.36	67.09	54.05	45.46	38.95	33.14	27.37	23.78	24.55	33.33	63.88	378.6	 2141	 6502	 7902	882.8	16.55	5.834	4.447	3.949	3.508	3.112	3.018	2.899	2.734	2.435	2.378	2.272	2.099	1.894	1.840	1.765	1.516	1.581	1.553	1.594	1.540
495.0	128.4	204.8	268.2	326.6	445.5	 1258	 2036	542.0	446.3	455.8	460.7	442.1	395.1	343.4	300.7	260.7	242.6	236.9	233.9	238.0	240.9	247.3	255.4	262.6	267.6	270.5	269.9	271.7	272.9	267.8	257.1	238.5	211.4	186.6	163.8	144.1	126.8	109.6	96.57	84.91	79.02	72.87	58.65	47.73	40.23	34.55	29.23	24.63	21.79	20.97	25.45	94.45	485.3	 1510	 4874	 9516	 1549	19.55	5.498	4.149	3.676	3.201	2.962	2.566	2.358	2.153	2.071	1.876	1.828	1.929	1.878	1.482	1.452	1.553	1.678	1.278	1.502
500.0	106.4	174.8	243.4	291.3	344.0	646.0	 2257	993.9	405.0	423.0	422.1	404.0	359.4	312.0	274.0	236.9	221.4	214.4	209.7	212.4	215.8	223.3	228.8	237.3	241.6	243.5	242.5	248.4	248.9	244.0	236.3	217.6	194.2	175.2	154.6	135.6	120.0	104.6	92.41	81.31	73.17	71.68	61.31	49.41	41.22	35.88	30.86	25.42	22.27	18.59	17.71	31.18	116.8	345.3	 1257	 6751	 8688	 1180	12.09	4.717	3.867	3.339	3.131	2.522	2.192	2.034	1.994	1.949	1.787	1.706	1.588	1.488	1.386	1.288	1.421	1.229	1.137
505.0	108.4	155.4	215.3	270.4	303.7	392.2	 1659	 1893	396.9	388.3	376.3	367.8	333.0	286.8	245.6	218.7	198.4	196.2	193.2	192.7	194.4	203.7	208.8	214.5	214.6	219.2	219.3	222.9	225.0	223.2	215.6	198.9	180.8	163.1	144.9	127.3	114.0	100.2	88.05	77.79	69.90	66.73	62.70	52.85	41.85	35.96	30.75	25.94	22.51	18.80	16.41	17.20	35.34	85.34	289.2	 1949	 8035	 7025	201.0	6.550	4.208	3.220	3.041	2.682	2.040	2.147	1.744	1.669	1.512	1.421	1.416	1.379	1.140	0.981	1.137	1.195	0.982
510.0	87.15	129.8	178.7	247.0	265.5	289.8	720.8	 2299	 1101	342.6	335.8	323.6	296.6	250.5	216.3	193.8	173.2	169.5	167.2	168.4	170.3	175.2	179.8	183.4	187.0	188.1	188.5	192.0	196.3	196.2	188.0	175.3	160.9	145.0	129.4	115.0	102.5	91.69	80.95	71.83	64.77	58.93	57.42	54.81	45.24	36.18	30.82	26.98	22.82	19.17	16.57	14.39	16.83	27.24	72.04	442.9	 2282	 5909	 5981	873.8	13.89	3.822	3.202	2.618	2.136	2.035	1.652	1.499	1.592	1.273	1.255	1.084	1.057	0.956	0.937	0.916	0.883
515.0	68.28	120.4	139.4	213.8	242.6	243.3	357.0	 1297	 2508	451.3	299.2	287.0	255.5	219.8	189.1	165.3	152.4	142.7	142.1	145.1	146.1	148.6	155.1	156.1	159.1	160.1	161.9	165.2	169.2	169.5	162.4	153.6	141.3	127.9	114.7	102.7	92.26	81.73	74.70	66.03	59.48	53.56	51.09	50.36	47.66	38.10	31.06	26.44	23.17	19.33	16.30	14.26	13.31	14.42	23.19	105.0	513.4	 1376	 4038	 6997	 1359	15.19	3.695	2.619	2.336	2.133	1.728	1.345	1.533	1.207	1.080	1.039	0.954	0.860	0.918	0.740	0.781
520.0	60.41	102.0	126.9	167.8	224.8	216.6	251.3	562.8	 2707	 1154	269.3	258.4	225.1	203.5	172.6	146.4	137.1	133.7	126.1	129.6	129.0	130.8	135.1	138.8	141.4	142.3	143.8	148.2	150.7	149.3	146.9	139.5	126.9	114.4	103.3	94.66	85.01	75.10	69.98	61.34	55.25	50.97	46.38	45.67	46.23	40.04	31.34	25.73	22.37	18.80	16.35	14.32	12.35	11.32	11.99	29.48	120.1	312.2	 1083	 5350	 6055	227.2	8.800	3.133	2.412	1.878	1.719	1.416	1.177	1.148	1.116	1.040	0.563	0.757	0.786	0.737	0.661
525.0	42.81	84.36	120.3	148.1	204.7	208.6	210.5	298.3	 1793	 2299	280.9	230.4	207.4	182.2	154.5	133.1	119.4	119.7	113.3	114.0	115.1	119.0	122.4	124.5	126.1	127.3	128.3	131.7	133.9	133.4	133.5	123.6	114.9	104.2	94.21	85.75	77.88	70.60	64.02	57.68	52.56	48.15	44.02	41.38	41.08	40.13	32.53	26.12	21.94	18.52	15.57	13.57	12.11	10.70	9.276	12.24	32.12	74.40	247.5	 1609	 5899	 4564	183.0	4.375	2.743	2.088	1.776	1.385	1.225	0.956	0.945	0.824	0.631	0.578	0.673	0.583	0.643
530.0	30.34	70.64	107.4	124.7	165.5	188.4	178.9	207.5	682.5	 2665	 1201	206.6	182.8	160.9	136.0	117.1	103.6	101.5	97.92	97.79	99.35	101.1	105.8	106.5	108.7	109.8	111.1	112.3	115.8	117.8	114.7	108.1	99.22	90.84	83.14	75.75	69.23	63.59	57.58	51.72	46.92	43.24	40.28	37.07	35.75	35.73	32.58	25.80	21.08	17.76	15.06	13.01	11.58	10.10	8.586	8.020	11.79	20.49	59.27	364.2	 1715	 4211	 3557	804.8	11.77	2.565	1.830	1.586	1.246	1.039	0.860	0.768	0.571	0.507	0.502	0.521	0.536
535.0	25.56	58.97	82.47	111.2	129.5	166.7	172.2	168.3	279.6	 1266	 2921	248.2	160.6	136.9	116.5	101.6	89.19	85.70	83.34	83.98	83.56	85.00	89.06	89.69	91.14	92.31	94.71	95.31	97.56	98.53	97.00	92.53	85.89	79.04	71.33	65.37	60.95	55.31	50.30	44.34	42.51	38.83	36.35	33.15	31.44	29.48	29.43	26.39	20.88	16.66	14.35	12.04	10.37	9.127	8.200	7.049	6.925	8.254	16.36	84.53	384.7	988.9	 2777	 4998	 1155	12.93	2.229	1.666	1.256	0.961	0.629	0.450	0.521	0.497	0.316	0.399	0.519
540.0	27.23	46.83	69.11	98.30	115.5	140.0	163.4	144.4	178.9	468.7	 2978	 1158	144.0	123.7	102.0	87.74	80.41	76.60	72.63	74.49	74.09	74.38	77.27	77.42	80.41	80.56	81.74	82.86	84.23	86.26	86.26	81.96	75.53	70.14	64.08	58.20	53.90	50.60	44.72	41.17	38.36	35.36	32.88	30.86	28.75	25.61	26.07	26.04	21.39	16.16	13.47	11.16	9.798	8.706	7.924	6.462	5.886	5.173	6.532	21.67	88.46	223.6	751.8	 3781	 4379	220.7	5.829	1.784	1.380	1.159	0.711	0.817	0.420	0.289	0.393	0.378	0.439
545.0	15.23	46.43	62.36	84.63	98.50	114.2	148.0	132.9	146.3	214.0	 1771	 2572	160.6	107.6	90.81	78.28	71.78	68.45	66.20	65.82	65.97	65.11	68.21	69.31	68.68	70.06	70.00	73.40	74.10	76.94	75.12	72.21	66.82	62.45	56.96	51.98	48.23	45.25	41.67	37.84	35.29	32.08	30.38	28.50	26.36	23.68	22.37	22.77	20.68	16.01	12.76	10.58	9.374	8.042	7.135	6.033	5.157	4.150	4.101	7.528	22.08	52.30	171.5	 1135	 4194	 1981	31.69	3.065	1.549	0.983	0.811	0.588	0.444	0.282	0.287	0.222	0.260
550.0	9.692	40.08	55.05	71.13	82.04	90.38	116.0	125.8	117.9	139.1	591.0	 2749	990.3	92.51	77.47	65.84	59.16	56.58	56.32	54.03	54.54	54.27	54.52	57.30	57.69	58.39	58.58	60.17	62.49	63.70	62.93	59.77	56.67	52.41	47.47	43.65	40.65	38.29	35.07	31.48	30.18	27.78	25.86	24.54	23.05	20.89	18.94	18.13	17.98	15.49	12.28	9.632	8.370	7.085	6.399	5.447	4.583	3.927	3.324	3.719	6.766	13.58	40.48	256.4	 1207	 2665	 2657	701.7	10.31	1.474	0.997	0.745	0.525	0.373	0.166	0.232	0.251
555.0	14.13	39.26	50.70	54.47	62.07	69.00	80.27	115.2	102.3	108.7	208.7	 1161	 2785	147.5	62.95	53.92	48.97	46.50	45.86	44.37	43.67	43.87	43.65	45.56	45.83	47.12	47.35	47.75	48.87	51.71	50.80	47.52	44.87	42.84	38.01	36.48	33.32	30.89	29.19	26.65	24.95	23.49	21.55	20.83	19.25	17.26	16.25	14.65	14.01	13.88	11.67	9.182	7.410	6.058	5.538	4.704	3.775	3.305	3.118	2.681	3.147	4.578	10.77	58.89	270.5	624.7	 1859	 3370	249.1	10.24	1.321	0.730	0.482	0.349	0.263	0.179	0.130
560.0	7.153	23.84	43.63	49.97	52.25	58.89	66.56	102.1	95.66	93.06	116.0	378.4	 2805	883.0	54.26	46.00	42.69	38.88	36.28	36.69	36.45	37.17	37.05	37.24	37.75	38.51	38.65	39.64	41.14	43.95	42.21	39.90	37.73	34.98	32.70	30.99	28.02	26.38	24.89	22.07	21.06	20.28	18.33	17.53	16.17	15.32	13.66	12.88	11.65	11.50	10.81	8.520	6.714	5.484	4.881	3.973	3.424	3.077	2.494	2.169	2.262	2.464	3.760	14.38	61.59	141.1	492.5	 2425	 2054	210.8	3.879	0.900	0.523	0.433	0.338	0.159	0.054
565.0	7.289	23.90	45.34	41.26	45.40	47.23	60.18	79.22	94.43	80.21	88.80	148.0	 1594	 2192	68.90	38.44	35.55	32.44	31.38	30.34	30.50	31.29	30.96	32.01	31.74	32.60	32.11	33.45	35.11	36.12	35.55	33.06	32.22	29.76	28.39	25.17	24.24	22.29	20.69	19.13	17.96	17.79	16.13	15.09	14.21	13.24	11.95	11.12	9.924	9.146	9.348	8.268	6.303	4.686	4.254	3.359	3.127	2.378	2.319	2.078	1.756	1.819	2.037	4.239	14.93	32.83	111.9	711.8	 2423	 1852	31.02	1.586	0.633	0.419	0.497	0.087	0.188
570.0	7.763	26.64	35.40	35.07	34.95	36.87	46.37	59.03	86.65	83.51	77.25	94.11	499.2	 2479	587.0	34.14	27.98	26.24	25.21	24.12	24.48	24.32	24.59	24.99	25.73	25.74	25.78	26.46	28.04	28.28	28.54	26.68	26.27	23.73	21.94	20.20	19.25	17.71	16.84	15.59	14.45	13.83	12.84	12.24	11.50	10.61	9.830	8.881	7.974	7.104	6.855	6.963	5.744	4.327	3.675	3.144	2.567	1.917	1.857	1.743	1.785	1.405	1.412	1.945	4.290	8.320	25.98	160.4	695.4	 1685	 1730	472.1	9.136	0.540	0.389	0.133	-0.022
575.0	16.03	36.82	37.53	34.36	27.93	32.49	38.57	47.13	69.13	93.56	75.76	83.91	172.5	 1044	 2306	88.26	23.16	20.69	20.47	19.20	19.31	18.64	19.17	20.04	19.69	20.53	20.14	19.69	21.44	22.37	21.25	20.75	20.48	18.64	17.31	15.65	15.31	14.35	13.44	12.35	11.50	10.63	10.05	9.657	9.255	8.948	8.226	7.000	6.279	5.655	4.976	5.192	4.976	4.084	3.363	2.411	2.051	1.791	1.521	1.393	1.502	1.291	1.183	1.415	1.635	2.466	6.523	36.41	155.7	390.3	 1079	 1994	244.2	8.955	0.555	0.178	0.001
580.0	6.616	30.24	43.93	33.11	27.43	30.00	33.93	38.54	56.29	92.90	81.28	87.50	101.2	332.0	 2418	671.0	20.83	17.57	16.80	16.30	15.73	15.31	16.24	16.39	16.71	16.62	17.03	16.72	17.62	18.41	17.47	17.64	16.72	15.59	14.78	13.03	12.41	12.01	10.97	10.65	9.430	9.089	8.539	8.346	8.171	7.591	7.031	5.765	5.500	4.886	4.220	3.753	4.234	4.264	3.095	2.223	1.865	1.679	1.357	1.187	1.114	1.242	1.124	0.885	1.139	1.221	2.093	8.775	35.47	87.93	279.7	 1357	 1633	199.6	2.877	0.375	0.222
585.0	7.964	32.21	41.59	35.04	26.14	24.87	30.42	40.33	52.45	89.73	95.83	91.37	89.99	123.8	 1391	 1732	33.13	15.55	14.71	13.85	13.75	13.49	13.85	14.02	13.93	14.33	14.42	14.43	14.11	14.97	14.99	14.75	13.92	13.22	12.37	11.46	10.55	10.05	9.427	8.823	8.041	7.893	7.616	7.410	6.508	6.265	5.797	5.084	4.758	4.084	3.679	2.962	3.169	3.875	3.440	2.220	1.642	1.342	1.099	1.037	0.806	1.077	1.219	0.972	0.904	0.863	1.232	2.464	8.540	20.34	63.48	387.9	 1444	 1315	31.64	0.971	0.081
590.0	4.704	34.19	45.98	33.61	27.51	23.99	30.08	40.68	51.80	82.27	113.8	104.3	94.73	82.94	420.5	 1945	426.9	14.59	11.79	11.44	11.17	11.18	11.05	11.45	10.86	11.13	11.36	11.14	11.67	12.58	12.19	11.89	11.44	10.63	9.468	9.262	8.384	7.945	7.668	6.930	6.676	6.344	6.121	6.026	5.530	5.217	4.641	4.402	3.975	3.321	3.030	2.668	2.347	2.687	2.862	2.259	1.525	1.223	0.948	0.804	0.771	0.802	0.847	0.886	0.897	0.730	0.822	1.049	2.376	5.125	14.68	87.24	399.8	 1011	 1061	149.6	8.930
595.0	8.816	33.42	45.83	36.55	25.68	24.40	28.68	39.27	53.70	78.48	118.2	128.0	103.0	80.08	129.4	812.4	 1697	57.82	10.08	8.849	9.558	8.828	8.700	8.872	8.700	9.093	8.575	9.372	9.044	9.183	9.968	8.841	8.886	7.971	7.687	7.182	6.417	6.691	5.800	5.486	5.249	4.772	4.874	4.654	4.432	4.265	3.809	3.547	3.130	2.574	2.568	1.985	1.791	1.842	2.187	2.222	1.653	1.195	0.794	1.003	0.613	0.730	0.644	0.712	0.806	0.847	0.796	0.700	0.994	1.494	3.692	20.21	89.30	231.8	601.5	 1168	243.8
600.0	14.13	40.12	48.20	38.37	21.41	23.30	32.68	43.15	59.40	81.55	111.7	138.8	112.3	85.96	66.91	242.5	 1809	481.2	9.890	8.018	8.257	7.191	7.418	7.278	7.491	7.366	7.161	7.301	7.284	7.316	7.765	7.431	7.313	6.615	6.099	5.894	5.242	5.399	4.737	4.626	4.443	4.116	4.058	3.884	3.494	3.538	3.310	2.937	2.643	2.230	2.180	1.698	1.586	1.482	1.767	1.738	1.835	1.122	0.682	0.857	0.592	0.552	0.637	0.792	0.819	0.736	0.672	0.597	0.588	0.668	1.152	4.866	20.18	52.04	152.8	751.7	 1039
605.0	17.66	38.40	51.33	38.81	21.84	23.33	33.35	48.21	63.21	85.56	109.7	148.8	125.3	92.55	57.30	77.55	 1073	 1265	20.11	6.823	6.932	6.595	6.607	6.257	6.351	6.149	6.167	6.347	6.385	6.227	6.504	6.271	5.939	5.564	5.053	4.866	4.706	4.464	4.348	4.155	3.680	3.543	3.553	3.301	3.070	2.919	2.824	2.627	2.397	1.925	1.669	1.405	1.395	1.114	1.289	1.428	1.430	1.093	0.703	0.524	0.678	0.504	0.625	0.564	0.660	0.706	0.854	0.606	0.560	0.388	0.384	1.459	4.601	11.83	34.41	206.7	837.4
610.0	14.63	40.31	51.56	38.54	25.74	23.82	29.21	45.33	64.95	83.84	111.9	141.4	140.2	98.87	58.12	40.64	323.0	 1488	337.0	6.951	5.953	5.122	5.258	4.924	5.231	4.842	5.018	5.083	5.023	5.197	5.153	5.208	4.690	4.607	4.088	3.920	3.650	3.550	3.388	3.127	3.026	2.849	2.723	2.562	2.494	2.481	2.404	2.205	1.735	1.601	1.381	1.091	0.974	0.911	1.099	1.075	1.069	1.016	0.804	0.556	0.519	0.523	0.663	0.655	0.689	0.634	0.747	0.513	0.482	0.464	0.347	0.453	1.172	2.693	7.814	46.43	226.6
615.0	13.97	53.71	46.35	37.04	25.52	22.70	33.39	44.86	60.89	83.36	112.9	136.7	149.7	108.9	60.94	33.52	84.97	653.4	 1338	42.73	4.823	4.224	4.056	4.093	3.894	3.999	3.784	4.205	4.153	4.074	4.054	3.903	3.453	3.290	3.498	3.063	2.812	2.799	2.609	2.621	2.252	2.307	2.167	2.025	1.974	1.821	1.885	1.732	1.482	1.324	1.152	0.850	0.675	0.787	0.679	0.823	0.615	0.731	0.887	0.627	0.433	0.482	0.472	0.548	0.453	0.570	0.552	0.627	0.407	0.440	0.352	0.149	0.309	0.615	1.741	10.33	50.47
620.0	16.76	39.12	49.00	41.00	27.05	24.59	32.44	46.91	62.70	89.46	113.0	133.4	151.9	118.3	68.82	35.44	31.30	187.5	 1471	366.2	4.733	3.629	3.497	3.085	3.169	2.977	3.100	3.163	3.200	3.258	3.088	3.196	3.015	2.507	2.619	2.449	2.270	2.032	1.963	2.092	1.894	1.877	1.761	1.696	1.604	1.571	1.502	1.597	1.408	1.245	0.912	0.652	0.596	0.577	0.617	0.484	0.405	0.443	0.807	0.690	0.459	0.434	0.359	0.413	0.454	0.521	0.494	0.589	0.524	0.333	0.536	0.112	0.190	0.212	0.419	2.232	11.21
625.0	8.448	45.49	54.74	38.98	26.62	21.27	30.12	48.25	61.23	88.16	114.4	137.2	147.7	126.3	73.35	36.69	20.56	48.93	912.5	 1000	12.51	3.540	2.948	2.870	2.718	2.536	2.390	2.667	3.011	2.539	2.756	2.625	2.575	2.137	2.403	2.162	1.813	1.961	1.625	1.453	1.526	1.357	1.371	1.477	1.326	1.364	1.348	1.126	1.215	1.120	0.727	0.613	0.683	0.497	0.474	0.488	0.441	0.385	0.799	0.777	0.438	0.517	0.434	0.297	0.361	0.359	0.261	0.484	0.479	0.458	0.399	0.194	0.173	0.114	0.069	0.322	2.544
630.0	19.98	56.54	64.17	49.35	25.33	23.03	30.11	48.17	67.56	90.86	120.1	137.7	145.2	134.1	82.79	43.47	19.64	18.57	274.5	 1240	276.6	3.778	2.326	2.362	2.242	1.973	2.093	2.002	2.336	2.256	2.207	2.096	2.113	1.783	1.734	1.753	1.433	1.405	1.200	1.223	1.144	1.072	1.146	1.123	1.022	0.956	1.100	0.996	1.012	0.860	0.639	0.482	0.496	0.397	0.335	0.379	0.348	0.249	0.364	0.597	0.570	0.503	0.505	0.240	0.328	0.398	0.560	0.319	0.400	0.387	0.354	0.154	0.142	0.113	-0.034	-0.040	0.497
635.0	47.47	99.21	123.7	70.87	30.00	27.64	34.81	52.60	75.34	100.5	134.2	155.4	156.2	138.8	100.9	52.02	23.77	14.67	68.11	580.4	 1088	33.47	2.903	1.852	1.788	1.659	1.800	1.753	1.680	1.999	1.722	1.797	1.611	1.545	1.288	1.276	1.137	1.259	1.099	1.058	0.802	0.793	0.952	1.070	0.898	0.946	1.049	0.942	0.948	0.841	0.568	0.552	0.423	0.361	0.643	0.246	0.363	0.246	0.345	0.500	0.454	0.487	0.510	0.316	0.518	0.512	0.585	0.471	0.540	0.376	0.311	0.241	0.127	0.228	-0.059	-0.136	-0.069
640.0	87.30	205.7	238.9	136.1	44.05	31.20	40.19	65.11	91.17	124.0	158.1	184.2	183.7	161.9	127.0	69.62	32.91	18.52	26.14	175.6	 1239	292.8	2.834	1.999	1.700	1.685	1.326	1.241	1.528	1.374	1.477	1.530	1.158	1.167	1.152	1.089	1.067	1.053	0.808	0.989	0.769	0.779	0.593	0.672	0.894	1.226	1.018	1.023	1.093	0.976	0.565	0.426	0.431	0.274	0.329	0.319	0.265	0.235	0.324	0.497	0.531	0.609	0.625	0.519	0.436	0.572	0.499	0.399	0.492	0.412	0.328	0.326	0.288	0.212	0.047	-0.099	-0.233
645.0	130.8	301.4	417.5	244.1	63.03	42.24	51.38	80.78	112.1	153.8	186.4	219.8	219.8	193.7	154.0	91.46	41.87	23.35	19.89	50.30	795.9	800.8	8.106	2.022	1.846	1.592	1.426	1.219	1.235	1.300	1.083	1.579	0.851	1.023	1.025	0.840	0.872	0.852	0.833	0.629	0.673	0.619	0.580	0.733	0.828	1.080	1.107	1.546	1.637	1.271	0.665	0.433	0.467	0.286	0.245	0.282	0.393	0.404	0.300	0.342	0.605	0.660	0.913	0.681	0.679	0.627	0.601	0.657	0.588	0.631	0.496	0.562	0.378	0.444	0.162	-0.054	-0.102
650.0	191.7	380.7	531.5	333.3	80.84	47.43	61.72	91.89	125.9	172.3	216.1	242.1	240.0	206.6	162.9	103.8	48.66	27.35	19.47	23.32	308.3	 1152	54.29	2.276	1.538	1.438	1.509	1.026	1.242	0.998	1.011	0.946	1.155	0.927	0.806	0.817	0.951	0.656	0.657	0.540	0.538	0.563	0.687	0.642	0.755	1.119	1.274	1.757	1.969	1.648	0.857	0.536	0.439	0.252	0.254	0.216	0.267	0.391	0.458	0.335	0.510	0.714	0.794	0.659	0.990	0.823	0.619	0.683	0.616	0.570	0.527	0.465	0.531	0.213	0.093	-0.122	-0.073
