Sample:	'1
File name:	S2025070701清泉林东环路桥.FD3
Run date:	'13:40:12, 07/10/2025
Operator:	Administrator
Comment:	'

Instrument
Model:	F-2700 FL Spectrophotometer
Serial number:	23B8-004
ROM Version:	4J14000 07

Instrument parameters
Measurement type:	3-D scan
Data mode:	Fluorescence
EX  Start WL:	220.0 nm
EX  End WL:	600.0 nm
EX Sampling interval:	5.0 nm
EM  Start WL:	230.0 nm
EM  End WL:	650.0 nm
EM Sampling interval:	5.0 nm
Scan speed:	12000 nm/min
EX Slit:	5.0 nm
EM Slit:	5.0 nm
PMT Voltage:	700 V
Response:	Auto 
Corrected spectra:	Off
Contour interval:	50.000

Peak integration
Integration method:	Rectangular
Sensitivity:	1
Threshold:	1.000

Peaks
No.	ApexEX/EM(nm)	Height(Data)
1	225.0/345.0	738.6
2	225.0/595.0	50.60
3	225.0/625.0	43.97
4	230.0/500.0	386.5
5	235.0/510.0	322.1
6	240.0/265.0	380.8
7	240.0/395.0	923.1
8	240.0/525.0	262.8
9	245.0/270.0	385.1
10	245.0/535.0	217.5
11	250.0/275.0	507.6
12	250.0/550.0	171.6
13	255.0/285.0	551.2
14	255.0/560.0	149.8
15	260.0/290.0	539.2
16	260.0/575.0	120.7
17	265.0/295.0	687.1
18	265.0/585.0	109.1
19	270.0/300.0	890.2
20	270.0/600.0	89.97
21	275.0/305.0	863.9
22	275.0/610.0	72.32
23	280.0/625.0	59.15
24	285.0/320.0	713.9
25	285.0/635.0	43.55
26	290.0/325.0	634.1
27	300.0/335.0	450.8
28	305.0/345.0	439.9
29	310.0/350.0	396.2
30	315.0/355.0	404.0
31	320.0/365.0	419.9
32	325.0/370.0	404.4
33	330.0/375.0	400.0
34	335.0/380.0	393.3
35	425.0/500.0	41.65
36	440.0/520.0	25.23
37	505.0/275.0	3.252
38	510.0/280.0	3.517
39	515.0/285.0	3.956
40	525.0/290.0	3.652
41	530.0/430.0	4.120
42	540.0/295.0	4.768
43	545.0/300.0	5.314
44	550.0/305.0	5.317
45	560.0/310.0	4.240
46	570.0/315.0	4.723
47	580.0/320.0	4.443
48	585.0/325.0	4.514

Data points
	220.0	225.0	230.0	235.0	240.0	245.0	250.0	255.0	260.0	265.0	270.0	275.0	280.0	285.0	290.0	295.0	300.0	305.0	310.0	315.0	320.0	325.0	330.0	335.0	340.0	345.0	350.0	355.0	360.0	365.0	370.0	375.0	380.0	385.0	390.0	395.0	400.0	405.0	410.0	415.0	420.0	425.0	430.0	435.0	440.0	445.0	450.0	455.0	460.0	465.0	470.0	475.0	480.0	485.0	490.0	495.0	500.0	505.0	510.0	515.0	520.0	525.0	530.0	535.0	540.0	545.0	550.0	555.0	560.0	565.0	570.0	575.0	580.0	585.0	590.0	595.0	600.0
230.0	81.24	1539	3285	738.1	33.15	8.830	6.393	5.766	4.964	4.410	3.721	3.578	3.039	2.538	2.102	1.850	1.719	1.479	1.466	1.359	1.239	1.151	1.006	0.943	0.909	0.840	0.842	0.756	0.773	0.747	0.701	0.657	0.600	0.564	0.538	0.532	0.522	0.568	0.529	0.568	0.606	0.789	0.737	0.577	0.459	0.458	2.108	8.336	12.55	7.522	2.645	0.653	0.372	0.350	0.324	0.341	0.353	0.349	0.369	0.360	0.358	0.319	0.336	0.361	0.351	0.348	0.357	0.333	0.373	0.374	0.397	0.335	0.332	0.359	0.334	0.408	0.371
235.0	145.8	429.1	2236	3204	526.5	46.03	8.807	6.062	5.290	4.245	4.019	3.678	3.351	2.791	2.004	2.088	1.963	1.556	1.462	1.600	1.145	1.196	1.112	1.149	0.838	0.857	0.841	0.861	0.789	0.890	0.748	0.607	0.552	0.561	0.585	0.504	0.722	0.563	0.453	0.459	0.507	0.619	0.711	0.887	0.680	0.534	0.838	2.326	5.295	8.994	12.23	10.96	4.596	1.059	0.373	0.386	0.364	0.347	0.347	0.384	0.365	0.327	0.294	0.343	0.396	0.344	0.340	0.325	0.338	0.349	0.340	0.363	0.367	0.377	0.378	0.354	0.431
240.0	206.0	200.6	698.6	3034	3159	399.5	22.12	7.493	5.857	4.927	4.341	3.960	3.635	3.152	2.096	2.140	1.857	1.428	1.540	1.232	1.286	1.042	1.120	1.024	0.994	0.916	0.787	0.928	0.704	0.799	0.746	0.651	0.540	0.501	0.625	0.492	0.581	0.589	0.512	0.534	0.513	0.493	0.575	0.694	0.915	0.961	0.772	0.847	1.569	2.950	7.436	16.46	17.86	10.99	3.648	0.718	0.413	0.413	0.371	0.380	0.450	0.333	0.317	0.355	0.378	0.336	0.354	0.324	0.330	0.342	0.345	0.341	0.351	0.366	0.312	0.471	0.458
245.0	167.7	258.0	229.7	1095	3914	2965	286.6	11.11	6.832	5.257	5.008	4.702	3.689	3.485	2.198	2.371	2.052	1.632	1.840	1.405	1.210	1.056	1.203	1.063	0.866	0.927	0.840	0.803	0.802	0.783	0.794	0.756	0.678	0.605	0.597	0.577	0.486	0.519	0.498	0.615	0.512	0.467	0.616	0.544	0.733	0.987	1.153	0.859	0.778	0.913	2.039	6.074	14.63	22.57	19.34	9.256	2.200	0.458	0.419	0.417	0.392	0.369	0.367	0.346	0.318	0.374	0.379	0.340	0.342	0.361	0.344	0.367	0.365	0.363	0.356	0.384	0.397
250.0	72.84	197.5	263.4	328.1	1353	3561	3760	1008	48.69	7.591	6.178	4.798	4.337	3.347	2.737	2.385	2.122	1.719	1.723	1.513	1.261	1.276	1.097	1.094	0.960	0.994	0.918	0.896	0.855	0.766	0.796	0.727	0.638	0.633	0.573	0.549	0.498	0.531	0.533	0.576	0.515	0.480	0.552	0.450	0.507	0.583	0.711	1.011	1.140	0.946	0.947	1.711	3.804	8.006	13.86	20.04	23.47	17.76	9.404	2.453	0.489	0.396	0.373	0.318	0.375	0.348	0.384	0.346	0.362	0.368	0.338	0.387	0.353	0.336	0.347	0.400	0.421
255.0	46.31	75.74	213.5	333.4	376.7	967.5	3692	5775	1305	39.69	7.859	6.257	5.144	3.866	3.159	2.494	2.166	2.054	1.775	1.521	1.561	1.333	1.041	1.182	1.066	0.965	0.960	0.939	0.870	0.780	0.846	0.749	0.687	0.642	0.588	0.617	0.525	0.502	0.524	0.533	0.562	0.579	0.495	0.481	0.472	0.588	0.494	0.570	0.740	1.172	1.570	1.550	1.318	2.136	3.449	5.235	10.14	22.96	37.07	27.03	13.77	2.307	0.436	0.363	0.366	0.412	0.378	0.384	0.392	0.381	0.470	0.372	0.368	0.395	0.366	0.403	0.416
260.0	39.23	39.40	93.38	322.0	303.7	265.0	1238	5624	5835	238.0	19.68	8.112	5.813	4.653	3.601	3.018	2.422	2.103	1.777	1.681	1.857	1.417	1.213	1.216	1.092	0.985	1.017	0.881	0.965	0.930	0.833	0.806	0.784	0.635	0.618	0.678	0.512	0.509	0.552	0.477	0.512	0.563	0.494	0.553	0.468	0.518	0.452	0.503	0.484	0.608	1.070	1.954	1.625	1.338	1.196	1.565	2.695	6.667	18.39	34.61	44.38	24.94	9.679	1.202	0.432	0.422	0.434	0.400	0.388	0.371	0.392	0.335	0.387	0.426	0.395	0.371	0.459
265.0	42.71	29.63	42.03	167.6	380.8	215.2	317.5	2139	7311	5214	181.7	11.53	7.594	5.228	4.011	3.199	2.601	2.245	1.813	1.996	1.753	1.332	1.351	1.213	1.078	0.994	1.032	0.851	0.949	0.796	0.814	0.846	0.762	0.743	0.673	0.627	0.592	0.560	0.585	0.505	0.492	0.580	0.514	0.542	0.476	0.434	0.422	0.415	0.443	0.405	0.567	1.124	1.855	2.013	1.470	0.964	1.034	1.994	4.667	10.93	27.49	46.06	32.85	21.12	5.232	0.739	0.516	0.434	0.439	0.393	0.341	0.370	0.472	0.415	0.373	0.393	0.456
270.0	51.16	35.10	29.16	60.05	213.1	385.1	266.1	533.6	2527	6539	5645	736.3	36.24	7.551	5.868	3.932	3.060	2.398	2.113	2.080	1.921	1.594	1.492	1.353	1.289	1.234	1.056	0.992	1.002	0.910	0.923	0.884	0.790	0.849	0.713	0.662	0.674	0.632	0.579	0.595	0.542	0.546	0.559	0.609	0.540	0.528	0.473	0.402	0.418	0.403	0.453	0.609	0.908	1.351	2.035	2.211	1.846	1.280	1.472	2.947	6.923	14.16	22.75	38.20	37.87	38.93	14.70	4.962	0.709	0.491	0.411	0.419	0.454	0.473	0.380	0.457	0.441
275.0	78.05	55.66	37.31	36.22	71.85	217.2	507.6	313.4	615.9	1722	5944	9999.9	993.6	28.94	7.840	5.437	3.739	3.277	2.866	2.241	1.990	1.641	1.726	1.429	1.375	1.222	1.162	1.152	1.065	1.059	1.028	0.919	0.825	0.834	0.828	0.849	0.836	0.644	0.644	0.605	0.656	0.590	0.663	0.605	0.607	0.651	0.605	0.536	0.460	0.417	0.365	0.448	0.531	0.692	0.945	1.431	2.716	3.252	2.249	1.390	2.098	3.663	5.615	9.322	12.95	32.24	60.53	64.10	22.86	4.654	0.689	0.437	0.480	0.468	0.448	0.442	0.431
280.0	119.6	78.58	61.75	40.72	48.76	97.15	368.5	526.5	265.6	456.1	1861	9137	8560	141.7	14.99	7.896	4.706	4.071	3.035	2.631	2.445	1.910	1.751	1.607	1.385	1.326	1.078	1.268	1.059	0.977	0.952	1.007	0.828	0.934	0.921	0.981	1.082	0.737	0.842	0.684	0.691	0.638	0.690	0.751	0.620	0.725	0.611	0.715	0.499	0.406	0.429	0.463	0.549	0.586	0.612	0.791	1.331	2.369	3.517	2.995	1.682	1.500	1.995	2.713	3.535	8.593	22.84	52.58	72.93	32.37	16.74	1.914	0.579	0.538	0.492	0.476	0.449
285.0	171.5	127.0	91.05	56.07	52.08	63.52	173.8	551.2	328.8	214.9	520.4	3089	9999.9	6403	103.7	10.45	6.178	4.566	3.747	2.856	2.473	2.025	1.841	1.691	1.397	1.266	1.192	1.287	1.097	0.968	0.945	1.002	0.991	1.099	1.108	0.982	1.124	0.910	0.833	0.776	0.855	0.810	0.790	0.923	0.785	0.901	0.682	0.765	0.612	0.500	0.490	0.588	0.593	0.589	0.569	0.607	0.823	1.189	2.168	3.956	3.631	2.193	1.258	1.354	1.605	2.788	6.012	14.25	33.10	61.64	78.50	27.82	9.836	0.979	0.562	0.504	0.525
290.0	241.1	202.9	147.4	98.82	73.82	74.41	109.5	264.8	539.2	466.3	285.0	841.8	3255	7929	7239	421.4	22.87	6.537	4.988	3.576	2.850	2.191	2.106	1.927	1.578	1.464	1.383	1.289	1.273	1.118	1.092	0.942	1.115	1.139	1.256	1.227	1.181	1.062	0.905	0.910	0.956	0.888	0.973	0.882	0.921	1.009	0.826	0.929	0.769	0.724	0.682	0.689	0.679	0.610	0.664	0.751	0.839	0.841	1.163	1.901	2.598	3.652	3.391	2.697	1.653	1.710	2.435	4.196	8.385	16.91	32.54	46.03	60.53	51.47	18.66	8.023	1.110
295.0	312.9	272.8	215.4	143.2	101.9	109.8	112.1	164.3	297.9	687.1	609.6	410.9	890.3	2025	5964	6532	585.1	17.63	6.254	4.983	3.558	2.617	2.526	2.110	1.759	1.731	1.372	1.469	1.358	1.149	1.140	1.081	1.030	1.211	1.304	1.226	1.154	1.264	1.179	1.011	1.021	0.935	1.135	1.011	1.107	0.998	1.007	1.215	1.065	0.954	0.838	0.857	0.808	0.726	0.748	0.892	0.896	0.858	1.116	1.162	1.416	1.892	2.554	4.316	4.768	3.282	2.044	2.243	3.260	5.004	8.203	11.36	16.22	30.97	64.47	82.22	29.45
300.0	373.7	333.5	269.9	185.3	125.1	120.8	130.8	160.1	221.0	457.5	890.2	514.1	408.9	582.3	1730	7423	5607	84.33	10.66	6.084	3.984	3.421	2.571	2.352	1.636	1.745	1.649	1.503	1.387	1.181	1.195	1.116	1.013	1.388	1.547	1.398	1.280	1.162	1.228	1.171	1.048	1.070	1.195	1.092	1.154	1.198	1.167	1.310	1.227	1.064	0.908	0.933	0.915	0.741	0.891	0.902	1.044	1.032	1.126	1.198	1.259	1.459	1.758	2.586	4.124	5.314	4.131	2.498	2.221	2.383	3.053	3.600	4.558	7.975	19.83	49.44	80.92
305.0	387.6	370.2	308.4	203.6	148.8	142.4	152.1	179.7	219.0	332.5	712.5	863.9	393.6	300.4	492.8	2406	8571	4471	64.95	8.056	5.854	4.081	3.115	2.699	2.015	1.877	1.776	1.628	1.598	1.289	1.258	1.268	1.069	1.312	1.290	1.468	1.334	1.318	1.283	1.160	1.216	1.130	1.176	1.112	1.190	1.312	1.237	1.481	1.211	1.012	0.979	1.113	0.939	0.886	0.969	1.027	1.086	1.132	1.170	1.406	1.320	1.628	1.738	1.957	2.520	3.964	5.317	4.808	3.022	2.108	2.018	2.048	2.188	2.616	5.258	12.50	29.12
310.0	393.4	412.0	342.4	231.9	173.1	160.6	179.6	205.2	247.0	320.9	471.5	758.1	737.2	350.1	243.1	617.7	2627	6122	5719	299.1	17.39	5.420	3.928	3.273	2.554	2.103	1.830	1.552	1.728	1.409	1.321	1.232	1.206	1.269	1.517	1.365	1.499	1.292	1.373	1.157	1.164	1.142	1.170	1.243	1.344	1.317	1.320	1.445	1.309	1.146	0.973	1.132	1.021	0.949	1.020	0.989	1.241	1.157	1.304	1.392	1.404	1.688	1.917	1.928	2.140	2.636	3.375	4.156	4.240	4.166	3.142	2.275	1.832	1.734	2.045	3.615	7.364
315.0	421.3	443.8	385.4	245.8	186.1	178.2	196.3	232.4	271.7	338.3	412.7	516.6	692.1	670.8	267.7	235.0	646.6	1489	4569	7374	453.6	14.35	5.412	4.131	2.923	2.589	2.403	1.790	1.696	1.489	1.466	1.305	1.213	1.319	1.494	1.499	1.402	1.378	1.323	1.150	1.265	1.279	1.154	1.253	1.495	1.391	1.406	1.530	1.388	1.203	1.001	1.095	1.126	1.132	1.083	1.032	1.326	1.345	1.478	1.441	1.610	1.744	2.043	1.921	1.988	2.332	2.663	2.804	2.969	3.732	4.723	4.146	2.662	1.696	1.690	1.756	2.539
320.0	445.9	485.9	401.6	277.9	206.9	196.9	215.6	247.4	289.3	345.5	418.8	468.0	523.0	713.9	469.1	185.2	221.7	382.2	1250	6047	4207	65.39	8.891	4.911	3.572	2.855	2.440	2.123	1.874	1.582	1.457	1.356	1.337	1.357	1.321	1.393	1.183	1.413	1.295	1.145	1.179	1.289	1.212	1.141	1.468	1.511	1.559	1.611	1.519	1.195	1.241	1.257	1.161	1.133	1.252	1.218	1.279	1.495	1.581	1.478	1.695	1.694	1.878	2.022	2.194	2.289	2.473	2.483	2.642	2.854	3.553	4.167	4.443	3.166	2.022	1.497	1.528
325.0	491.6	536.6	486.0	324.5	232.4	213.0	233.3	269.7	308.9	371.0	430.7	472.9	467.1	542.2	634.1	285.0	147.5	149.4	324.6	1829	6352	3576	54.39	6.786	4.061	3.398	2.408	1.954	2.190	1.747	1.563	1.493	1.330	1.321	1.357	1.401	1.412	1.309	1.178	1.063	1.164	1.268	1.291	1.368	1.562	1.457	1.653	1.879	1.681	1.335	1.379	1.348	1.323	1.241	1.231	1.191	1.378	1.462	1.455	1.513	1.682	1.815	2.172	2.254	2.346	2.346	2.373	2.607	2.594	2.693	2.955	2.935	3.932	4.514	3.275	2.021	1.378
330.0	521.6	626.0	559.9	405.5	276.7	249.0	263.0	292.7	340.8	398.8	453.5	491.5	480.4	456.6	491.6	474.0	251.7	128.3	135.7	456.0	1903	4657	4651	1052	16.90	4.529	3.193	2.706	2.147	1.980	1.842	1.456	1.320	1.385	1.420	1.282	1.333	1.253	1.244	1.244	1.185	1.177	1.432	1.365	1.596	1.672	1.893	2.013	1.941	1.596	1.537	1.490	1.378	1.417	1.279	1.383	1.497	1.588	1.624	1.673	1.872	1.956	2.198	2.289	2.470	2.527	2.593	2.736	2.783	2.694	2.637	2.599	2.841	3.060	3.225	3.426	2.945
335.0	568.7	683.4	649.5	469.8	344.2	298.7	303.7	322.9	364.0	420.6	478.4	509.5	504.5	459.2	405.8	401.0	450.8	225.6	124.8	166.9	475.7	1128	3567	6375	405.8	16.37	4.101	3.332	2.687	1.986	1.960	1.705	1.429	1.524	1.314	1.362	1.201	1.339	1.278	1.223	1.267	1.092	1.502	1.496	1.594	1.958	1.941	2.169	2.159	1.876	1.570	1.789	1.601	1.623	1.563	1.575	1.619	1.783	1.865	1.865	2.068	1.882	2.274	2.395	2.481	2.570	2.715	2.660	2.807	2.939	2.826	2.777	2.758	2.690	2.545	2.738	3.013
340.0	581.8	716.4	682.7	533.0	400.5	349.4	346.9	352.9	392.1	449.6	495.8	527.1	519.0	478.1	404.8	349.3	426.9	385.4	169.4	124.6	169.9	302.2	975.1	4895	3534	327.1	8.591	3.987	3.101	2.503	2.098	1.915	1.567	1.523	1.406	1.320	1.334	1.363	1.401	1.271	1.353	1.167	1.566	1.620	1.723	1.948	1.981	2.435	2.234	1.943	1.900	1.936	1.780	1.707	1.784	1.650	1.891	1.864	1.820	1.943	2.080	2.074	2.362	2.432	2.569	2.653	2.871	2.718	2.505	3.172	2.997	2.910	2.816	2.662	2.539	2.444	2.598
345.0	621.3	738.6	715.6	574.2	448.5	396.0	384.0	382.3	417.6	462.6	505.7	540.6	532.4	496.1	425.8	355.1	344.3	439.9	295.1	148.0	127.1	136.4	268.5	1447	5066	3220	50.19	5.622	3.914	2.967	2.483	1.909	1.671	1.558	1.581	1.348	1.190	1.504	1.378	1.313	1.342	1.301	1.393	1.521	1.738	1.988	2.058	2.433	2.354	2.111	2.074	2.235	1.964	1.950	1.773	1.783	1.971	1.966	1.958	2.101	2.061	2.254	2.428	2.566	2.665	2.687	2.966	2.939	2.922	3.011	3.272	2.970	2.940	2.842	2.620	2.601	2.436
350.0	616.8	737.8	722.7	627.7	518.6	473.7	444.6	435.0	452.5	490.2	524.3	553.7	547.0	513.2	455.2	387.6	341.3	361.0	396.2	284.2	168.0	133.1	136.8	378.9	1493	3653	3822	1013	17.39	3.830	3.037	2.066	1.819	1.616	1.514	1.364	1.324	1.450	1.259	1.261	1.229	1.362	1.330	1.523	1.719	2.091	2.061	2.413	2.360	2.144	2.157	2.479	2.275	2.363	2.098	2.110	2.252	2.281	2.153	2.342	2.373	2.415	2.603	2.541	2.589	2.956	2.905	2.957	3.127	3.117	3.121	2.940	3.042	2.962	2.846	2.647	2.600
355.0	618.5	734.2	741.6	673.5	594.9	551.9	524.5	502.6	521.3	533.2	556.3	570.3	567.4	541.9	492.1	429.7	381.0	351.6	351.8	404.0	290.2	176.0	141.1	165.9	385.3	878.6	2551	5173	390.9	18.93	4.099	2.954	2.177	1.718	1.637	1.466	1.436	1.289	1.309	1.289	1.320	1.354	1.443	1.484	1.802	2.084	2.112	2.458	2.410	2.290	2.125	2.602	2.535	2.536	2.351	2.405	2.462	2.471	2.632	2.685	2.620	2.786	2.798	2.624	2.647	2.937	2.811	3.072	3.127	3.031	3.337	3.025	2.956	3.293	3.086	2.780	2.808
360.0	630.6	740.3	761.5	727.2	662.3	619.6	596.1	555.5	564.5	575.5	590.2	586.6	583.8	557.5	516.7	462.1	415.7	383.5	353.5	382.2	403.0	250.0	170.2	142.4	160.8	245.8	678.5	3566	4700	337.2	10.62	3.804	2.441	1.929	1.884	1.519	1.438	1.486	1.305	1.421	1.453	1.342	1.449	1.556	1.753	1.965	2.127	2.306	2.422	2.221	2.039	2.650	2.644	2.883	2.698	2.797	2.935	2.879	2.875	2.650	2.872	2.881	2.812	2.988	2.926	3.185	3.129	3.144	2.977	3.104	3.305	3.410	3.234	3.351	3.122	3.028	3.153
365.0	636.1	767.8	772.3	741.6	720.0	681.6	647.6	610.7	619.4	609.2	612.8	618.4	604.4	578.8	536.6	487.8	454.7	414.5	378.8	361.3	419.9	357.9	216.0	162.3	130.4	122.9	199.1	1002	4249	3103	50.24	5.908	3.110	2.768	1.894	1.843	1.458	1.548	1.304	1.316	1.419	1.371	1.571	1.631	1.804	1.875	2.216	2.351	2.518	2.295	2.321	2.917	2.742	3.213	2.806	2.889	3.014	2.893	3.044	3.044	3.124	3.152	3.105	3.336	3.180	3.223	3.194	3.076	3.122	3.274	3.262	3.519	3.279	3.405	3.379	3.219	3.254
370.0	681.9	781.5	806.5	795.6	765.6	743.9	718.4	676.0	660.7	660.8	651.4	645.4	625.4	599.0	567.9	522.6	489.6	457.6	421.1	388.6	386.3	404.4	337.8	216.7	158.8	123.8	114.0	272.6	1189	3093	3521	1014	16.97	3.523	2.476	2.094	1.752	1.691	1.459	1.437	1.469	1.544	1.462	1.656	1.888	1.974	2.127	2.559	2.660	2.522	2.374	3.103	3.038	3.199	3.136	3.085	3.344	3.515	3.402	3.186	3.389	3.447	3.392	3.357	3.484	3.354	3.218	3.289	3.384	3.575	3.418	3.563	3.500	3.577	3.384	3.566	3.544
375.0	681.3	779.8	858.3	830.5	803.5	790.5	772.7	730.8	718.8	693.1	683.1	675.4	649.3	621.6	580.7	550.9	521.0	492.3	461.0	433.6	395.3	381.3	400.0	329.4	207.3	152.6	119.4	129.7	311.7	739.3	2126	4591	347.0	19.55	3.679	2.530	2.086	1.858	1.597	1.531	1.558	1.408	1.547	1.781	2.042	2.173	2.269	2.588	2.718	2.628	2.690	3.128	3.175	3.132	3.345	3.219	3.705	3.492	3.574	3.478	3.598	3.721	3.641	3.569	3.612	3.613	3.314	3.449	3.404	3.676	3.583	3.898	3.541	3.607	3.407	3.489	3.712
380.0	683.9	789.3	847.9	862.4	852.2	824.2	798.0	767.5	748.6	723.5	712.2	684.4	662.6	634.7	592.0	560.4	541.5	512.6	488.6	457.1	417.5	383.7	378.3	393.3	275.3	183.2	140.5	113.0	130.4	205.8	555.0	2979	4026	297.8	10.08	3.005	2.271	2.002	1.804	1.724	1.595	1.786	1.715	1.817	2.008	2.285	2.041	2.515	2.600	2.512	2.795	3.204	3.345	3.293	3.558	3.239	3.769	3.726	3.722	3.386	3.816	3.609	3.549	3.832	3.402	3.551	3.560	3.582	3.440	3.635	3.772	3.734	3.934	3.781	3.553	3.705	3.922
385.0	698.3	819.0	880.6	856.4	869.2	850.4	817.8	791.3	769.8	737.9	727.8	698.8	671.8	643.7	606.4	575.6	551.2	532.3	503.0	476.5	441.4	401.2	372.5	383.5	351.6	228.2	164.0	126.6	104.9	98.73	160.4	816.7	3377	2616	224.9	4.928	2.725	2.267	1.974	1.771	1.595	1.665	1.923	1.881	1.931	2.162	2.279	2.595	2.624	2.623	2.764	3.278	3.426	3.482	3.416	3.628	3.897	3.961	3.639	3.609	3.852	3.801	3.728	3.951	3.787	3.592	3.731	3.756	3.432	3.553	3.586	3.498	4.043	3.801	3.764	3.655	3.959
390.0	710.3	818.2	886.1	881.6	888.8	871.4	847.2	820.0	786.0	765.7	740.0	713.0	678.7	647.7	610.7	581.8	561.8	546.1	519.2	493.5	461.9	424.3	388.4	364.4	360.7	315.0	213.9	156.8	123.5	96.03	87.51	216.6	918.8	2370	2759	827.1	14.80	3.086	2.478	1.937	1.881	1.735	1.848	1.884	1.959	2.125	2.379	2.735	2.600	2.653	2.821	3.308	3.414	3.668	3.543	3.695	3.929	3.960	4.024	3.922	3.880	3.733	3.752	3.846	3.754	3.739	3.763	3.636	3.557	3.565	3.700	3.683	4.025	3.914	3.802	3.681	3.922
395.0	721.8	864.8	898.3	890.2	923.1	899.4	866.8	835.6	801.1	782.9	756.4	726.5	687.1	650.9	614.1	584.2	563.7	547.9	531.7	507.6	479.9	445.4	402.2	369.5	342.2	341.8	296.9	199.9	151.9	116.9	89.39	96.36	237.7	562.8	1607	3484	286.4	17.27	3.165	2.258	2.046	1.943	1.805	2.053	2.112	2.284	2.174	2.843	2.554	2.769	2.844	3.392	3.457	3.389	3.692	3.712	3.912	4.100	3.981	3.901	4.140	3.886	3.713	3.889	3.903	3.392	3.706	3.654	3.556	3.763	3.696	3.802	3.926	3.790	3.676	3.909	4.199
400.0	696.7	841.0	901.5	895.7	912.4	899.7	871.0	850.8	818.7	797.8	764.4	718.9	679.0	648.0	610.2	582.4	559.8	550.9	534.6	507.2	484.8	452.1	415.5	380.2	342.5	326.0	332.3	254.2	177.5	136.0	104.4	82.28	93.89	153.5	414.5	2221	3067	257.4	9.441	2.828	2.452	2.234	1.978	1.958	2.183	2.389	2.344	2.610	2.692	2.779	2.790	3.427	3.497	3.765	3.807	3.644	4.031	4.092	3.822	3.872	4.036	3.979	3.933	3.598	3.774	3.871	3.806	3.501	3.397	3.711	3.790	3.753	3.568	3.727	3.846	3.995	4.266
405.0	725.1	860.7	895.0	890.9	914.5	902.9	876.5	857.2	833.8	793.5	765.2	720.6	679.5	642.1	605.7	572.2	555.7	546.2	524.2	509.1	482.9	456.2	422.0	391.0	351.8	321.9	320.4	302.2	213.3	156.6	117.8	86.19	70.41	67.67	116.6	607.8	2559	2219	196.6	4.599	2.660	2.285	2.009	2.084	2.223	2.475	2.353	2.560	2.732	2.860	2.873	3.403	3.387	3.702	3.674	3.722	4.001	4.125	3.923	3.940	4.012	3.882	4.053	3.927	3.817	3.964	3.874	3.564	3.637	3.572	3.797	3.739	3.612	3.706	3.887	3.780	4.133
410.0	716.8	844.6	887.5	903.8	910.2	895.5	882.6	856.4	837.0	802.3	756.8	717.9	673.0	625.8	591.4	560.1	542.9	533.1	512.6	495.0	478.4	453.8	426.8	396.7	363.0	329.8	301.6	299.8	271.6	193.1	140.0	103.3	77.55	58.53	56.49	157.1	691.7	1887	2249	701.5	13.33	2.956	2.289	2.362	2.200	2.414	2.335	2.634	2.797	2.629	2.820	3.595	3.505	3.472	3.588	3.773	4.187	4.176	4.101	4.178	4.100	3.948	4.023	3.896	3.895	3.626	3.913	3.734	3.644	3.524	3.618	3.614	3.553	3.689	3.855	3.801	3.825
415.0	699.4	819.8	869.2	882.6	882.2	887.1	867.5	856.5	828.5	794.6	748.9	706.4	659.4	612.7	576.4	542.1	524.1	509.7	499.1	484.1	465.5	443.6	419.7	394.6	367.8	335.1	302.7	278.8	277.2	249.8	168.4	120.9	91.24	65.91	51.65	61.98	172.8	443.8	1259	2703	263.0	15.92	3.000	2.590	2.295	2.468	2.412	2.557	2.542	2.583	2.768	3.391	3.434	3.712	3.685	3.590	4.034	4.171	4.068	4.112	3.953	3.905	4.098	3.785	3.732	3.695	3.572	3.614	3.615	3.359	3.284	3.664	3.421	3.694	3.660	3.880	3.575
420.0	689.7	805.5	857.6	866.1	882.3	865.0	859.5	843.8	809.4	788.1	739.5	697.9	648.1	597.3	553.4	522.1	502.8	491.2	482.5	463.4	452.9	437.1	413.7	389.2	364.8	336.8	305.2	279.3	261.5	265.7	205.2	136.9	100.9	74.00	56.73	46.26	61.09	115.3	323.4	1728	2138	228.9	7.976	3.148	2.664	2.480	2.530	2.669	2.670	2.428	2.737	3.253	3.336	3.622	3.605	3.501	3.855	4.045	3.939	3.961	3.978	3.919	3.734	3.861	3.603	3.823	3.578	3.538	3.424	3.479	3.219	3.619	3.557	3.403	3.564	3.580	3.448
425.0	691.1	772.6	822.2	836.4	858.3	842.5	831.2	817.7	804.3	765.7	735.7	680.9	629.9	586.6	537.8	502.6	484.0	473.7	464.1	451.2	432.6	423.7	405.1	384.9	361.9	334.1	308.3	279.3	254.1	250.1	233.3	160.0	110.2	82.98	63.64	46.43	39.65	44.45	86.00	471.0	1938	1951	34.87	4.474	2.894	2.748	2.705	2.741	2.846	2.553	2.671	3.340	3.305	3.556	3.513	3.634	3.706	3.843	4.032	4.131	4.004	3.986	3.929	3.917	3.656	3.802	3.514	3.523	3.414	3.316	3.369	3.417	3.401	3.334	3.390	3.221	3.434
430.0	851.0	749.5	789.8	816.0	821.6	826.0	816.8	815.8	790.5	765.7	717.5	671.1	611.8	564.0	520.0	483.9	465.0	452.4	443.0	432.9	418.3	406.5	389.4	373.8	354.5	331.6	306.3	282.8	256.4	234.2	223.3	194.9	135.1	95.22	71.83	53.40	42.03	33.87	37.08	118.4	529.3	1540	1840	568.9	12.44	3.050	2.841	2.784	2.787	2.350	2.625	3.320	3.214	3.509	3.395	3.459	3.697	3.775	3.994	3.910	3.922	4.036	4.120	3.703	3.617	3.697	3.465	3.384	3.310	3.376	3.310	2.985	3.374	3.261	3.158	3.209	3.557
435.0	1525	756.4	756.9	778.4	787.6	795.1	804.3	801.3	784.9	746.8	706.7	652.6	602.9	540.8	501.3	463.4	444.1	433.0	421.9	409.5	394.3	387.3	377.4	364.1	346.6	324.7	303.9	282.2	257.8	232.4	209.2	194.2	168.0	112.0	79.32	61.68	47.74	36.28	30.56	43.66	130.7	360.5	1073	2336	244.5	14.07	3.208	2.752	2.693	2.529	2.592	3.016	3.153	3.449	3.310	3.462	3.687	3.735	3.810	3.860	4.132	3.963	3.609	3.736	3.666	3.634	3.479	3.432	3.233	3.193	3.268	3.013	3.161	3.065	2.997	3.235	3.413
440.0	2119	898.8	755.8	749.3	780.8	779.9	790.9	789.9	769.5	739.7	694.8	646.1	588.4	526.3	483.5	447.0	428.1	417.1	405.6	391.4	380.6	373.1	366.6	348.1	336.5	317.3	295.3	276.7	256.2	233.4	207.1	185.3	176.0	133.0	88.74	69.13	52.56	40.95	32.85	29.43	44.38	92.30	279.7	1576	1959	206.0	7.226	3.404	2.683	2.466	2.605	2.963	3.149	3.201	3.238	3.230	3.413	3.687	3.723	3.609	4.075	3.770	3.698	3.812	3.491	3.349	3.431	3.134	3.069	2.994	3.120	3.117	3.132	3.279	2.947	2.938	3.298
445.0	2252	1377	720.7	735.0	751.9	751.6	771.2	767.3	745.0	724.6	683.0	629.3	569.6	509.6	460.1	427.0	409.6	395.6	385.8	374.2	363.1	355.7	349.6	335.4	327.0	306.5	289.1	272.4	253.2	229.0	204.6	178.4	164.9	149.0	104.4	74.56	58.26	45.32	36.34	28.72	26.99	33.77	73.15	440.4	1829	1740	29.36	4.439	2.996	2.539	2.629	3.039	3.130	3.095	3.100	3.123	3.317	3.694	3.912	3.746	3.868	3.655	3.662	3.509	3.259	3.352	3.208	3.230	3.088	3.233	2.871	3.235	3.147	3.052	2.942	2.977	2.979
450.0	1462	2378	915.1	688.8	701.5	712.9	719.2	732.9	714.2	691.5	653.9	597.9	537.6	486.8	431.7	398.9	379.9	366.9	357.4	346.9	340.0	332.0	324.5	318.2	304.4	291.8	275.9	260.0	244.7	225.7	201.3	173.7	150.7	140.6	122.8	87.11	64.40	50.27	39.70	32.22	26.21	23.66	29.06	108.4	505.7	1419	1623	489.7	10.38	3.129	2.718	3.059	3.034	2.939	3.103	3.147	3.515	3.395	3.567	3.565	3.638	3.552	3.515	3.581	3.297	3.282	3.200	3.133	3.010	3.024	2.927	2.816	2.746	2.852	2.830	2.919	2.869
455.0	754.1	2388	1880	643.6	653.0	665.4	670.1	675.5	672.0	654.0	621.7	565.1	509.1	448.6	405.3	372.7	349.8	336.2	325.0	318.4	310.3	302.6	296.4	291.5	281.3	270.1	256.1	245.6	234.9	214.0	195.6	167.4	145.2	126.0	119.2	104.2	73.30	54.86	44.70	35.95	29.52	24.37	20.97	35.48	121.9	332.7	907.5	1849	200.1	11.47	2.924	3.068	2.841	2.993	2.989	2.987	3.293	3.224	3.405	3.616	3.337	3.467	3.243	3.183	3.138	3.323	3.123	3.070	2.861	2.909	2.965	2.617	2.756	2.739	2.766	2.757	2.746
460.0	541.1	1597	2736	780.5	620.1	627.7	637.1	642.3	636.7	623.0	588.8	530.4	480.6	424.8	381.4	348.7	325.1	312.6	302.5	296.2	288.3	283.8	272.9	270.2	261.0	254.4	242.2	233.3	221.9	206.4	187.4	162.0	141.2	120.5	108.7	107.2	84.52	59.18	47.71	38.56	31.66	25.77	21.21	20.66	37.32	82.68	231.7	1214	1583	159.4	6.979	3.332	3.058	2.924	2.827	3.021	3.109	3.037	3.345	3.116	3.442	3.259	3.232	3.070	2.919	3.051	2.863	2.739	2.780	2.778	2.766	2.524	2.498	2.468	2.501	2.402	2.597
465.0	462.6	890.3	2817	1384	589.2	582.5	598.5	614.8	605.6	587.6	562.9	505.6	456.0	408.2	354.3	324.0	305.7	294.0	281.6	274.3	266.2	263.3	256.1	251.2	244.5	238.0	227.5	218.4	207.8	197.6	180.7	156.3	135.1	116.8	101.3	98.48	91.35	64.90	49.40	40.89	33.34	27.21	22.79	18.54	19.70	27.86	59.68	335.8	1418	1297	128.4	4.538	3.052	2.799	2.771	2.769	3.052	2.902	3.116	2.860	3.237	3.141	3.082	2.954	2.881	2.722	2.815	2.689	2.573	2.600	2.546	2.341	2.606	2.456	2.234	2.377	2.463
470.0	420.9	550.1	1787	2437	736.1	535.3	543.3	557.4	561.0	543.5	514.9	468.8	416.4	369.8	325.7	295.8	276.2	263.6	254.4	246.3	238.8	235.1	229.7	226.9	220.2	213.5	205.1	199.1	191.1	182.4	165.7	147.3	129.8	111.2	95.77	86.40	82.63	73.91	54.88	42.07	34.63	29.25	23.74	19.99	17.06	16.66	21.82	82.20	388.5	1014	1175	396.6	10.45	3.055	2.811	2.611	2.844	2.795	2.876	2.851	2.882	3.090	2.906	2.807	2.789	2.604	2.535	2.567	2.426	2.450	2.311	2.450	2.272	2.268	2.161	2.291	2.294
475.0	434.6	431.6	810.0	2432	1606	484.6	491.6	502.3	514.4	494.5	463.6	427.9	378.5	328.2	293.0	267.6	250.9	234.5	227.0	218.6	211.6	207.8	203.4	201.3	194.8	193.7	184.6	179.2	174.1	166.5	153.3	137.9	119.4	104.3	89.63	79.41	72.33	69.28	63.33	46.45	35.87	30.14	24.89	20.98	17.64	15.32	14.37	25.78	92.77	235.1	576.2	1288	202.4	12.75	2.894	2.650	2.822	2.665	2.604	2.696	2.661	2.655	2.739	2.745	2.395	2.573	2.291	2.270	2.215	2.187	2.229	2.047	2.017	2.054	1.980	2.093	1.994
480.0	422.0	432.1	501.0	1632	2451	555.2	454.1	474.1	468.9	472.9	434.2	402.0	358.8	310.7	279.4	247.3	230.9	214.2	209.5	199.1	194.9	190.3	186.3	184.2	178.0	176.3	169.5	164.5	161.5	156.3	142.8	128.9	113.8	99.80	86.29	75.53	67.19	62.35	63.76	51.93	37.03	30.65	25.84	21.87	18.72	15.86	13.45	13.94	27.47	58.09	144.1	731.1	1192	183.1	6.646	2.934	2.643	2.635	2.653	2.559	2.591	2.501	2.546	2.801	2.348	2.327	2.175	2.367	2.234	2.104	2.117	1.904	1.958	1.995	1.881	1.958	1.788
485.0	391.2	414.4	415.5	869.3	2663	1072	439.6	442.1	438.4	439.8	411.5	382.9	340.8	293.2	256.8	232.3	215.2	203.1	195.0	186.5	182.3	179.2	172.5	171.3	167.3	163.4	155.8	155.4	151.5	144.5	135.4	122.2	107.7	96.55	82.33	72.56	63.92	56.85	58.64	54.54	40.55	31.75	27.00	22.33	19.34	16.87	14.12	12.01	13.25	19.11	37.35	196.3	940.3	1090	28.75	4.250	2.765	2.754	2.477	2.491	2.495	2.325	2.419	2.480	2.342	2.262	2.186	2.069	2.062	2.062	1.849	1.945	1.832	2.110	1.779	1.769	1.741
490.0	315.6	417.6	372.9	483.7	1709	2124	544.6	408.7	408.6	407.9	384.1	353.3	312.0	273.9	240.6	215.4	198.7	185.3	178.8	170.2	164.4	162.3	157.4	155.9	153.9	150.2	143.4	140.7	139.4	134.3	126.3	113.3	101.1	90.93	78.90	69.85	61.39	54.51	51.16	51.32	46.51	35.61	28.09	23.04	20.43	17.78	15.04	12.68	11.32	10.77	13.93	48.96	249.3	719.2	958.1	376.4	12.15	2.784	2.436	2.552	2.375	2.394	2.304	2.337	2.164	2.074	2.188	2.043	1.892	1.956	1.787	1.739	1.771	1.787	1.769	1.771	1.619
495.0	269.6	368.4	379.2	362.3	737.0	2307	1203	370.2	374.4	368.2	348.5	324.7	285.1	253.9	217.5	194.5	179.2	167.6	161.4	156.5	148.1	145.1	140.1	141.1	138.7	134.1	129.7	126.5	125.3	124.5	116.5	105.6	93.18	83.05	74.02	65.71	59.67	52.00	46.74	43.90	46.06	40.88	30.25	24.26	20.61	17.54	15.57	13.49	11.11	9.088	9.086	15.86	59.90	166.6	484.0	1184	229.6	14.42	2.704	2.589	2.199	2.227	2.156	2.170	2.181	1.915	1.770	2.049	1.756	1.857	1.730	1.765	1.650	1.709	1.678	1.692	1.671
500.0	241.7	325.4	386.5	316.1	404.7	1607	2010	397.4	345.9	341.4	317.4	297.4	262.8	230.6	201.8	180.9	163.1	154.7	147.3	139.1	134.4	133.0	130.4	128.2	124.7	121.4	118.0	116.8	115.4	112.9	106.2	97.76	87.20	77.66	69.30	62.08	55.95	50.49	44.28	40.46	39.94	41.65	33.24	24.96	20.74	17.70	16.39	13.76	12.01	9.207	8.017	9.037	18.06	41.11	119.8	643.9	1135	202.0	7.875	2.629	2.269	2.077	1.976	1.949	1.976	1.831	1.809	1.697	1.689	1.767	1.650	1.669	1.552	1.672	1.508	1.535	1.537
505.0	217.8	260.0	373.4	314.5	308.3	854.4	2445	752.9	321.6	312.0	293.9	277.6	244.0	211.5	185.9	164.9	151.7	141.1	135.3	128.3	122.5	121.1	117.9	115.1	113.3	111.4	108.1	108.4	106.9	104.3	98.14	91.48	82.15	72.44	64.79	58.00	52.35	47.20	42.07	38.29	35.75	36.76	36.19	26.58	21.21	17.98	15.44	13.72	11.67	9.605	8.042	7.418	8.744	13.37	30.45	168.1	801.5	1030	31.81	4.149	2.459	1.996	1.828	1.786	1.850	1.713	1.790	1.724	1.735	1.462	1.669	1.472	1.466	1.552	1.407	1.376	1.415
510.0	184.8	217.4	313.8	322.1	271.7	407.1	1663	1817	380.3	276.2	267.0	247.2	220.1	189.5	166.7	146.7	134.9	124.8	119.4	112.3	109.8	106.3	102.8	100.7	100.3	99.07	96.02	95.81	95.16	92.03	88.00	81.20	72.55	65.75	58.97	52.23	48.05	43.39	39.41	35.73	31.58	30.51	32.75	28.75	21.98	17.86	15.36	13.54	11.51	10.02	8.631	7.459	6.814	7.179	10.52	41.11	206.9	612.6	797.0	323.4	12.30	2.258	1.746	1.726	1.773	1.615	1.614	1.510	1.591	1.433	1.526	1.410	1.397	1.417	1.243	1.357	1.226
515.0	175.2	199.0	225.1	312.7	243.7	261.9	665.3	2297	947.9	254.5	237.5	216.0	191.5	168.9	148.4	129.1	118.4	108.6	106.1	97.73	93.54	93.24	89.53	88.50	88.26	87.16	83.92	83.21	82.62	81.72	76.00	70.45	64.01	58.64	52.51	47.68	43.55	38.77	35.01	32.16	28.87	27.13	26.40	27.52	25.16	18.63	15.01	13.05	11.66	10.01	8.683	7.928	6.378	5.876	6.015	12.57	49.23	140.1	335.3	883.6	235.1	15.78	2.090	1.860	1.639	1.480	1.666	1.276	1.368	1.246	1.229	1.301	1.321	1.321	1.210	1.230	1.187
520.0	161.5	179.8	188.6	284.1	252.4	217.3	319.9	1657	1891	279.8	217.7	197.8	177.5	153.2	133.2	116.4	105.8	99.43	95.48	88.97	84.44	81.97	79.55	79.48	78.24	77.72	73.50	74.35	73.10	73.19	69.37	64.61	57.91	51.99	47.28	43.02	39.90	35.67	32.86	30.17	26.52	24.51	22.71	24.09	25.23	19.92	15.08	12.74	11.31	9.526	8.323	8.015	6.811	5.752	5.236	6.294	13.92	34.15	80.71	425.3	842.5	208.1	9.277	1.884	1.767	1.400	1.514	1.352	1.324	1.249	1.177	1.151	1.165	1.123	1.236	1.124	1.198
525.0	148.6	160.1	176.2	228.4	262.8	196.2	218.3	799.2	2510	595.1	193.8	180.6	161.0	141.2	118.8	106.3	96.83	89.43	85.47	79.86	76.76	74.59	71.71	71.91	70.28	68.60	66.05	66.01	64.25	65.41	61.87	58.60	53.13	48.62	43.92	39.33	36.90	33.56	30.60	28.39	24.81	22.62	20.90	20.58	22.45	21.52	15.73	12.40	10.78	9.031	7.853	7.452	6.815	5.908	4.956	5.082	6.125	10.41	20.71	105.4	496.4	770.0	164.3	4.199	1.603	1.419	1.563	1.303	1.214	1.188	1.097	1.039	1.110	1.040	1.068	1.048	1.016
530.0	125.9	141.6	148.5	171.2	236.1	203.1	179.7	330.2	1713	1706	224.9	159.5	143.3	123.9	107.1	93.78	85.42	78.79	74.44	70.03	67.96	65.50	62.93	62.22	60.61	59.20	58.45	57.45	56.82	57.87	54.31	50.78	47.03	42.48	38.44	35.20	32.66	29.38	27.18	25.04	22.62	20.69	18.88	17.52	18.17	19.21	17.18	13.16	10.35	8.578	7.550	6.830	6.557	6.172	5.288	4.591	4.467	5.171	7.165	25.83	122.5	385.0	579.0	264.2	13.35	1.549	1.312	1.216	1.169	1.193	1.123	1.022	1.040	0.956	0.928	0.980	0.936
535.0	107.9	121.3	120.9	138.9	177.8	217.5	159.6	192.4	602.9	2317	863.9	144.0	120.7	106.7	93.19	82.21	72.98	69.35	64.48	59.03	57.71	56.25	53.62	52.76	51.84	51.28	49.62	49.04	48.51	49.07	46.91	42.94	39.98	37.05	33.17	30.45	27.89	26.26	23.89	21.74	19.99	19.03	16.43	15.77	15.09	15.07	16.30	14.70	10.29	8.026	7.011	6.347	5.949	5.386	5.334	4.669	4.031	3.814	4.189	7.890	29.03	87.80	196.1	564.8	240.8	17.93	1.424	1.240	1.035	1.088	0.964	0.979	1.039	0.940	0.916	0.871	0.938
540.0	106.2	109.8	115.5	115.8	139.9	214.1	156.8	144.0	245.0	1524	1775	175.0	110.9	97.48	83.42	71.96	66.26	61.91	57.53	53.05	51.42	49.51	47.43	46.39	46.10	44.26	44.23	42.96	43.64	42.25	40.84	37.86	36.07	32.73	30.47	27.78	25.47	22.85	21.43	19.25	18.17	16.97	14.94	14.37	13.36	12.81	13.75	14.37	10.67	7.956	6.906	6.222	5.573	4.865	4.741	4.800	3.974	3.446	3.232	3.612	8.219	21.35	46.18	230.1	570.4	212.6	10.44	1.283	1.085	0.997	0.969	0.939	0.947	0.940	0.796	0.832	0.823
545.0	93.54	95.90	105.9	108.1	112.8	180.3	167.2	125.9	149.1	639.8	2462	448.3	98.03	84.61	74.17	64.05	58.42	54.57	51.20	47.38	45.67	43.35	41.40	40.46	40.74	38.59	38.62	38.14	38.75	38.29	36.35	34.13	30.85	29.03	26.49	24.71	22.34	21.13	19.71	17.23	16.46	15.20	13.49	13.18	11.88	11.40	11.03	12.47	11.34	8.225	6.367	5.825	5.121	4.359	4.281	4.512	4.239	3.400	3.220	2.852	3.623	6.436	11.76	55.12	274.9	542.0	164.2	4.773	1.141	0.940	0.820	0.870	0.776	0.903	0.877	0.846	0.816
550.0	76.96	83.59	87.23	88.34	91.66	121.8	171.6	118.8	112.6	235.8	1480	1587	132.0	73.66	62.22	54.95	49.24	45.56	41.81	39.69	38.78	36.30	34.96	34.33	33.49	31.94	32.33	32.41	31.54	31.44	30.94	28.88	26.67	23.88	21.86	20.46	19.04	17.71	16.50	14.70	13.87	12.61	11.83	11.22	9.968	9.779	9.137	9.306	10.09	8.570	6.477	5.214	4.608	4.220	3.976	3.821	3.759	3.358	2.913	2.408	2.441	2.924	3.996	13.57	65.50	226.3	377.9	142.0	14.11	1.066	0.926	0.791	0.791	0.809	0.727	0.695	0.718
555.0	70.62	74.27	75.12	67.81	70.42	85.98	140.1	138.9	95.00	123.8	457.5	2035	621.6	63.50	49.70	46.46	39.64	37.30	34.62	32.65	31.55	30.20	28.47	28.19	27.20	26.21	26.13	26.51	25.41	25.06	25.38	23.50	21.12	19.15	17.92	17.07	16.57	14.19	13.33	12.25	11.94	10.60	10.14	9.216	8.706	8.152	7.503	7.111	7.642	7.907	6.710	4.873	4.206	3.678	3.381	3.408	3.045	3.104	3.114	2.478	2.049	2.104	2.093	4.167	15.81	51.48	110.8	313.7	233.9	18.69	1.047	0.873	0.723	0.688	0.656	0.730	0.677
560.0	70.93	68.97	64.68	61.60	60.17	74.31	106.3	149.8	87.34	89.39	168.9	1249	1349	85.45	43.65	39.56	34.05	31.50	30.05	27.72	27.18	25.88	23.98	24.00	22.18	22.23	22.65	22.67	21.87	21.39	21.71	19.07	17.48	16.85	15.82	14.48	13.56	12.43	11.30	10.38	10.30	9.305	8.580	8.058	7.491	6.937	6.777	6.192	5.834	6.512	6.586	5.367	3.862	3.302	3.110	2.826	2.774	2.696	2.870	2.552	1.805	1.761	1.681	2.038	4.562	12.47	25.91	112.1	341.9	193.3	11.39	0.846	0.715	0.652	0.610	0.658	0.747
565.0	73.25	60.96	65.59	57.88	58.68	58.62	77.50	147.5	88.87	74.27	89.61	469.7	1949	155.0	39.19	33.58	29.94	27.01	25.91	23.52	21.75	21.67	20.44	20.35	19.45	19.06	18.68	18.74	18.96	18.61	17.80	16.70	14.63	14.29	13.24	12.38	11.43	10.78	9.846	9.115	8.700	7.757	7.685	7.025	6.417	6.072	5.681	5.276	4.817	4.880	5.722	5.303	3.762	3.044	2.714	2.657	2.585	2.194	2.444	2.440	1.943	1.639	1.427	1.430	1.981	3.658	6.648	26.43	137.3	323.4	132.6	4.589	0.697	0.720	0.605	0.600	0.591
570.0	65.68	61.68	55.90	49.87	51.34	49.01	54.28	104.2	110.7	66.46	65.95	154.2	1141	1161	69.47	28.56	24.70	22.38	20.71	20.04	17.77	17.74	16.75	16.74	15.86	15.38	15.28	15.02	14.97	14.80	14.55	13.40	12.04	11.47	10.94	9.777	9.273	8.759	8.142	7.448	7.053	6.516	6.088	5.875	5.540	5.161	4.694	4.415	3.950	3.775	4.114	4.469	3.806	2.974	2.497	2.352	2.197	2.053	1.973	1.963	2.087	1.701	1.412	1.201	1.330	1.681	2.327	6.755	32.18	118.2	213.6	126.4	13.75	0.818	0.645	0.661	0.571
575.0	68.75	59.29	50.14	42.41	40.79	44.15	44.22	62.83	120.7	72.06	55.57	72.58	333.4	1491	444.9	24.71	19.39	17.66	17.07	15.54	15.13	14.56	13.65	13.48	13.25	12.96	12.46	12.40	12.09	12.43	11.96	10.95	10.25	9.357	9.047	7.974	7.410	7.131	6.472	6.192	5.750	5.176	5.268	4.725	4.498	4.349	3.891	3.593	3.324	3.017	3.080	3.281	3.570	3.103	2.507	2.004	1.989	1.705	1.603	1.614	1.614	1.869	1.560	1.181	1.113	1.169	1.238	2.273	7.849	26.91	57.54	169.6	175.5	17.76	0.695	0.608	0.562
580.0	64.01	57.18	48.42	38.80	35.55	35.86	37.72	45.19	104.2	91.56	51.35	52.48	107.4	902.3	990.3	37.88	16.74	15.68	14.00	13.34	13.22	11.79	11.68	11.48	10.99	10.69	10.64	9.327	10.10	10.01	9.989	9.303	8.925	8.077	7.661	6.489	6.517	5.933	5.670	4.992	4.807	4.432	4.191	4.125	3.857	3.730	3.592	3.089	2.980	2.652	2.517	2.676	2.914	3.063	2.524	1.916	1.652	1.446	1.370	1.306	1.270	1.542	1.702	1.159	1.064	0.977	0.868	1.251	2.420	6.709	13.54	55.78	198.3	129.2	8.874	0.628	0.542
585.0	64.01	51.81	39.64	38.43	31.72	32.48	34.81	36.27	75.53	109.1	51.57	44.69	52.27	331.4	1384	103.6	15.90	13.51	12.58	11.12	11.49	10.58	10.31	9.306	9.438	9.021	9.023	8.707	9.020	8.502	8.449	7.865	7.695	6.912	6.587	5.907	5.434	5.150	4.783	4.357	4.350	3.942	3.919	3.582	3.396	3.485	3.115	2.784	2.558	2.331	2.187	2.160	2.350	2.849	2.455	1.777	1.625	1.320	1.223	1.205	1.201	1.318	1.492	1.377	1.087	0.888	0.797	0.931	1.172	2.094	3.674	13.21	74.96	191.2	36.04	3.414	0.516
590.0	59.27	48.50	44.85	34.43	29.50	29.36	29.93	33.11	49.57	98.89	64.03	40.91	38.52	101.5	801.4	720.8	32.29	11.36	10.34	9.562	9.171	8.559	8.127	7.741	7.850	7.686	7.525	6.976	7.488	6.801	7.027	6.789	6.406	5.595	5.241	5.000	4.426	4.370	4.009	3.745	3.766	3.323	3.331	3.124	2.810	2.749	2.429	2.468	2.233	1.919	1.824	1.723	1.797	1.928	2.323	1.893	1.554	1.345	1.059	1.140	1.120	1.114	1.210	1.339	1.173	0.818	0.868	0.829	0.886	1.003	1.326	3.482	17.57	66.61	118.4	81.64	11.95
595.0	46.88	50.60	40.73	31.10	28.88	26.72	26.49	29.06	34.04	68.87	84.96	42.12	34.16	41.56	223.8	965.2	228.9	10.85	8.897	7.970	7.389	7.137	6.917	6.558	6.246	6.350	5.777	5.961	5.990	5.609	5.679	5.617	5.109	4.606	4.318	4.239	3.759	3.523	3.361	3.101	3.231	2.764	2.568	2.535	2.481	2.346	2.068	1.875	1.943	1.644	1.501	1.520	1.441	1.356	2.006	1.918	1.706	1.224	1.049	1.071	0.944	0.938	0.861	0.961	1.382	0.970	0.862	0.728	0.815	0.767	0.867	1.231	4.393	15.39	31.47	99.14	106.4
600.0	47.97	47.36	39.50	31.42	25.42	23.19	23.52	26.55	30.02	47.96	89.97	48.14	29.23	27.95	64.76	605.9	612.4	16.61	7.951	7.310	6.326	6.412	6.057	5.770	5.484	5.449	5.214	5.140	5.042	5.028	5.006	4.460	4.272	4.000	3.826	3.555	3.217	3.231	2.913	2.626	2.609	2.615	2.253	2.173	2.063	2.052	1.741	1.809	1.671	1.585	1.353	1.290	1.277	1.182	1.381	1.733	1.681	1.364	0.975	1.002	0.872	0.830	0.882	0.851	1.014	1.114	0.911	0.711	0.618	0.644	0.716	0.796	1.414	3.897	7.539	31.65	114.9
605.0	48.34	43.14	36.26	27.75	22.24	23.24	22.95	23.87	27.41	35.83	77.92	60.39	30.60	23.86	28.02	229.5	853.5	65.43	7.236	6.547	5.648	5.343	5.061	5.121	4.592	4.702	4.320	4.359	4.584	4.435	4.596	3.939	3.782	3.557	3.206	3.399	2.843	2.528	2.452	2.209	2.123	2.088	1.865	2.050	1.814	1.779	1.577	1.448	1.400	1.302	1.268	1.200	1.109	1.022	1.047	1.300	1.571	1.417	0.924	0.861	0.757	0.838	0.711	0.778	0.800	0.914	0.984	0.804	0.682	0.589	0.581	0.620	0.703	1.296	2.069	7.626	43.10
610.0	46.93	44.95	34.42	26.36	21.42	21.60	22.14	23.21	24.57	29.65	51.51	72.32	33.17	21.48	17.72	64.13	540.8	437.4	14.81	5.541	4.607	4.833	4.240	4.169	3.998	3.942	3.765	3.640	3.841	3.556	3.512	3.350	3.264	3.124	2.638	2.751	2.411	2.343	2.129	1.899	1.938	1.703	1.648	1.659	1.670	1.515	1.337	1.264	1.217	1.091	1.002	1.039	0.933	0.916	0.903	0.985	1.328	1.319	1.140	0.828	0.743	0.716	0.665	0.687	0.768	0.715	0.856	0.935	0.739	0.581	0.618	0.548	0.578	0.722	0.865	2.124	10.27
615.0	39.70	44.30	36.64	23.51	18.84	18.16	20.45	22.38	21.91	26.22	35.69	65.58	42.13	21.66	14.99	22.46	154.0	647.3	74.79	4.865	4.033	3.960	3.708	3.503	3.395	3.125	3.028	3.018	3.249	2.826	3.119	2.695	2.579	2.363	2.337	2.465	2.066	1.828	1.822	1.632	1.706	1.463	1.439	1.391	1.126	1.208	1.179	1.073	1.051	0.887	0.854	0.831	0.822	0.866	0.685	0.809	0.924	1.247	1.048	0.850	0.742	0.641	0.656	0.638	0.690	0.701	0.662	0.916	0.791	0.595	0.586	0.530	0.514	0.556	0.562	0.831	2.705
620.0	39.94	41.83	36.93	23.73	19.40	18.77	18.06	21.41	21.05	25.06	29.87	52.26	52.32	21.92	14.33	13.71	41.79	449.3	367.4	7.989	3.942	3.384	3.143	3.023	2.817	2.883	2.615	2.554	2.675	2.428	2.530	2.208	2.130	2.137	2.222	1.966	1.731	1.558	1.734	1.373	1.421	1.370	1.230	1.171	1.126	1.015	1.006	0.995	0.963	0.806	0.724	0.698	0.662	0.759	0.655	0.628	0.778	0.905	0.930	0.902	0.653	0.624	0.609	0.651	0.564	0.591	0.585	0.672	0.783	0.686	0.563	0.490	0.465	0.497	0.496	0.604	0.968
625.0	39.91	43.97	34.84	22.37	16.87	16.61	17.43	19.63	20.56	22.84	26.36	36.98	59.15	24.88	14.37	10.23	14.83	179.7	582.1	39.29	3.441	3.035	2.601	2.765	2.758	2.467	2.393	2.350	2.343	2.308	2.032	1.845	1.992	1.848	1.829	1.746	1.618	1.534	1.558	1.355	1.309	1.362	1.066	1.188	0.992	0.933	0.941	1.058	0.795	0.697	0.672	0.721	0.641	0.624	0.695	0.577	0.675	0.737	0.776	0.865	0.683	0.625	0.579	0.573	0.566	0.593	0.536	0.564	0.681	0.759	0.704	0.500	0.472	0.551	0.537	0.511	0.594
630.0	45.30	40.05	31.01	22.29	17.25	15.40	16.04	18.28	19.62	22.41	24.57	28.78	48.59	34.11	13.52	9.106	8.344	48.42	411.1	283.1	7.262	2.821	2.440	2.239	2.200	2.216	1.998	1.927	1.933	1.878	1.826	1.702	1.706	1.579	1.561	1.469	1.408	1.337	1.335	1.145	1.130	1.176	0.983	0.939	0.814	0.898	0.807	0.810	0.722	0.652	0.579	0.657	0.600	0.565	0.676	0.534	0.629	0.603	0.654	0.788	0.736	0.674	0.529	0.513	0.515	0.560	0.520	0.511	0.540	0.651	0.761	0.532	0.464	0.493	0.473	0.465	0.523
635.0	38.52	38.89	30.65	19.93	16.52	15.21	16.11	17.71	18.44	20.17	22.38	26.44	32.65	43.55	16.60	8.897	6.816	15.01	122.0	484.6	54.07	2.759	2.200	1.880	1.922	1.830	1.708	1.680	1.718	1.698	1.577	1.492	1.405	1.362	1.300	1.107	1.183	1.102	0.992	0.986	0.953	0.947	0.843	0.783	0.934	0.761	0.726	0.742	0.614	0.586	0.539	0.523	0.511	0.535	0.592	0.484	0.505	0.508	0.587	0.635	0.706	0.703	0.542	0.531	0.506	0.459	0.539	0.461	0.561	0.535	0.657	0.680	0.610	0.510	0.425	0.498	0.483
640.0	36.68	36.65	27.87	18.20	17.04	14.27	15.32	16.29	18.72	19.46	21.85	24.49	25.80	41.36	20.75	8.933	6.757	7.248	32.48	370.1	232.2	4.035	2.115	2.055	1.729	1.631	1.688	1.596	1.728	1.595	1.345	1.320	1.251	1.211	1.142	1.061	0.991	0.969	1.051	0.930	0.841	0.789	0.731	0.710	0.710	0.782	0.694	0.577	0.594	0.529	0.450	0.490	0.519	0.581	0.478	0.410	0.431	0.485	0.554	0.535	0.659	0.571	0.642	0.545	0.492	0.512	0.424	0.449	0.487	0.452	0.518	0.589	0.679	0.482	0.456	0.406	0.449
645.0	42.90	39.34	29.46	19.22	16.76	13.75	15.69	15.20	17.85	18.61	22.76	23.27	22.00	32.10	28.20	9.860	6.759	5.295	10.46	162.2	412.2	20.00	1.982	1.883	1.635	1.456	1.452	1.367	1.403	1.358	1.152	1.225	1.028	1.101	1.042	1.024	1.004	1.116	1.003	0.828	0.957	0.711	0.614	0.593	0.663	0.596	0.599	0.565	0.545	0.458	0.417	0.493	0.488	0.489	0.455	0.468	0.469	0.453	0.558	0.467	0.522	0.559	0.631	0.549	0.555	0.546	0.476	0.524	0.502	0.512	0.536	0.566	0.588	0.570	0.472	0.501	0.458
650.0	43.26	41.15	28.28	19.83	16.30	13.26	13.29	15.02	17.51	18.48	21.63	22.56	20.16	24.89	31.94	10.87	6.667	5.388	5.495	49.23	415.4	65.25	2.078	1.822	1.546	1.306	1.437	1.288	1.296	1.194	1.164	1.122	1.037	1.015	1.066	1.037	0.890	1.050	0.804	0.887	0.768	0.685	0.725	0.611	0.626	0.630	0.565	0.580	0.549	0.486	0.425	0.488	0.431	0.422	0.459	0.415	0.500	0.441	0.438	0.441	0.477	0.607	0.553	0.487	0.473	0.510	0.439	0.490	0.478	0.515	0.468	0.470	0.566	0.664	0.507	0.428	0.429
