Sample:	'1
File name:	Default_20230301_160956.FD3
Run date:	'16:03:35, 03/01/2023
Operator:	user
Comment:	'

Instrument
Model:	F-2700 FL Spectrophotometer
Serial number:	2190-003
ROM Version:	4J14000 07

Instrument parameters
Measurement type:	3-D scan
Data mode:	Fluorescence
EX  Start WL:	220.0 nm
EX  End WL:	600.0 nm
EX Sampling interval:	5.0 nm
EM  Start WL:	230.0 nm
EM  End WL:	650.0 nm
EM Sampling interval:	5.0 nm
Scan speed:	12000 nm/min
EX Slit:	5.0 nm
EM Slit:	5.0 nm
PMT Voltage:	700 V
Response:	Auto 
Corrected spectra:	Off
Contour interval:	50.000

Peak integration
Integration method:	Rectangular
Sensitivity:	1
Threshold:	1.000

Peaks
No.	ApexEX/EM(nm)	Height(Data)
1	225.0/315.0	563.7
2	225.0/335.0	608.7
3	225.0/345.0	616.7
4	225.0/525.0	137.8
5	225.0/560.0	52.36
6	225.0/590.0	100.5
7	225.0/620.0	73.60
8	225.0/635.0	47.17
9	230.0/370.0	547.9
10	230.0/520.0	137.0
11	230.0/640.0	56.55
12	235.0/395.0	526.2
13	235.0/420.0	480.8
14	235.0/505.0	207.5
15	235.0/540.0	87.00
16	235.0/585.0	48.65
17	235.0/600.0	51.49
18	240.0/435.0	437.3
19	240.0/515.0	168.6
20	240.0/555.0	64.24
21	240.0/615.0	28.97
22	245.0/355.0	467.3
23	245.0/380.0	559.3
24	245.0/395.0	518.0
25	245.0/420.0	491.5
26	245.0/565.0	53.60
27	245.0/640.0	27.22
28	250.0/375.0	520.8
29	250.0/540.0	106.2
30	255.0/400.0	493.6
31	255.0/415.0	506.8
32	255.0/550.0	100.2
33	255.0/560.0	97.66
34	260.0/365.0	461.8
35	260.0/565.0	117.1
36	265.0/395.0	471.0
37	265.0/445.0	440.9
38	265.0/465.0	376.8
39	265.0/580.0	162.3
40	270.0/245.0	16.34
41	270.0/295.0	 1802
42	270.0/375.0	484.0
43	270.0/405.0	460.9
44	270.0/435.0	442.7
45	270.0/590.0	168.1
46	275.0/300.0	 1830
47	275.0/390.0	460.0
48	280.0/615.0	94.13
49	285.0/235.0	6.516
50	285.0/250.0	9.184
51	285.0/395.0	448.3
52	290.0/640.0	39.44
53	305.0/240.0	4.023
54	305.0/340.0	397.4
55	310.0/345.0	353.8
56	315.0/280.0	7.160
57	315.0/585.0	14.82
58	320.0/260.0	5.238
59	320.0/360.0	332.4
60	325.0/240.0	2.742
61	325.0/365.0	340.2
62	325.0/605.0	6.851
63	330.0/245.0	3.227
64	330.0/255.0	2.792
65	335.0/380.0	322.9
66	340.0/235.0	2.793
67	340.0/385.0	317.6
68	350.0/395.0	270.8
69	355.0/405.0	266.8
70	355.0/620.0	4.158
71	360.0/275.0	2.272
72	365.0/245.0	1.804
73	365.0/295.0	2.597
74	365.0/415.0	230.5
75	370.0/255.0	2.252
76	370.0/425.0	215.1
77	375.0/280.0	1.782
78	380.0/265.0	2.165
79	385.0/260.0	2.361
80	385.0/600.0	4.621
81	390.0/235.0	2.387
82	390.0/295.0	2.732
83	390.0/325.0	3.799
84	400.0/300.0	2.628
85	410.0/320.0	2.480
86	410.0/625.0	2.825
87	415.0/485.0	56.72
88	420.0/255.0	1.358
89	420.0/635.0	1.658
90	425.0/260.0	1.691
91	425.0/325.0	3.193
92	430.0/250.0	1.477
93	430.0/270.0	1.560
94	430.0/505.0	34.12
95	435.0/245.0	1.448
96	435.0/285.0	2.054
97	435.0/510.0	29.31
98	440.0/340.0	2.223
99	440.0/515.0	25.45
100	445.0/525.0	20.60
101	450.0/530.0	17.67
102	455.0/540.0	14.04
103	480.0/365.0	2.357
104	485.0/360.0	2.314
105	485.0/580.0	3.824
106	490.0/400.0	2.468
107	505.0/395.0	2.602
108	520.0/360.0	2.265
109	530.0/405.0	2.022
110	540.0/380.0	2.696
111	540.0/605.0	2.235
112	545.0/300.0	4.242
113	545.0/370.0	2.061
114	550.0/355.0	2.424
115	565.0/320.0	2.736
116	565.0/465.0	2.319
117	570.0/335.0	2.638
118	570.0/415.0	2.333
119	575.0/385.0	1.746
120	585.0/405.0	1.899
121	590.0/475.0	2.131

Data points
	220.0	225.0	230.0	235.0	240.0	245.0	250.0	255.0	260.0	265.0	270.0	275.0	280.0	285.0	290.0	295.0	300.0	305.0	310.0	315.0	320.0	325.0	330.0	335.0	340.0	345.0	350.0	355.0	360.0	365.0	370.0	375.0	380.0	385.0	390.0	395.0	400.0	405.0	410.0	415.0	420.0	425.0	430.0	435.0	440.0	445.0	450.0	455.0	460.0	465.0	470.0	475.0	480.0	485.0	490.0	495.0	500.0	505.0	510.0	515.0	520.0	525.0	530.0	535.0	540.0	545.0	550.0	555.0	560.0	565.0	570.0	575.0	580.0	585.0	590.0	595.0	600.0
230.0	22.87	478.3	 3652	 2364	133.0	6.410	-0.960	-5.248	0.015	6.574	10.45	-1.173	6.626	2.646	-0.580	2.422	0.901	0.528	1.974	1.484	2.731	1.070	0.583	1.112	1.185	0.648	0.800	0.479	0.651	0.286	0.451	0.808	0.712	0.313	1.038	1.022	0.434	0.808	0.713	0.682	0.851	0.552	0.880	0.521	0.543	0.387	0.580	4.524	8.765	6.951	2.493	0.536	0.295	0.353	0.747	-0.082	0.330	0.137	0.101	0.039	0.033	0.087	0.088	-0.074	-0.062	0.315	-0.043	-0.082	-0.122	-0.113	0.093	0.086	-0.256	-0.500	-0.459	-0.066	-0.343
235.0	28.98	115.2	 1401	 3858	 2369	140.3	4.933	-1.120	6.260	1.527	9.443	-0.958	6.039	6.516	5.040	5.599	-1.508	1.928	2.361	1.232	1.805	-0.694	0.069	2.085	2.793	1.600	0.946	0.819	-0.938	0.667	2.004	0.936	-1.073	0.451	2.387	0.838	1.062	0.339	0.797	0.808	0.664	-0.034	1.691	0.371	0.502	-0.390	0.607	1.960	2.878	4.859	7.831	8.429	3.559	1.033	0.730	0.133	1.078	-0.152	0.385	0.265	-0.177	0.426	-0.323	-0.037	-0.476	0.001	-0.602	-0.045	0.007	0.320	0.027	-0.143	-0.518	-0.330	-0.552	-0.478	-0.167
240.0	26.16	101.7	368.0	 1966	 4695	 1797	99.20	-2.607	2.787	2.630	4.706	2.492	0.511	-1.200	1.200	5.578	0.026	4.023	2.889	0.859	1.685	2.742	0.472	0.643	0.963	0.710	-0.933	0.928	-0.518	0.309	1.084	1.008	-0.032	-0.533	2.021	0.470	0.105	0.407	0.658	1.122	0.448	0.537	0.931	0.228	1.327	0.524	1.496	0.464	0.898	1.788	3.689	8.805	11.31	8.779	2.495	0.610	-0.066	0.766	0.873	0.423	-0.045	0.561	-0.265	0.067	-0.318	-0.084	0.210	0.095	0.425	-0.025	0.234	-0.176	-0.376	-0.239	0.188	0.072	0.012
245.0	57.62	150.4	119.7	508.9	 2960	 5104	 1305	46.35	9.659	0.500	16.34	1.187	1.156	4.564	4.187	4.299	3.468	3.369	2.623	1.318	2.260	2.014	3.227	0.275	0.645	0.315	-0.247	0.527	-1.191	1.804	0.044	-0.252	1.771	0.835	1.096	-0.199	0.037	0.452	0.629	0.885	0.165	1.189	0.279	1.448	0.830	0.444	0.921	0.476	0.701	0.961	1.093	2.859	6.612	13.85	14.39	7.323	1.408	0.508	0.277	0.180	0.219	0.307	0.331	0.489	-0.008	0.134	-0.205	0.341	0.683	0.343	0.564	0.359	-0.412	-0.122	0.135	-0.359	-0.341
250.0	12.51	44.98	103.9	194.3	764.2	 2843	 5126	 3219	378.2	11.01	6.816	4.540	-0.141	9.184	1.269	5.297	2.141	1.688	1.933	-0.040	2.787	0.826	1.760	1.284	-0.181	1.885	0.286	0.690	-1.210	1.426	0.591	0.531	1.199	0.805	0.575	0.208	0.307	0.354	0.203	0.203	0.726	1.070	1.477	0.745	0.516	0.283	0.807	0.472	1.103	1.059	0.449	0.852	1.748	4.567	8.702	12.45	16.12	12.40	6.185	1.204	0.201	0.339	-0.030	0.021	-0.009	0.287	0.264	-0.055	-0.608	0.047	-0.206	0.185	0.109	-0.292	-0.306	-0.509	-0.363
255.0	19.88	16.63	61.67	166.0	277.9	653.8	 2070	 7156	 5529	489.1	9.702	4.826	6.350	9.131	1.466	4.673	4.248	3.525	2.933	2.294	3.729	1.381	2.792	1.152	-0.727	1.472	0.716	0.886	0.921	0.786	2.252	-0.389	1.261	1.055	-0.974	0.270	0.302	1.025	0.767	0.637	1.358	0.683	1.048	0.764	0.341	0.591	1.181	0.771	0.857	0.794	0.671	0.352	0.702	0.623	1.924	3.404	5.727	12.88	26.08	22.83	8.815	0.463	0.973	-0.217	0.092	0.398	0.032	0.053	-0.130	0.239	0.119	-0.002	-0.536	-0.738	-0.429	-0.259	-0.620
260.0	-42.58	4.003	37.71	112.8	210.4	194.4	502.5	 3399	 9463	 4901	223.4	18.09	15.26	4.039	3.119	1.765	1.636	5.125	1.646	3.755	5.238	0.874	0.304	1.550	1.528	2.035	1.691	0.915	-0.555	2.082	1.820	1.393	1.671	2.361	-0.274	-0.358	0.259	1.024	0.331	0.571	0.935	1.691	0.242	0.147	0.394	0.283	0.217	0.894	0.557	0.197	0.551	0.800	0.780	0.576	0.683	1.096	1.499	3.106	12.75	25.26	30.59	20.32	5.348	0.145	0.329	0.150	-0.109	-0.222	0.277	-0.089	0.262	-0.284	-0.688	-0.132	-0.272	-0.330	-1.451
265.0	42.24	27.87	0.790	66.32	171.9	201.2	146.4	850.5	 5359	9999.9	 1314	91.69	11.68	8.263	5.220	-2.972	0.944	4.628	2.831	2.860	0.564	2.069	0.884	0.851	-0.122	1.057	1.058	0.467	1.145	0.786	1.901	0.933	2.165	0.728	0.538	0.811	0.149	0.709	0.842	0.754	0.798	1.188	1.493	0.779	0.186	0.008	0.316	0.574	0.649	0.542	0.580	0.404	0.476	1.188	0.794	-0.015	0.955	0.607	3.395	8.123	20.15	33.59	32.81	13.65	2.124	0.450	-0.022	-0.029	-0.177	-0.072	0.027	-0.386	-0.123	0.453	-0.789	-0.407	-0.453
270.0	34.45	36.12	6.476	33.06	59.31	163.9	218.7	239.0	 1324	 5088	 9634	 5158	390.1	12.84	9.278	5.873	4.099	6.492	2.808	2.027	2.468	2.010	2.044	0.592	0.771	1.838	1.115	0.811	1.519	1.201	1.600	0.867	1.387	0.758	1.101	0.687	0.448	0.775	1.030	0.226	0.441	0.499	1.560	1.279	0.564	0.428	0.830	0.843	0.956	0.514	0.414	0.752	0.304	0.814	0.908	0.829	1.150	0.588	1.425	1.761	5.055	10.93	20.05	30.16	33.64	27.10	10.92	2.270	-0.211	-0.343	0.106	-0.487	-0.486	0.189	0.081	-0.174	-0.276
275.0	115.5	94.69	53.82	24.08	-5.384	56.35	213.5	334.0	391.4	 1257	 3577	9999.9	 7729	456.3	11.04	14.91	5.712	6.412	5.999	2.667	3.878	3.928	3.653	1.969	2.399	1.160	1.708	0.346	2.272	0.276	-0.206	0.898	0.600	1.183	0.644	1.472	1.753	1.145	0.263	1.023	0.180	0.420	-0.080	-0.024	1.099	0.456	1.254	0.995	0.722	1.071	0.663	-0.090	0.734	0.197	0.675	0.902	1.122	0.815	1.414	0.788	1.697	3.088	4.791	8.124	12.63	32.52	53.50	42.70	13.28	0.659	-0.126	-0.247	-0.292	0.292	-0.173	-0.635	0.766
280.0	170.6	112.2	89.13	31.19	13.84	52.49	161.8	393.1	453.2	591.0	 1189	 4996	9999.9	 6016	282.3	14.62	10.25	5.772	5.233	7.160	2.615	3.737	3.173	2.126	2.563	2.726	2.714	0.893	0.687	0.592	0.568	1.782	0.544	0.557	1.698	0.668	1.570	0.928	0.308	0.665	1.024	0.782	1.145	0.959	1.321	0.637	1.018	0.400	1.077	0.732	0.774	0.745	0.556	0.176	0.687	1.083	1.090	0.915	1.787	1.215	1.510	1.451	1.791	2.426	3.744	9.993	25.85	54.96	62.37	32.89	6.773	-0.346	0.560	-0.227	0.186	-0.246	0.332
285.0	327.7	199.0	110.5	65.15	45.56	73.96	138.5	344.2	701.1	702.6	891.2	 1794	 6850	9999.9	 4384	131.3	10.77	9.660	7.628	4.351	3.761	3.460	4.006	2.296	3.026	0.559	3.348	1.961	2.327	0.567	0.714	0.538	0.406	1.984	1.511	1.059	1.256	1.190	0.520	-0.286	1.455	0.400	1.142	2.054	1.291	0.540	1.650	0.762	1.109	0.771	0.439	0.381	1.102	1.251	0.470	0.390	0.283	1.014	1.770	1.938	2.000	1.284	0.821	2.601	2.276	3.576	6.841	18.03	43.71	66.92	56.15	22.15	2.131	0.841	0.475	-0.161	-0.125
290.0	494.5	306.4	141.2	93.65	69.71	117.6	200.4	385.3	740.3	 1160	 1280	 1342	 2230	 6045	9999.9	 9067	230.8	17.80	12.45	7.677	5.906	4.265	3.483	3.780	2.958	2.360	2.509	2.045	1.530	1.652	1.161	0.739	0.707	2.055	2.493	1.055	1.430	1.723	0.397	1.183	1.729	1.253	1.654	1.322	1.252	1.291	1.527	1.283	1.281	0.647	0.986	0.326	0.974	1.126	0.868	0.509	0.713	0.890	1.092	1.499	1.863	2.559	3.110	3.469	2.822	2.437	3.903	5.755	11.33	21.50	37.42	52.23	55.92	39.82	16.42	2.505	-0.139
295.0	573.4	403.9	256.7	155.6	115.6	152.8	240.8	458.3	768.5	 1218	 1802	 1577	 1255	 1601	 3421	9999.9	9999.9	301.0	16.39	10.25	8.215	5.244	5.815	3.079	3.038	2.688	3.792	0.897	1.817	2.597	1.376	0.954	2.410	2.493	2.732	1.148	1.258	1.503	1.735	0.896	1.107	2.089	1.751	1.451	2.214	0.260	1.126	1.441	1.211	0.697	1.015	0.813	0.572	0.786	0.643	1.055	1.045	1.101	1.066	1.279	1.640	2.031	2.903	4.062	3.198	4.217	3.273	3.183	3.519	5.143	9.386	12.44	23.17	53.00	81.02	61.07	18.73
300.0	687.3	539.5	319.6	172.1	143.8	197.0	261.5	488.5	757.0	 1213	 1744	 1830	 1098	667.8	922.9	 4476	9999.9	 9689	200.0	13.27	10.03	5.773	5.109	2.526	3.317	2.948	3.270	0.489	2.424	1.811	2.542	1.781	2.467	1.926	1.664	1.892	2.628	1.320	0.850	1.041	1.476	1.940	1.814	1.552	1.759	1.527	1.174	1.403	1.624	1.254	0.971	0.859	0.792	0.331	0.841	0.905	0.891	1.381	0.861	2.096	0.974	2.052	2.271	3.449	3.455	4.242	2.274	2.320	1.608	2.509	2.201	3.028	6.068	14.10	40.93	82.33	85.45
305.0	673.9	589.6	370.9	213.8	160.9	186.9	268.0	450.9	738.7	 1109	 1574	 1787	 1239	498.0	381.0	 1152	 6249	9999.9	 2762	109.6	12.72	8.933	6.251	4.671	4.121	4.296	3.786	2.061	0.349	1.248	2.174	1.533	0.934	2.514	1.428	1.914	1.106	1.551	0.903	1.805	2.215	1.843	1.338	1.474	1.755	1.521	1.153	1.326	1.883	1.456	1.048	1.106	1.723	0.924	1.109	0.985	0.721	1.746	1.276	2.091	1.474	2.667	2.224	2.723	3.228	3.789	3.773	2.676	1.651	1.504	0.861	1.397	1.858	3.238	9.439	27.50	62.41
310.0	660.0	523.4	369.6	244.6	176.6	194.6	247.5	429.1	673.5	981.1	 1311	 1413	 1263	692.6	337.6	395.5	 1546	 5809	9999.9	 8514	158.3	16.94	8.830	7.644	5.330	5.206	3.641	4.209	1.832	1.845	1.600	2.432	2.236	2.339	1.673	2.278	2.170	1.215	1.396	1.596	1.331	1.809	1.848	1.720	1.561	1.590	1.245	1.116	1.436	1.335	1.231	0.999	0.950	1.494	1.095	1.075	0.611	1.683	1.590	2.104	1.266	2.009	2.507	2.775	2.722	3.299	3.052	3.267	2.986	1.645	0.890	0.681	0.882	0.836	2.634	6.642	15.31
315.0	495.0	563.7	459.2	282.2	184.8	187.0	232.5	389.9	578.8	837.5	 1086	 1135	987.7	835.6	542.9	265.6	437.9	 1352	 3320	9999.9	9999.9	216.6	15.77	12.69	5.827	5.569	4.327	4.204	4.699	1.579	1.036	2.039	1.994	1.514	2.699	1.792	2.078	1.712	2.035	1.317	1.675	1.584	2.025	1.819	1.662	1.542	1.687	0.963	1.744	1.634	1.005	0.953	1.182	0.764	0.499	1.135	1.425	1.400	1.175	1.138	1.493	1.912	1.749	2.204	2.416	2.391	3.368	3.141	1.692	2.042	2.373	1.817	0.939	0.674	0.400	1.360	3.557
320.0	530.0	546.4	466.9	331.9	177.4	189.1	228.2	346.6	538.4	719.6	955.3	975.8	847.5	729.4	706.2	327.0	199.8	367.0	795.8	 4512	9999.9	 9199	153.9	13.94	9.508	9.226	5.719	4.801	4.604	2.529	2.131	2.361	2.633	2.549	2.862	2.113	2.400	1.211	2.480	1.336	1.487	1.604	1.086	1.047	2.053	1.474	1.809	0.714	1.279	1.314	1.005	0.785	1.510	0.645	1.037	1.425	1.144	1.455	1.944	1.467	1.478	1.941	2.281	1.845	2.347	2.030	2.596	1.799	1.997	2.736	2.123	1.692	1.673	0.670	0.339	0.027	0.700
325.0	499.4	534.4	501.5	335.9	216.0	205.7	223.5	369.7	497.2	642.2	847.0	910.2	781.9	632.4	645.0	510.7	195.1	155.9	231.5	 1092	 6354	9999.9	 1948	98.21	12.91	8.600	5.798	5.123	4.109	3.021	2.469	2.571	2.200	2.592	3.799	1.114	1.281	1.256	1.283	1.132	2.468	3.193	1.861	1.875	1.733	2.178	1.417	1.981	1.539	1.489	0.720	1.475	0.834	0.813	1.265	1.405	0.865	1.664	1.520	1.476	1.774	1.488	1.608	2.274	1.429	2.591	2.155	2.057	1.303	2.079	2.330	1.473	1.757	1.871	1.314	0.716	0.049
330.0	476.7	605.5	532.2	356.6	270.7	236.4	242.0	338.7	445.3	590.2	743.1	818.4	720.4	595.0	509.1	510.2	371.1	164.0	119.2	292.4	 1539	 5810	9999.9	 7432	625.3	16.12	7.365	6.570	4.953	3.027	3.681	3.437	2.261	2.809	2.031	2.233	2.260	1.575	1.208	2.046	1.489	1.441	1.352	2.058	1.526	1.468	1.288	2.174	1.807	1.109	1.034	1.258	0.978	1.150	1.139	1.248	0.970	1.260	1.013	1.336	1.792	1.319	1.831	1.951	2.105	2.104	1.625	1.819	1.400	2.043	1.725	1.365	1.367	1.601	1.401	1.212	0.540
335.0	477.1	608.7	580.9	423.4	306.0	291.9	268.5	340.9	416.0	522.4	647.6	723.5	678.4	582.1	479.5	397.6	387.7	330.0	135.0	131.2	391.8	 1335	 3403	9999.9	9999.9	174.3	13.05	10.61	7.953	4.774	3.732	3.333	2.277	2.065	1.527	2.251	1.713	1.487	2.412	2.008	1.661	1.276	2.146	1.243	1.627	1.755	1.239	1.962	1.280	1.117	1.209	1.214	0.933	1.153	0.820	1.090	0.902	1.198	1.360	0.864	1.769	1.450	0.836	1.449	1.698	1.476	1.541	2.038	1.518	1.433	2.638	1.119	1.298	0.414	0.406	1.232	1.098
340.0	466.7	535.4	583.5	466.4	351.9	307.2	302.9	334.7	427.7	515.5	591.7	667.2	638.9	565.3	474.8	361.9	314.7	397.4	243.2	109.4	150.7	343.1	809.5	 4784	9999.9	 8981	129.9	13.63	10.34	8.201	5.484	4.222	3.900	3.193	3.040	2.920	1.461	2.072	2.117	2.248	1.108	1.687	2.193	1.967	2.223	1.942	1.122	1.563	1.527	2.101	1.145	0.984	1.073	1.173	1.702	0.831	1.660	1.454	1.486	1.337	1.803	1.848	1.124	0.970	1.855	0.932	1.488	1.479	1.929	1.455	1.444	0.936	1.277	0.826	0.687	0.248	0.985
345.0	479.3	616.7	590.3	405.1	408.8	369.8	320.1	357.3	424.9	502.9	571.3	617.1	620.6	550.5	488.9	365.7	284.0	315.4	353.8	161.7	112.8	138.0	227.7	 1158	 6899	9999.9	 6201	84.87	12.28	9.478	7.884	5.084	4.400	3.798	3.511	2.823	1.631	2.195	1.649	1.536	0.975	1.302	1.875	1.656	1.566	2.056	1.427	1.267	1.548	1.545	1.206	1.416	1.223	1.384	1.469	0.943	1.549	1.077	1.184	1.029	1.457	1.616	1.556	1.542	1.763	1.383	1.355	1.037	1.640	1.655	1.558	0.930	1.299	0.957	1.284	0.289	0.702
350.0	464.2	541.1	548.9	452.6	435.8	400.7	364.4	391.4	412.6	483.4	518.1	581.9	579.6	528.6	473.3	370.3	286.8	257.0	310.9	302.0	171.3	111.9	116.7	310.6	 1691	 6410	9999.9	 6281	542.1	15.35	9.194	6.645	3.901	3.526	3.561	3.767	2.441	2.463	2.460	1.776	1.883	2.050	1.373	1.302	1.461	1.738	2.043	1.861	1.458	1.704	1.416	1.346	1.336	1.465	1.755	1.334	1.620	1.313	1.579	1.153	1.798	1.795	1.733	0.996	1.753	1.184	2.056	1.818	1.344	1.682	1.256	1.187	1.468	1.378	1.420	0.860	0.488
355.0	338.2	471.0	518.0	483.1	408.1	467.3	408.0	402.3	431.6	463.5	504.1	533.9	540.3	512.7	460.3	382.2	303.8	267.9	258.9	297.9	299.5	161.3	118.3	141.2	432.1	 1468	 3775	9999.9	 9986	146.0	13.86	10.34	6.409	4.473	3.513	3.394	3.159	2.496	2.162	2.633	1.693	2.117	1.653	1.731	1.675	2.490	1.327	1.529	1.860	1.304	1.967	1.625	1.641	1.703	1.312	1.506	1.720	1.024	1.736	1.547	1.611	1.747	1.461	0.950	1.421	1.052	2.424	1.458	1.912	1.568	1.354	0.916	1.148	0.959	1.036	0.869	1.155
360.0	320.2	438.5	520.9	502.6	510.9	437.7	438.0	419.7	448.5	452.4	490.6	518.4	525.4	503.5	459.0	382.0	327.7	291.3	259.5	253.3	332.4	254.7	141.2	120.9	162.6	378.3	900.9	 5321	9999.9	 7917	104.0	13.19	8.525	5.776	4.879	4.960	2.079	3.930	2.743	2.074	1.372	1.342	1.596	1.092	1.130	2.333	1.659	1.594	2.207	1.130	1.457	1.427	1.744	2.314	1.012	0.862	1.634	1.223	1.345	0.990	2.265	1.584	1.778	1.081	1.244	1.733	1.748	1.466	1.261	2.265	1.204	1.068	1.001	0.852	1.154	0.798	1.099
365.0	345.1	482.6	527.8	518.8	498.7	447.7	505.6	432.7	461.8	436.2	458.4	476.4	502.9	488.2	447.3	395.3	343.8	303.3	283.1	252.1	286.9	340.2	203.1	135.2	114.7	144.6	250.1	 1301	 7466	9999.9	 5600	66.82	11.35	7.694	4.725	4.652	3.544	3.100	2.784	2.886	1.932	1.813	1.301	2.324	2.169	2.434	1.895	1.410	2.408	1.533	1.088	1.726	2.357	1.909	1.473	1.037	1.433	1.532	0.901	1.740	1.689	0.895	1.311	1.145	1.493	1.724	1.542	1.361	1.147	0.885	1.863	1.541	1.123	0.825	1.106	0.973	1.537
370.0	345.2	462.2	547.9	534.5	490.6	493.6	508.3	459.5	454.4	440.7	475.7	462.8	483.5	484.9	457.7	409.5	372.4	337.6	307.2	285.5	268.4	306.8	305.3	200.0	132.6	113.1	118.7	338.1	 1840	 6939	9999.9	 5464	83.93	12.80	7.614	4.956	4.401	3.377	3.743	2.378	2.449	2.250	1.432	2.329	1.743	2.206	1.798	1.492	1.683	1.608	1.231	2.046	2.114	1.132	1.829	1.462	1.210	1.343	0.856	1.281	1.851	1.520	1.377	1.220	1.260	2.061	1.716	1.432	1.284	0.549	1.157	1.150	1.101	1.054	0.738	1.227	1.231
375.0	340.2	452.8	515.6	526.6	545.5	480.5	520.8	469.0	448.9	466.1	484.0	465.6	470.9	457.4	443.2	425.9	386.5	358.5	345.1	315.0	290.1	277.5	298.8	308.6	188.4	128.6	102.3	136.3	453.0	 1585	 4192	9999.9	 8250	111.7	11.02	7.756	5.592	4.332	4.207	3.101	3.350	2.507	2.093	1.227	2.383	2.141	2.434	1.297	1.370	1.499	1.406	2.078	1.751	1.884	1.756	1.556	1.796	0.805	0.594	0.996	1.204	1.450	1.125	1.030	1.718	1.585	1.123	1.584	1.536	1.211	1.304	1.133	1.147	0.744	1.331	1.532	1.105
380.0	395.4	390.4	488.4	553.8	553.7	559.3	495.9	510.4	451.2	461.9	479.6	452.2	470.1	452.4	441.0	431.3	381.8	368.0	351.7	332.8	312.5	293.7	280.2	322.9	271.2	156.7	112.9	102.8	154.3	394.7	996.7	 5988	9999.9	 6408	77.13	10.45	6.419	6.535	4.064	3.490	3.673	2.135	2.787	1.413	2.107	2.141	1.668	1.380	1.107	0.914	1.044	2.123	2.313	1.666	1.642	1.059	1.688	1.432	1.567	1.681	1.214	0.855	1.063	1.253	2.696	0.887	1.398	1.136	1.432	0.748	1.546	0.742	0.705	1.042	1.386	1.260	1.542
385.0	413.0	389.2	464.8	516.8	544.6	520.0	487.6	489.1	482.6	447.7	451.0	453.9	451.0	452.1	435.2	416.1	390.4	388.6	367.4	345.1	326.1	302.4	278.4	284.0	317.6	211.1	133.5	107.7	100.1	137.5	261.6	 1485	 8434	9999.9	 1033	39.74	8.426	6.440	4.379	2.822	3.341	3.533	2.423	2.490	1.551	2.076	2.340	1.776	1.545	1.471	1.760	1.906	1.067	1.201	1.433	1.514	1.740	1.966	1.552	1.091	1.373	0.917	1.325	0.888	2.574	1.039	1.516	0.364	1.039	0.754	1.475	1.746	0.577	0.663	0.916	1.601	1.720
390.0	354.7	436.5	459.9	523.4	543.6	515.6	516.4	496.9	481.0	465.8	446.0	460.0	453.4	437.9	433.9	430.0	399.8	391.9	375.3	357.5	337.5	317.6	290.1	266.0	280.2	279.6	185.3	129.8	102.9	94.31	105.3	367.0	 2120	 7204	9999.9	 4060	60.74	10.23	7.289	5.327	3.730	3.303	3.121	2.268	2.265	2.101	2.072	2.132	1.783	1.854	1.455	1.499	1.265	1.514	1.470	1.196	1.899	1.173	1.580	1.240	1.166	1.123	1.421	0.836	1.953	1.736	1.998	0.872	1.309	1.093	1.536	1.673	0.599	1.270	1.171	1.482	1.698
395.0	362.7	465.8	507.3	526.2	498.5	518.0	509.8	479.8	457.5	471.0	445.3	445.9	441.9	448.3	430.1	434.5	395.9	386.7	379.2	366.2	348.8	324.5	295.7	277.2	258.1	267.6	270.8	175.5	124.7	100.9	84.22	129.2	503.9	 1639	 4486	9999.9	 6318	81.61	9.491	7.173	4.825	3.941	2.998	2.946	2.646	2.669	2.511	2.345	2.086	2.170	1.689	1.844	1.462	1.436	1.874	1.429	1.482	2.602	1.228	1.900	1.343	1.969	1.445	1.219	1.594	1.172	1.898	1.140	1.385	1.560	0.764	1.118	0.652	1.027	1.080	1.923	1.381
400.0	311.2	449.5	485.6	518.3	517.2	508.5	479.5	493.6	473.2	445.8	427.8	441.9	433.5	424.6	432.4	414.3	391.8	389.6	376.1	370.3	354.1	326.6	304.7	281.5	262.9	244.5	269.5	238.3	151.5	113.6	88.71	83.23	151.2	395.0	 1066	 6420	9999.9	 4708	54.69	9.564	5.217	4.512	4.071	3.351	2.619	2.234	2.876	2.510	1.464	2.087	1.697	2.017	1.466	1.548	2.468	1.467	1.079	1.372	1.374	1.368	1.490	1.502	1.297	1.622	1.081	1.154	1.501	1.329	1.750	1.345	1.767	0.863	1.185	1.626	1.617	0.987	0.590
405.0	326.8	408.6	436.1	518.0	510.3	480.6	471.0	483.3	432.2	460.7	460.9	446.4	442.0	416.5	420.6	403.0	392.1	379.8	373.8	360.5	347.0	332.6	310.3	292.1	264.1	247.6	244.5	266.8	191.1	129.1	97.38	78.97	80.11	120.5	265.9	 1632	 8272	9999.9	857.8	31.41	7.991	5.593	4.410	2.267	2.589	3.113	2.814	2.852	1.424	1.996	2.022	1.620	1.730	1.483	1.950	0.865	1.513	1.462	1.421	1.207	1.478	0.965	2.022	1.201	1.324	1.249	2.022	1.220	1.543	1.475	1.513	0.624	1.295	1.899	1.288	0.652	0.240
410.0	317.6	381.2	458.3	495.2	465.7	482.4	471.1	495.8	469.4	464.5	451.1	452.8	426.2	407.6	405.4	392.4	379.0	363.5	358.0	351.9	345.6	332.6	313.9	293.6	272.3	255.6	230.7	242.7	237.0	172.8	119.0	89.77	72.09	67.19	89.49	386.4	 2115	 7080	9999.9	 3592	52.84	8.228	5.567	3.969	3.451	2.992	2.542	2.500	2.266	1.799	1.567	1.767	1.682	2.051	1.526	1.687	1.729	1.523	1.066	1.375	1.546	0.913	1.830	1.510	1.207	1.611	1.474	1.389	1.577	1.571	1.612	1.418	1.092	1.250	1.229	0.766	0.981
415.0	249.1	381.1	429.6	443.2	483.1	483.5	465.2	506.8	471.0	452.7	456.1	426.8	434.0	402.5	394.2	381.7	351.1	357.0	342.0	338.8	324.5	329.7	311.3	291.5	278.1	255.6	236.4	222.6	223.8	230.5	155.6	104.3	79.88	63.07	55.36	112.3	491.8	 1607	 4425	9999.9	 5394	73.40	7.371	6.163	4.448	3.010	2.209	2.880	2.725	2.003	1.795	1.897	1.515	1.725	1.855	1.454	1.592	1.221	1.130	1.972	2.043	1.623	1.212	1.473	1.470	1.674	1.231	1.112	1.321	0.863	2.333	1.352	0.970	1.400	1.048	0.784	0.701
420.0	292.1	351.5	415.9	480.8	459.8	491.5	462.7	483.8	453.0	466.5	429.4	433.4	419.6	385.4	372.7	364.0	346.0	334.2	332.3	331.3	318.9	321.1	306.5	295.3	276.6	257.2	237.7	223.5	211.0	225.7	198.9	122.6	90.95	67.28	51.52	54.10	133.4	374.4	 1056	 5899	9999.9	 4095	47.10	7.203	4.609	3.642	3.107	2.285	2.674	1.965	1.953	1.886	1.673	2.224	1.611	1.219	1.632	1.811	1.250	1.807	1.414	2.011	0.823	1.111	0.855	1.308	0.707	1.453	1.484	1.458	2.168	0.447	1.063	1.530	1.113	1.164	1.258
425.0	253.9	341.2	386.4	446.7	410.2	463.5	450.6	478.6	439.0	464.4	433.1	429.6	404.5	393.5	386.7	350.4	330.3	332.4	321.8	323.3	305.1	307.8	296.3	287.5	273.0	263.9	243.0	219.7	207.4	202.4	215.1	151.5	98.05	74.56	54.89	45.68	54.34	103.5	251.4	 1501	 7415	9999.9	778.7	20.87	5.704	5.548	3.968	3.181	2.187	2.048	1.780	1.443	1.278	2.618	1.687	1.689	1.756	1.214	1.432	1.767	0.828	0.875	1.111	1.832	1.572	1.281	0.807	1.093	1.288	1.182	1.927	0.537	1.188	0.951	1.206	1.084	1.551
430.0	404.9	338.7	387.0	451.0	431.6	451.3	459.0	461.2	453.8	446.3	427.7	415.7	391.6	380.8	366.3	334.2	320.8	311.5	306.9	305.3	298.3	293.7	284.6	275.8	265.6	258.3	239.7	225.0	206.2	192.8	192.2	184.4	128.3	86.70	63.37	47.91	44.19	46.15	74.03	350.6	 1880	 6132	 7809	 3102	46.46	7.873	5.208	4.208	3.003	2.718	1.806	1.806	1.769	2.421	0.942	1.643	1.519	1.179	1.476	1.845	1.265	1.608	1.137	1.800	1.726	0.631	1.059	0.930	0.685	0.688	1.312	1.273	1.265	1.053	1.349	1.219	1.342
435.0	900.8	382.1	351.7	428.3	437.3	423.5	433.3	460.9	417.9	435.5	442.7	391.7	391.9	365.8	334.8	325.6	308.2	305.7	287.8	288.2	291.4	277.5	274.3	272.2	261.0	253.4	240.4	227.9	212.8	193.8	174.5	171.7	160.7	111.8	73.34	54.30	47.92	38.85	39.63	94.86	433.5	 1388	 3772	9999.9	 4748	60.74	5.968	5.621	3.548	2.901	3.137	2.074	2.181	2.591	2.207	1.751	1.768	1.446	1.882	1.643	1.432	1.716	0.910	0.952	1.549	0.810	0.922	1.732	0.877	1.350	1.351	1.603	1.279	0.714	1.597	1.771	1.856
440.0	 1347	702.2	362.4	370.6	415.0	396.7	394.1	432.2	427.3	416.8	407.6	399.4	383.2	351.0	334.8	315.0	291.9	293.8	278.1	281.1	277.2	269.3	265.8	269.5	253.7	242.9	236.1	223.0	206.9	192.8	176.0	157.7	161.8	138.7	84.82	59.97	52.97	39.65	33.59	40.03	110.1	322.2	904.5	 5871	9999.9	 3430	36.08	6.612	4.317	2.909	2.664	2.699	1.769	2.002	1.443	1.773	1.590	1.682	1.344	1.895	1.357	1.325	1.328	1.693	1.344	1.497	1.291	1.128	1.016	1.170	0.443	1.145	0.827	0.735	0.902	2.007	1.200
445.0	 1509	 1199	365.4	357.7	385.0	391.4	408.8	408.0	413.9	440.9	400.5	397.4	364.6	348.9	322.2	300.4	279.9	279.3	267.0	271.5	258.8	258.5	256.6	253.0	244.2	240.1	230.5	224.2	205.8	194.2	174.0	152.5	143.3	147.5	103.5	64.10	55.08	41.52	33.45	29.89	40.76	85.37	216.7	 1515	 7362	9999.9	623.3	18.39	5.250	4.782	3.050	3.060	2.043	2.444	2.188	1.807	1.660	2.565	1.823	2.343	1.036	1.201	1.996	1.327	1.045	1.428	1.594	1.381	0.936	1.574	1.424	1.035	0.607	1.138	1.187	1.014	1.141
450.0	739.5	 1894	758.5	331.7	361.9	359.5	401.6	395.0	413.0	410.9	398.4	373.8	359.4	337.4	309.0	287.2	267.8	256.0	251.6	253.2	245.9	245.9	243.1	238.5	232.6	234.3	222.8	212.4	202.7	192.0	171.9	152.8	132.7	129.7	120.8	86.86	59.71	47.19	38.40	31.46	30.03	35.16	61.35	350.3	 1886	 6528	 9360	 2700	36.39	6.149	4.251	3.811	2.716	2.766	2.747	2.332	2.030	1.943	1.691	2.044	1.949	2.201	1.520	0.824	1.830	1.041	0.964	1.386	0.909	0.709	1.257	0.699	1.020	1.272	0.945	0.990	0.188
455.0	337.8	 1426	 2010	422.2	357.6	349.4	364.5	377.3	397.5	384.2	379.5	383.1	346.2	320.9	291.7	268.9	249.4	232.7	224.4	236.7	226.2	220.4	227.5	220.3	216.2	212.7	209.7	200.3	193.5	183.7	169.0	152.6	128.9	113.8	107.6	104.4	75.93	51.92	42.09	33.42	28.28	25.17	28.08	90.42	430.1	 1482	 4255	9999.9	 3780	41.70	6.208	4.326	3.192	2.777	2.702	1.895	2.943	1.961	2.224	1.729	1.824	2.167	1.048	1.407	1.528	1.780	0.833	1.730	1.359	1.777	0.718	1.298	0.672	0.873	0.493	1.526	1.151
460.0	294.4	732.4	 2488	814.8	329.3	322.4	368.6	349.5	369.7	367.3	359.6	350.2	332.9	313.2	271.2	258.2	227.4	220.8	216.2	214.9	204.2	208.5	210.9	204.1	201.1	204.5	200.7	188.2	182.7	176.6	162.5	148.3	125.9	110.0	98.32	102.3	88.34	55.41	44.03	35.93	27.89	23.74	21.72	33.27	106.5	341.3	 1022	 5989	9999.9	 2615	29.56	5.204	3.807	3.535	3.397	3.064	2.369	1.826	1.624	1.735	1.703	2.087	1.127	1.779	1.249	1.889	0.583	0.411	1.622	1.403	0.264	1.099	0.415	0.991	0.775	0.729	1.112
465.0	215.8	420.8	 1994	 1714	347.3	332.2	318.0	338.8	353.3	376.8	356.5	344.0	324.3	289.2	259.2	232.5	220.0	208.3	204.2	198.9	190.8	189.4	196.8	190.0	192.1	190.3	186.4	180.7	172.0	167.1	154.3	141.3	121.3	109.0	94.35	88.96	91.53	65.99	48.53	39.39	29.40	24.43	20.07	22.01	36.12	86.95	238.8	 1562	 7498	 9416	506.6	13.64	5.156	3.616	4.088	3.000	2.283	2.112	2.118	1.418	1.953	0.964	1.076	1.653	1.369	1.531	0.880	0.974	1.415	2.319	1.193	0.689	1.018	1.338	0.943	0.776	0.829
470.0	222.0	279.0	888.5	 2335	891.5	293.2	298.3	324.6	328.1	333.8	340.4	309.0	292.3	266.0	237.0	210.5	196.9	191.2	185.6	183.6	178.0	174.0	173.6	172.4	173.7	173.6	166.9	164.6	159.3	154.3	144.9	132.4	115.5	102.2	88.22	77.47	75.65	74.75	56.66	40.34	30.62	26.14	21.53	20.73	21.67	30.71	63.09	358.6	 1929	 6017	 7346	 2243	33.28	5.388	3.894	3.818	2.736	2.980	1.929	1.908	1.212	1.574	2.072	1.894	1.547	1.157	1.252	1.156	0.546	1.266	0.993	0.629	0.847	0.566	0.760	0.526	1.000
475.0	190.9	206.4	419.0	 1609	 2162	312.3	270.8	284.1	296.7	319.8	301.3	269.3	266.6	248.9	209.8	186.0	175.6	178.7	169.4	167.0	159.3	151.5	149.3	154.7	155.7	153.9	152.9	145.7	144.3	139.5	135.3	121.6	107.2	97.21	83.60	72.78	64.33	65.82	62.43	46.98	33.12	27.66	22.17	19.04	16.82	17.69	24.33	87.97	436.8	 1360	 3322	 7865	 3164	45.61	5.336	3.728	2.372	2.754	2.338	1.680	1.589	1.949	1.833	1.505	1.678	0.823	1.458	0.587	0.149	0.772	0.738	0.874	1.001	0.888	2.131	0.712	0.652
480.0	158.1	169.2	227.4	722.0	 2698	752.8	244.5	254.5	262.7	308.2	268.2	265.6	250.0	231.2	202.6	180.0	168.7	159.7	156.9	148.9	146.4	143.9	142.9	144.4	142.0	138.9	142.8	134.1	136.2	133.9	123.8	112.6	104.4	90.80	80.17	69.72	62.15	58.49	60.63	52.59	34.93	28.47	22.89	18.77	17.30	16.47	15.81	27.73	104.7	310.7	795.5	 4470	 8200	634.8	25.78	4.671	3.261	2.506	1.762	1.742	1.544	1.508	0.856	1.719	1.556	1.121	0.894	1.298	0.378	0.590	0.742	0.770	1.049	0.863	0.973	0.745	1.277
485.0	98.85	236.4	233.2	326.6	 2034	 1682	258.3	253.8	247.9	273.3	247.4	259.5	221.7	214.7	192.3	168.7	160.1	153.5	144.6	142.4	134.6	134.5	132.8	131.7	132.5	127.0	129.4	128.8	127.3	124.4	119.8	106.5	96.96	87.47	78.26	67.28	58.74	52.37	53.05	56.72	40.61	30.99	21.87	19.12	17.55	16.65	14.50	14.69	30.85	75.97	184.0	 1168	 5735	 7049	522.5	11.39	3.976	2.634	2.657	2.255	1.611	1.504	1.219	1.018	1.798	1.662	1.457	0.921	1.074	1.287	0.892	1.202	0.936	0.368	0.988	0.789	0.760
490.0	120.7	205.3	205.9	235.1	829.3	 2475	902.6	230.2	240.5	247.0	238.2	235.5	212.5	194.5	178.2	157.2	143.7	139.3	133.9	127.8	125.9	126.1	122.3	119.4	120.9	116.1	118.4	118.4	114.6	112.2	108.2	104.2	92.31	80.72	73.27	65.17	56.40	49.80	46.72	47.45	45.88	34.64	24.14	20.80	17.80	17.00	14.63	12.58	15.13	23.73	47.09	267.1	 1465	 4441	 5649	 2182	34.94	4.321	3.543	2.295	2.707	1.933	1.399	1.438	1.614	1.163	1.059	1.497	0.831	1.113	0.904	0.578	0.710	0.680	0.571	0.742	0.911
495.0	67.24	185.1	166.5	189.3	324.0	 1553	 2234	323.1	226.2	220.3	228.7	213.8	204.1	197.2	166.9	140.0	132.4	128.1	117.3	112.9	110.7	110.5	107.5	110.0	108.4	108.0	104.2	107.5	104.9	101.2	101.5	93.92	85.42	76.70	66.36	62.80	54.09	47.64	43.48	37.78	40.16	39.20	27.96	21.10	19.37	15.19	14.20	12.46	10.99	11.63	16.70	64.21	330.6	 1005	 2777	 7542	 3396	46.21	4.435	3.665	2.164	1.767	1.819	1.081	1.078	0.712	1.541	0.872	0.468	0.747	0.584	0.956	0.513	0.113	0.847	0.269	0.523
500.0	72.90	80.62	192.4	181.4	195.3	644.2	 2690	900.3	204.1	226.6	211.3	201.4	181.5	171.6	156.8	136.2	118.6	112.7	105.5	106.9	98.69	105.2	101.5	98.52	95.39	96.54	96.38	95.21	95.47	95.37	94.14	86.76	79.03	70.20	63.21	57.04	52.48	45.54	39.32	36.20	34.99	37.69	33.77	22.75	16.78	14.57	14.83	11.69	10.38	8.815	9.176	20.23	78.21	229.4	666.0	 4188	 8089	653.8	28.12	3.798	3.091	2.961	2.001	1.775	1.200	0.858	0.985	0.921	0.740	0.993	0.582	0.883	1.069	0.876	0.964	0.272	1.425
505.0	111.9	103.5	188.7	207.5	139.4	300.6	 2079	 1899	220.1	201.7	190.2	187.4	165.1	157.6	134.9	128.8	111.3	107.0	99.38	92.51	93.19	90.21	89.78	90.74	87.76	87.71	89.22	84.62	85.81	87.10	85.72	79.62	72.61	66.33	60.93	53.93	48.83	42.57	36.33	35.53	31.60	31.78	34.12	25.84	18.15	15.96	13.32	11.73	10.40	8.670	8.077	10.05	23.14	55.75	154.9	 1071	 5508	 7041	564.5	10.28	2.944	2.054	1.947	1.586	1.219	0.718	1.061	1.108	0.561	0.978	0.529	0.382	0.431	0.873	0.345	0.203	0.883
510.0	78.08	136.6	129.4	184.5	145.9	164.8	795.3	 2722	 1006	187.1	162.3	175.9	151.9	137.6	124.8	114.9	99.46	92.53	86.90	87.95	79.92	80.02	76.30	77.20	77.75	79.48	79.68	76.70	75.81	80.35	74.91	70.32	65.33	59.57	53.79	48.32	43.76	39.17	33.87	31.55	27.60	24.63	27.88	29.31	22.47	16.69	13.82	11.61	9.755	8.937	7.722	7.303	9.235	16.63	38.62	243.0	 1402	 4335	 5400	 2065	33.59	3.772	2.530	1.735	1.282	0.838	1.282	1.286	0.987	0.517	0.941	0.601	0.383	0.560	0.316	1.146	0.782
515.0	89.35	63.29	109.4	150.6	168.6	120.2	292.9	 1500	 2711	349.1	152.6	147.3	132.6	127.8	115.3	99.17	83.69	79.34	77.29	76.80	67.80	71.24	68.30	67.25	69.70	67.64	65.65	67.27	67.48	68.99	66.88	61.21	56.67	51.09	48.38	42.41	38.23	34.92	32.03	28.81	25.73	21.53	22.34	24.55	25.45	17.25	13.33	11.02	9.475	8.636	6.924	7.633	6.425	7.323	12.48	57.73	316.2	977.2	 2482	 6524	 2981	44.60	3.623	2.231	1.151	0.816	0.932	1.161	1.151	1.019	0.780	0.366	0.380	0.551	0.363	1.348	1.160
520.0	108.5	102.9	137.0	71.61	146.4	155.4	153.2	550.2	 3052	 1122	135.2	125.7	123.7	115.3	99.40	95.09	73.30	74.18	63.19	70.86	65.58	63.48	62.43	60.86	58.07	61.76	59.70	59.83	61.65	62.11	58.74	54.70	51.67	46.33	43.76	39.81	35.59	31.01	29.10	26.29	24.50	21.15	19.71	20.50	23.61	19.56	14.06	10.64	9.130	8.041	6.943	6.464	5.732	5.105	5.546	16.34	73.76	221.9	592.6	 3530	 6522	637.4	24.48	2.170	1.818	1.865	1.683	1.850	0.821	0.560	0.604	0.303	0.733	1.101	0.430	0.154	0.005
525.0	89.33	137.8	96.51	87.87	140.7	135.0	110.9	221.7	 2009	 2545	194.0	106.6	116.3	111.8	90.25	78.65	73.58	72.86	62.23	65.92	56.76	58.43	55.68	55.39	51.87	53.40	54.94	54.22	55.85	55.54	53.51	47.80	48.83	45.04	38.96	37.32	33.29	30.93	27.51	25.68	22.84	20.94	17.18	17.23	19.01	20.60	16.71	10.66	8.909	7.765	7.028	6.101	5.060	5.085	3.637	6.524	20.74	52.27	136.9	889.9	 4226	 5170	535.4	8.272	3.132	1.766	1.626	1.494	0.579	0.485	0.440	0.212	0.325	1.417	0.360	0.135	-0.006
530.0	64.63	66.00	71.60	77.57	101.4	138.3	107.7	122.4	675.2	 2872	 1013	114.0	96.79	98.12	84.11	67.06	63.37	59.27	52.99	52.32	50.72	50.60	50.00	46.93	46.80	48.08	49.51	48.07	48.20	48.77	46.61	43.33	40.56	39.78	35.30	31.80	28.43	27.43	23.80	22.63	19.83	18.49	15.48	15.16	14.95	16.83	17.67	12.41	9.173	6.792	6.768	5.616	4.640	4.299	4.114	5.084	7.631	15.01	33.59	202.5	 1061	 3175	 4368	 1694	31.71	2.924	1.469	1.700	1.293	1.187	0.639	0.456	0.273	1.607	0.354	0.387	0.071
535.0	-2.122	69.69	70.22	70.72	70.80	108.0	102.3	82.43	225.9	 1306	 3003	358.7	89.27	78.78	72.51	64.50	49.79	51.51	46.43	45.31	42.77	44.06	42.51	43.24	38.11	41.95	41.31	39.32	42.09	39.67	42.27	37.14	33.72	33.01	31.12	26.55	24.95	23.18	20.74	18.63	15.83	16.08	14.51	12.59	12.49	13.18	14.58	13.85	9.620	6.478	6.873	5.431	4.552	4.625	4.166	4.054	4.329	5.765	10.60	47.39	239.0	715.7	 1866	 4864	 2233	39.37	2.460	1.666	1.648	1.437	1.197	1.062	1.138	1.038	0.256	0.344	0.206
540.0	-3.866	39.30	59.00	87.00	58.20	100.3	106.2	90.47	112.4	422.8	 3120	 1098	78.93	65.48	60.60	58.99	46.00	49.27	40.53	36.99	43.26	38.87	36.54	38.56	37.75	37.14	35.50	36.93	36.55	33.27	35.25	33.61	31.85	29.19	28.07	24.02	22.22	21.74	17.77	16.88	14.88	14.73	13.12	11.38	11.40	10.86	11.96	14.04	10.42	6.965	5.556	5.241	4.172	4.517	3.615	3.655	3.183	2.821	4.652	13.30	55.69	162.4	440.5	 2503	 4896	618.1	19.55	2.003	1.775	0.998	1.168	1.173	1.162	0.881	-0.421	-0.296	-0.642
545.0	-4.419	24.72	42.20	62.56	48.65	72.61	102.1	82.37	79.38	169.2	 1851	 2740	161.2	60.13	57.83	48.41	42.70	40.53	39.04	35.92	34.18	33.27	33.57	34.46	33.65	34.37	31.08	30.53	34.41	31.60	30.66	30.84	29.92	25.93	24.03	22.86	20.01	19.46	18.00	15.72	13.82	13.66	12.02	10.75	10.40	10.36	8.588	11.55	10.83	7.533	5.238	4.556	3.937	3.448	3.071	3.943	3.304	3.578	3.955	5.221	15.11	38.88	101.5	630.2	 3188	 4036	470.1	5.348	2.036	0.944	1.736	0.785	1.199	0.886	0.607	-0.069	-0.035
550.0	28.69	16.87	63.69	62.24	64.16	55.33	83.09	100.2	53.46	92.62	573.5	 2807	 1353	64.98	46.36	42.09	35.89	33.17	31.00	30.76	28.57	28.59	27.17	28.11	26.78	27.86	26.80	25.77	25.84	27.18	24.84	25.92	24.39	22.56	20.52	19.19	17.73	16.12	14.67	13.88	12.38	11.61	10.26	9.445	8.944	8.575	7.606	8.085	9.453	9.089	6.416	4.157	3.648	3.473	2.657	3.284	3.556	3.240	3.266	4.114	5.691	11.32	25.00	143.6	804.2	 2442	 3186	 1116	27.38	1.839	1.433	1.066	0.608	0.774	0.857	-0.033	0.128
555.0	22.13	37.89	17.43	59.50	64.24	37.50	57.85	84.53	77.75	75.43	198.6	 1126	 2974	350.9	43.99	32.63	29.34	24.78	25.98	24.60	24.25	24.28	23.84	21.35	21.38	21.61	21.54	22.20	22.04	21.22	21.02	23.11	19.28	19.54	18.03	15.16	14.24	13.00	11.63	11.38	10.38	8.959	9.159	7.510	7.215	6.835	6.330	5.286	7.173	7.673	7.094	4.702	3.172	3.034	2.455	3.372	3.419	2.568	3.188	3.449	2.771	5.543	8.339	34.89	182.0	550.8	 1419	 3421	654.9	29.15	1.819	0.636	0.954	0.760	0.428	0.361	-0.047
560.0	18.08	52.36	36.02	45.60	41.80	26.69	56.99	97.66	87.51	79.05	126.6	369.9	 2757	860.0	35.75	29.03	28.28	26.48	20.73	20.46	21.07	20.49	19.13	15.94	18.44	19.32	18.75	18.94	18.97	18.13	19.76	17.08	15.44	16.22	14.48	13.47	12.02	11.89	10.11	10.29	8.553	8.072	8.599	6.238	6.453	5.191	5.578	5.463	5.364	5.323	6.384	5.678	2.700	2.652	2.554	3.396	3.272	3.387	2.153	3.413	2.585	4.284	4.258	10.67	43.97	125.6	340.1	 1902	 3057	533.8	8.323	0.802	0.844	0.768	0.061	0.056	0.335
565.0	45.43	14.87	36.97	51.16	11.73	53.60	33.75	71.58	117.1	93.83	117.3	174.4	 1509	 2521	120.9	25.25	26.16	24.20	18.76	16.53	19.83	16.64	19.33	14.22	16.82	15.56	16.33	17.93	16.50	15.27	15.71	14.91	13.31	13.43	13.20	11.77	10.96	10.44	8.689	7.588	7.294	7.334	6.255	6.345	5.493	4.788	5.168	4.398	4.395	3.970	4.800	5.094	2.998	2.755	1.976	2.604	2.660	2.584	2.055	2.660	2.726	3.687	3.739	4.704	13.24	31.00	78.64	493.8	 2216	 2541	78.04	2.654	0.913	0.649	0.229	0.427	0.398
570.0	113.8	31.65	36.65	29.03	22.19	28.55	55.67	61.49	106.5	115.0	117.8	135.9	467.2	 2434	 1156	32.76	20.61	19.88	16.25	14.98	14.89	13.78	16.82	13.46	13.77	14.34	13.22	12.82	13.81	13.70	12.40	12.64	10.62	11.22	10.57	10.16	8.305	8.057	7.009	6.755	6.029	5.902	5.752	5.092	4.923	4.197	4.364	3.906	3.169	3.812	3.247	4.791	4.053	3.320	2.396	2.059	2.495	2.389	2.670	2.968	2.450	3.602	2.945	3.670	5.765	9.483	19.76	112.7	574.7	 1627	 1918	364.0	20.29	0.742	0.431	0.434	-0.052
575.0	91.85	42.92	19.59	10.12	17.09	33.70	63.78	58.37	117.2	139.1	126.4	126.9	177.4	889.2	 2581	279.8	19.86	18.56	16.56	12.57	11.67	9.275	9.559	11.91	11.11	11.75	10.27	9.151	9.487	9.706	8.958	11.25	9.915	8.876	8.432	7.922	6.717	6.066	5.964	5.439	5.027	5.419	4.650	4.588	3.516	3.866	3.337	2.941	3.032	3.191	3.059	3.109	3.733	3.782	2.778	1.767	1.849	2.177	2.759	2.911	2.996	3.742	3.226	3.122	2.890	4.402	6.782	26.67	129.8	368.9	938.1	 2072	567.1	16.15	0.656	0.567	0.013
580.0	35.75	80.17	77.77	13.29	26.58	35.50	31.48	52.46	85.08	162.3	156.7	129.4	115.3	257.2	 2272	 1123	18.06	12.96	13.07	12.41	11.73	9.134	7.393	9.006	8.177	8.843	8.566	7.020	8.866	9.655	8.084	8.307	8.968	7.906	6.089	6.443	6.252	5.627	5.947	5.371	4.279	3.581	3.500	3.914	3.235	3.089	2.699	3.777	2.429	2.921	2.328	2.406	2.813	3.824	2.270	2.204	1.341	2.158	2.217	2.626	2.108	2.303	2.964	1.995	2.379	2.625	3.430	7.524	31.06	84.04	229.5	 1238	 1921	403.9	4.917	0.449	0.066
585.0	75.59	100.1	27.69	48.65	23.52	31.04	35.90	35.29	73.11	144.9	163.0	134.8	91.15	87.11	 1132	 2105	83.08	13.89	9.192	14.82	8.933	8.668	7.888	8.733	8.385	9.412	7.917	8.094	7.717	8.174	8.785	6.937	7.358	7.439	5.548	5.107	6.321	5.229	4.602	4.371	4.817	4.888	3.209	3.010	2.732	2.644	2.242	2.466	2.219	2.163	2.297	1.716	1.577	2.896	2.960	2.360	1.190	2.510	2.198	1.812	2.201	1.405	1.887	1.957	2.491	1.803	2.492	2.876	8.933	20.33	53.09	329.3	 1449	 1570	72.43	1.884	0.752
590.0	66.30	100.5	40.49	36.19	21.53	28.70	23.95	42.00	59.06	132.2	168.1	136.4	86.86	50.74	310.6	 1834	852.3	15.47	8.172	9.593	8.579	7.729	7.752	5.785	6.454	6.683	6.124	5.993	5.984	7.118	5.935	5.106	6.363	5.667	4.924	4.675	4.876	3.937	3.697	3.321	3.522	3.310	2.124	2.910	2.251	2.239	2.104	1.994	1.671	1.713	1.762	1.466	1.561	2.131	2.245	2.279	1.738	1.737	1.720	1.925	2.275	1.699	1.651	1.997	1.802	1.699	1.730	2.113	3.352	5.743	13.30	74.61	385.2	 1075	 1015	327.1	15.01
595.0	36.05	54.18	30.27	23.66	1.270	21.60	36.21	32.17	59.60	126.1	163.3	139.5	79.29	40.50	90.80	642.7	 1822	203.4	9.579	9.952	8.996	6.460	5.786	5.318	5.657	5.303	5.303	4.807	4.948	5.897	5.146	4.724	5.827	3.578	3.724	3.816	3.237	3.015	2.800	3.294	2.619	2.557	2.232	2.418	2.499	2.304	2.123	2.250	1.523	1.885	1.406	1.224	1.136	1.973	1.990	1.869	1.835	1.785	1.464	1.713	1.433	1.737	2.178	2.343	1.028	1.474	1.044	2.290	2.051	1.883	3.447	16.96	86.44	244.3	587.7	 1338	441.1
600.0	34.76	35.29	39.03	51.49	2.978	21.45	35.62	19.15	50.06	99.36	139.9	134.1	79.93	31.71	34.78	170.7	 1583	816.8	13.84	7.614	7.030	5.693	4.984	6.103	3.581	4.031	3.551	3.912	4.871	4.611	4.366	3.599	4.300	4.621	3.958	3.391	4.027	2.032	1.035	3.297	2.617	1.974	1.808	1.953	1.717	1.650	1.670	1.191	1.600	1.351	1.215	0.712	0.814	1.187	1.185	1.808	1.691	1.851	1.068	1.660	1.415	1.498	1.748	1.880	1.236	1.903	1.904	1.522	1.251	2.176	1.709	4.333	19.87	54.90	147.6	839.9	 1229
605.0	81.14	9.500	35.58	-0.326	1.320	9.142	30.15	29.37	43.52	68.94	111.5	138.6	82.86	34.70	22.34	47.28	781.9	 1531	59.91	4.972	6.631	6.851	4.067	4.522	4.233	3.768	4.548	2.527	4.646	4.028	4.320	3.997	3.115	3.416	3.743	2.228	3.315	1.471	1.873	2.328	2.476	2.136	1.492	1.295	1.206	1.272	1.473	1.102	1.705	0.812	0.810	0.594	0.614	1.012	0.698	1.420	1.855	1.296	1.320	1.726	1.684	1.104	1.551	1.680	2.235	1.476	1.666	1.219	0.914	1.316	0.812	1.987	4.811	13.56	33.91	231.4	956.7
610.0	53.10	32.25	21.17	-4.052	15.89	9.646	11.56	18.15	39.83	72.27	84.57	109.9	84.74	32.29	20.51	21.33	212.9	 1321	646.2	10.13	6.613	6.215	3.876	4.011	3.433	3.629	3.390	2.433	4.076	4.074	4.071	3.254	2.113	2.940	3.314	2.479	2.984	1.717	1.960	1.928	1.582	1.429	1.796	1.965	1.803	1.146	1.266	0.883	1.226	0.895	0.809	0.797	0.692	0.674	0.836	1.038	1.635	1.571	1.412	0.766	0.941	1.437	1.058	0.803	1.796	0.952	1.199	0.883	1.336	0.597	0.979	0.977	1.819	3.545	8.021	52.53	258.8
615.0	47.94	55.39	25.55	-0.353	28.97	-2.499	7.175	25.13	35.90	51.69	62.85	75.66	94.13	39.32	19.74	11.80	56.51	464.1	 1404	146.8	5.547	5.654	3.930	4.694	1.866	4.289	1.232	2.718	3.072	2.041	3.972	2.409	2.557	1.900	3.027	2.224	1.811	2.435	1.993	1.133	0.199	1.261	0.758	1.513	1.324	1.150	1.167	0.648	0.823	0.986	0.589	0.818	1.331	1.122	0.755	0.518	0.845	1.376	1.700	1.052	1.034	0.504	1.433	0.708	1.289	0.597	1.175	0.772	0.446	0.584	1.333	0.354	0.402	1.438	2.390	11.75	58.11
620.0	66.09	73.60	47.63	0.476	25.74	8.576	17.74	15.04	34.56	50.72	55.23	80.85	78.44	39.79	21.41	12.64	20.72	118.6	 1250	626.0	6.291	7.187	2.578	2.695	1.009	2.454	2.481	4.158	2.609	3.018	3.090	2.811	3.147	2.406	2.398	2.045	2.310	1.893	2.660	1.052	1.031	1.456	1.442	1.120	1.156	1.026	0.890	0.281	0.715	1.066	0.874	0.561	1.368	0.473	0.741	0.468	0.444	1.260	0.839	1.695	1.509	0.821	0.558	0.990	0.461	0.778	0.703	1.251	0.675	1.073	1.036	0.121	0.800	1.043	0.846	2.761	13.73
625.0	50.54	57.07	0.333	-0.783	19.52	10.46	16.49	16.63	31.43	53.21	63.40	69.02	58.24	48.39	16.87	13.37	10.75	32.61	647.6	 1198	42.30	6.813	4.363	2.547	2.490	1.338	2.385	3.218	2.782	0.702	2.478	2.104	3.049	2.961	1.924	2.105	0.792	2.271	2.825	1.425	1.492	1.364	1.733	0.038	1.103	0.737	0.991	0.941	0.717	0.745	0.749	0.496	0.795	0.822	0.609	0.593	-0.065	0.735	1.219	0.966	0.943	0.927	0.428	0.514	0.602	0.489	1.269	1.116	1.193	0.636	1.011	0.920	0.234	0.378	0.643	0.703	2.719
630.0	21.87	36.76	3.578	10.68	15.67	11.40	17.34	20.71	26.72	43.82	55.96	57.49	53.28	49.29	21.48	11.66	11.59	12.79	177.4	 1113	508.7	8.087	3.816	1.653	1.765	2.236	1.377	1.887	2.532	0.864	2.136	1.397	2.032	1.242	1.307	1.730	1.460	1.066	0.857	0.560	1.584	0.795	1.301	1.075	0.738	0.839	0.795	0.879	0.504	0.742	0.600	0.467	0.497	0.339	0.687	0.827	0.381	0.153	0.650	0.841	0.550	0.441	0.660	0.199	0.605	1.010	0.643	0.936	1.018	0.462	0.553	0.328	0.538	0.126	0.353	0.547	0.897
635.0	-1.953	47.17	25.18	30.39	17.23	15.51	5.393	20.68	33.73	45.75	43.58	50.66	42.26	37.61	32.51	12.93	6.516	5.584	43.19	403.8	 1174	112.3	3.109	2.530	2.034	0.722	1.785	1.827	1.984	2.098	1.951	0.847	2.596	1.726	1.477	1.218	1.315	1.554	0.308	1.328	1.658	1.450	0.987	0.931	0.778	0.407	0.857	0.755	0.774	0.817	1.032	0.769	0.209	0.607	0.270	1.036	0.604	0.710	0.979	0.207	0.776	1.398	0.775	0.361	0.429	0.230	0.237	1.202	0.050	1.208	0.683	0.265	0.500	0.272	-0.318	-0.732	0.242
640.0	17.14	26.47	56.55	14.70	3.789	27.22	19.97	6.952	29.45	33.52	43.01	46.64	39.25	34.64	39.44	15.20	8.181	7.348	14.57	104.6	 1072	485.6	2.505	2.709	2.298	1.680	0.973	2.244	1.470	1.400	1.748	1.767	2.035	1.598	1.515	0.516	1.703	3.210	1.222	0.542	0.671	1.136	0.254	0.377	0.294	0.192	0.714	0.802	0.469	0.429	0.941	1.028	-0.045	0.238	0.400	0.974	0.603	-0.170	0.914	0.772	0.841	0.182	0.523	-0.020	1.101	0.077	0.287	0.247	0.396	0.914	0.189	0.419	0.870	0.103	-0.369	-0.756	0.499
645.0	53.65	51.02	41.19	-16.24	19.54	16.96	2.755	17.94	5.768	26.72	37.27	41.97	33.83	29.78	34.04	22.19	11.93	3.762	5.925	28.32	571.1	962.7	28.89	2.125	2.219	1.088	1.692	2.657	1.161	1.355	2.003	1.505	1.235	1.848	2.510	1.854	2.678	1.932	1.486	0.923	0.627	0.672	0.538	1.002	0.072	0.644	0.227	1.407	0.293	0.187	0.773	0.319	-0.597	0.391	-0.424	0.084	-0.242	0.320	0.283	-0.038	0.292	0.432	0.278	0.081	0.528	0.321	0.207	0.374	0.504	0.383	-0.389	0.530	0.028	0.199	0.284	0.235	-0.455
650.0	6.760	22.42	23.15	14.23	22.98	7.969	19.03	15.27	18.10	20.05	27.95	34.97	27.27	19.30	24.64	24.98	8.420	6.115	3.909	7.332	180.1	 1086	182.0	1.392	2.825	1.092	1.523	1.850	1.467	1.198	4.052	1.722	2.767	2.996	2.022	1.544	2.788	2.310	1.174	0.532	0.726	0.773	1.079	0.957	0.834	0.311	-0.166	0.773	-0.027	0.132	0.458	0.457	-0.011	0.452	-0.132	0.304	0.166	0.342	0.936	0.195	-0.224	0.528	0.912	0.043	0.073	0.383	0.373	0.419	0.297	0.526	0.162	-0.027	0.237	0.415	-0.343	-0.123	-0.482
