Sample:	'1
File name:	T2025032006º«µêºÓ6.FD3
Run date:	'09:56:21, 03/21/2025
Operator:	Administrator
Comment:	'

Instrument
Model:	F-2700 FL Spectrophotometer
Serial number:	23B8-004
ROM Version:	4J14000 07

Instrument parameters
Measurement type:	3-D scan
Data mode:	Fluorescence
EX  Start WL:	220.0 nm
EX  End WL:	600.0 nm
EX Sampling interval:	5.0 nm
EM  Start WL:	230.0 nm
EM  End WL:	650.0 nm
EM Sampling interval:	5.0 nm
Scan speed:	12000 nm/min
EX Slit:	5.0 nm
EM Slit:	5.0 nm
PMT Voltage:	700 V
Response:	Auto 
Corrected spectra:	Off
Contour interval:	50.000

Peak integration
Integration method:	Rectangular
Sensitivity:	1
Threshold:	1.000

Peaks
No.	ApexEX/EM(nm)	Height(Data)
1	225.0/335.0	535.1
2	225.0/425.0	239.4
3	225.0/490.0	245.4
4	225.0/575.0	33.89
5	230.0/500.0	224.3
6	235.0/255.0	379.8
7	235.0/515.0	177.1
8	240.0/265.0	442.9
9	240.0/525.0	169.2
10	245.0/270.0	437.5
11	245.0/535.0	150.7
12	250.0/275.0	563.2
13	250.0/435.0	223.2
14	250.0/550.0	128.7
15	255.0/280.0	630.5
16	255.0/565.0	121.2
17	260.0/290.0	560.1
18	260.0/575.0	98.75
19	265.0/585.0	88.39
20	270.0/300.0	823.3
21	270.0/385.0	181.1
22	270.0/600.0	76.08
23	275.0/305.0	803.2
24	275.0/610.0	58.01
25	280.0/310.0	633.7
26	280.0/625.0	51.01
27	285.0/315.0	637.3
28	285.0/635.0	37.47
29	290.0/325.0	581.4
30	295.0/330.0	437.3
31	300.0/335.0	398.8
32	305.0/340.0	331.8
33	310.0/350.0	261.0
34	315.0/355.0	248.3
35	320.0/360.0	243.3
36	325.0/370.0	202.2
37	330.0/375.0	196.5
38	335.0/380.0	201.9
39	345.0/395.0	156.8
40	350.0/400.0	161.3
41	355.0/405.0	142.8
42	360.0/415.0	122.5
43	365.0/420.0	125.5
44	370.0/425.0	110.5
45	380.0/440.0	85.31
46	385.0/445.0	75.31
47	395.0/460.0	54.58
48	400.0/465.0	46.52
49	415.0/485.0	28.22
50	420.0/490.0	23.63
51	425.0/495.0	20.88
52	430.0/505.0	17.85
53	435.0/510.0	15.29
54	440.0/520.0	13.70
55	445.0/525.0	11.84
56	455.0/540.0	7.808
57	460.0/545.0	6.663
58	470.0/560.0	4.045
59	475.0/260.0	1.897
60	485.0/265.0	2.402
61	495.0/270.0	2.141
62	505.0/275.0	3.469
63	510.0/280.0	3.551
64	520.0/285.0	3.975
65	530.0/290.0	3.601
66	540.0/295.0	4.551
67	545.0/300.0	4.676
68	550.0/305.0	4.455
69	560.0/310.0	3.512
70	575.0/315.0	3.695
71	580.0/320.0	3.888
72	585.0/325.0	3.804

Data points
	220.0	225.0	230.0	235.0	240.0	245.0	250.0	255.0	260.0	265.0	270.0	275.0	280.0	285.0	290.0	295.0	300.0	305.0	310.0	315.0	320.0	325.0	330.0	335.0	340.0	345.0	350.0	355.0	360.0	365.0	370.0	375.0	380.0	385.0	390.0	395.0	400.0	405.0	410.0	415.0	420.0	425.0	430.0	435.0	440.0	445.0	450.0	455.0	460.0	465.0	470.0	475.0	480.0	485.0	490.0	495.0	500.0	505.0	510.0	515.0	520.0	525.0	530.0	535.0	540.0	545.0	550.0	555.0	560.0	565.0	570.0	575.0	580.0	585.0	590.0	595.0	600.0
230.0	81.84	1080	2343	578.6	16.55	3.234	2.752	2.447	1.896	1.511	1.683	1.481	1.212	0.981	0.882	0.711	0.620	0.538	0.532	0.421	0.395	0.393	0.344	0.334	0.325	0.244	0.255	0.244	0.255	0.226	0.194	0.223	0.190	0.198	0.220	0.146	0.157	0.157	0.148	0.199	0.467	0.733	0.691	0.301	0.160	0.171	1.147	4.476	6.757	3.980	1.219	0.258	0.115	0.106	0.113	0.088	0.106	0.091	0.103	0.104	0.089	0.117	0.107	0.097	0.099	0.096	0.106	0.085	0.099	0.094	0.100	0.089	0.086	0.116	0.113	0.099	0.108
235.0	191.1	315.3	1457	2091	476.3	24.53	3.786	2.934	2.047	1.841	1.995	1.469	1.417	1.284	1.034	0.639	0.791	0.559	0.507	0.440	0.389	0.397	0.338	0.368	0.303	0.345	0.232	0.229	0.231	0.264	0.215	0.222	0.171	0.202	0.209	0.151	0.159	0.185	0.145	0.216	0.240	0.390	0.699	0.754	0.550	0.272	0.403	1.259	2.747	4.240	5.798	5.550	2.353	0.362	0.147	0.116	0.107	0.098	0.073	0.102	0.077	0.104	0.110	0.084	0.102	0.089	0.109	0.081	0.092	0.128	0.084	0.105	0.105	0.097	0.102	0.088	0.100
240.0	273.1	206.6	445.6	1799	2069	347.8	13.72	3.226	2.609	2.468	1.724	1.665	1.637	1.348	1.077	0.928	0.761	0.758	0.567	0.497	0.489	0.392	0.322	0.280	0.313	0.317	0.324	0.221	0.252	0.244	0.234	0.227	0.191	0.159	0.174	0.168	0.146	0.149	0.147	0.159	0.176	0.225	0.308	0.610	0.894	0.883	0.429	0.458	0.741	1.294	3.458	7.593	8.929	5.319	1.727	0.327	0.131	0.119	0.111	0.104	0.138	0.086	0.133	0.104	0.111	0.107	0.115	0.103	0.090	0.104	0.085	0.111	0.098	0.092	0.092	0.089	0.119
245.0	197.2	308.5	184.5	617.8	2309	2025	243.9	6.388	3.735	2.975	1.917	2.111	1.776	1.606	1.078	0.853	0.729	0.670	0.502	0.480	0.547	0.355	0.371	0.332	0.323	0.326	0.351	0.215	0.273	0.217	0.197	0.225	0.157	0.180	0.227	0.211	0.153	0.162	0.133	0.168	0.138	0.152	0.185	0.275	0.467	0.890	0.945	0.771	0.404	0.378	0.917	2.654	6.606	10.46	9.906	4.669	1.050	0.212	0.134	0.119	0.135	0.092	0.133	0.088	0.099	0.104	0.099	0.117	0.101	0.091	0.088	0.118	0.123	0.105	0.099	0.085	0.117
250.0	71.73	230.7	304.5	240.7	745.1	2144	2501	797.8	39.57	4.482	2.803	2.793	2.205	1.599	1.259	1.194	0.857	0.706	0.608	0.571	0.598	0.407	0.392	0.336	0.342	0.340	0.328	0.295	0.313	0.251	0.258	0.258	0.186	0.202	0.204	0.179	0.180	0.173	0.167	0.166	0.145	0.147	0.140	0.166	0.222	0.342	0.588	0.944	0.972	0.866	0.592	0.781	1.715	3.550	6.485	9.751	11.85	9.891	4.931	1.259	0.231	0.092	0.112	0.097	0.090	0.119	0.106	0.139	0.122	0.123	0.112	0.093	0.132	0.096	0.119	0.102	0.098
255.0	32.97	69.93	231.7	379.8	262.6	551.7	2081	3862	294.8	38.38	4.905	3.474	2.568	2.010	1.265	1.361	0.880	0.842	0.743	0.494	0.542	0.547	0.348	0.352	0.312	0.423	0.360	0.388	0.322	0.298	0.284	0.301	0.215	0.255	0.185	0.186	0.194	0.162	0.146	0.128	0.170	0.205	0.165	0.159	0.207	0.176	0.238	0.345	0.554	1.105	1.442	1.284	0.780	0.942	1.643	2.450	4.685	10.85	18.91	17.35	7.551	1.287	0.189	0.134	0.094	0.125	0.126	0.116	0.127	0.167	0.117	0.095	0.124	0.091	0.116	0.133	0.118
260.0	23.91	29.25	88.57	347.6	342.3	180.8	630.6	3361	3936	245.2	18.10	5.678	3.595	2.502	1.725	1.369	0.905	1.004	0.815	0.538	0.590	0.641	0.411	0.426	0.411	0.402	0.390	0.435	0.350	0.314	0.296	0.235	0.242	0.268	0.196	0.212	0.216	0.214	0.213	0.173	0.171	0.181	0.172	0.143	0.217	0.154	0.170	0.172	0.235	0.463	0.924	1.897	1.888	0.895	0.621	0.736	1.238	3.024	8.458	18.41	23.32	16.30	5.507	0.567	0.132	0.150	0.146	0.122	0.121	0.120	0.121	0.107	0.117	0.083	0.096	0.105	0.109
265.0	19.76	18.67	28.81	165.7	442.9	257.9	180.7	1126	4619	2004	186.2	8.826	4.414	2.825	2.178	1.708	1.239	1.029	0.869	0.748	0.658	0.619	0.534	0.469	0.446	0.354	0.359	0.331	0.354	0.344	0.303	0.235	0.238	0.254	0.209	0.184	0.266	0.226	0.218	0.183	0.201	0.129	0.201	0.140	0.205	0.168	0.159	0.141	0.143	0.170	0.344	0.929	1.761	2.402	1.419	0.578	0.479	0.896	2.210	5.533	13.79	25.04	26.23	13.33	2.786	0.287	0.138	0.134	0.112	0.131	0.104	0.130	0.143	0.103	0.145	0.096	0.125
270.0	37.80	24.91	20.48	53.23	215.8	437.5	288.4	306.9	1472	3703	3870	734.6	41.61	4.432	3.179	2.087	1.468	1.216	1.046	0.816	0.726	0.599	0.545	0.521	0.537	0.405	0.425	0.341	0.378	0.390	0.303	0.361	0.295	0.313	0.252	0.271	0.297	0.275	0.259	0.191	0.216	0.182	0.223	0.180	0.200	0.188	0.181	0.177	0.163	0.122	0.147	0.322	0.613	1.316	1.947	2.141	1.813	1.084	0.806	1.442	3.441	7.408	13.62	20.03	23.26	19.59	10.56	2.774	0.292	0.146	0.143	0.135	0.143	0.128	0.157	0.123	0.123
275.0	78.22	55.83	29.50	29.64	71.50	210.9	563.2	334.2	374.8	933.5	3335	6419	1014	36.35	4.572	2.413	2.049	1.572	1.159	1.163	0.839	0.641	0.659	0.553	0.589	0.477	0.473	0.403	0.461	0.359	0.404	0.387	0.266	0.403	0.400	0.376	0.418	0.372	0.376	0.330	0.313	0.297	0.271	0.273	0.379	0.285	0.239	0.238	0.214	0.187	0.117	0.199	0.309	0.425	0.698	1.107	2.441	3.469	2.405	1.002	1.023	1.919	3.275	4.829	7.261	15.93	30.50	29.05	15.50	2.560	0.246	0.158	0.170	0.192	0.152	0.123	0.130
280.0	127.2	81.67	46.10	29.61	43.74	89.99	363.0	630.5	246.4	259.6	958.8	5065	6151	148.0	16.06	4.294	2.566	2.107	1.328	1.135	1.028	0.856	0.728	0.581	0.613	0.507	0.450	0.484	0.445	0.377	0.415	0.386	0.408	0.501	0.626	0.621	0.564	0.486	0.438	0.388	0.427	0.512	0.379	0.424	0.376	0.374	0.328	0.221	0.254	0.193	0.171	0.183	0.211	0.263	0.341	0.549	0.965	2.276	3.551	3.145	1.576	0.831	1.074	1.453	1.990	4.214	11.09	23.47	35.91	26.63	10.13	1.348	0.189	0.158	0.151	0.139	0.152
285.0	178.8	127.5	60.29	40.58	39.87	54.83	148.9	549.5	559.0	159.8	283.8	1530	6256	4521	113.5	7.271	3.645	2.397	1.622	1.478	1.144	0.872	0.798	0.709	0.549	0.469	0.564	0.404	0.513	0.381	0.393	0.343	0.393	0.533	0.715	0.760	0.691	0.635	0.581	0.491	0.436	0.558	0.531	0.434	0.447	0.385	0.417	0.332	0.292	0.268	0.188	0.201	0.245	0.244	0.281	0.306	0.469	0.884	1.710	3.382	3.975	2.096	0.866	0.669	0.811	1.320	2.864	6.244	14.98	28.47	33.38	21.87	6.403	0.572	0.184	0.177	0.170
290.0	215.9	158.6	87.74	56.91	44.18	52.76	78.04	213.4	560.1	491.0	197.8	420.6	1810	4294	4369	430.8	25.56	3.633	2.208	1.647	1.351	1.148	0.887	0.792	0.626	0.551	0.512	0.509	0.502	0.453	0.367	0.422	0.422	0.597	0.818	0.862	0.857	0.868	0.698	0.627	0.608	0.613	0.582	0.585	0.569	0.483	0.492	0.505	0.335	0.281	0.247	0.271	0.313	0.301	0.305	0.272	0.390	0.500	0.728	1.268	2.353	3.014	3.601	2.396	1.354	0.871	1.087	1.845	3.813	7.457	13.75	21.39	25.40	24.33	14.80	4.927	0.681
295.0	246.1	195.3	111.1	71.66	53.62	57.65	62.44	102.2	218.6	591.8	625.5	220.5	471.6	1041	2921	5216	609.1	23.50	3.420	2.445	1.920	1.135	1.121	1.076	0.738	0.859	0.452	0.589	0.518	0.384	0.485	0.401	0.429	0.616	0.861	0.874	0.996	0.862	0.750	0.615	0.597	0.636	0.577	0.631	0.676	0.591	0.449	0.499	0.476	0.301	0.267	0.329	0.349	0.306	0.277	0.307	0.392	0.403	0.546	0.638	0.878	1.122	1.868	3.455	4.551	2.856	1.173	1.026	1.309	2.014	3.428	5.089	6.688	12.27	26.56	33.13	21.97
300.0	255.9	204.1	143.2	79.90	63.68	67.81	71.86	83.74	123.9	310.2	823.3	436.8	199.0	292.3	788.9	3914	4537	443.2	9.633	3.125	2.395	1.436	1.122	1.199	0.873	0.801	0.762	0.532	0.541	0.465	0.627	0.464	0.513	0.695	0.859	0.934	0.947	0.925	0.705	0.677	0.679	0.627	0.657	0.610	0.672	0.682	0.568	0.598	0.526	0.356	0.355	0.311	0.405	0.349	0.347	0.307	0.425	0.456	0.480	0.495	0.633	0.702	0.907	1.598	3.359	4.676	3.571	1.592	0.947	0.994	1.280	1.488	1.919	3.109	7.882	19.18	34.13
305.0	249.9	207.5	151.5	96.95	82.09	74.95	82.70	91.10	115.7	185.1	518.1	803.2	202.4	147.2	232.9	1148	4432	3587	71.36	5.185	2.707	2.087	1.431	1.351	1.076	0.723	0.659	0.740	0.496	0.541	0.549	0.478	0.513	0.663	0.795	0.928	0.926	0.875	0.739	0.694	0.679	0.628	0.684	0.654	0.663	0.749	0.625	0.541	0.464	0.492	0.382	0.466	0.410	0.452	0.345	0.445	0.494	0.477	0.440	0.554	0.660	0.583	0.759	0.946	1.516	2.671	4.455	3.960	2.354	1.108	0.881	0.767	0.823	1.082	2.262	4.822	11.66
310.0	258.0	212.1	173.5	121.3	90.40	85.97	95.01	106.9	122.7	159.7	266.0	559.9	633.7	260.7	129.4	308.9	1262	3159	3239	300.7	18.60	2.724	1.870	1.479	1.166	0.981	0.754	0.800	0.584	0.591	0.465	0.541	0.528	0.641	0.796	0.912	0.907	0.835	0.780	0.715	0.672	0.591	0.683	0.648	0.727	0.658	0.705	0.609	0.562	0.527	0.444	0.531	0.424	0.462	0.435	0.483	0.512	0.550	0.550	0.595	0.704	0.667	0.736	0.873	1.038	1.325	1.992	2.836	3.512	3.321	2.306	1.327	0.817	0.784	0.989	1.468	2.993
315.0	328.6	269.9	194.6	137.0	101.6	94.45	110.4	117.6	135.3	167.4	212.5	299.8	492.2	637.3	212.2	136.3	328.8	756.7	2073	3759	456.5	16.95	2.635	1.743	1.483	1.085	0.865	0.948	0.792	0.647	0.541	0.598	0.491	0.640	0.801	0.808	0.757	0.794	0.661	0.820	0.729	0.670	0.649	0.789	0.794	0.781	0.761	0.711	0.707	0.609	0.498	0.528	0.527	0.463	0.463	0.582	0.610	0.666	0.617	0.728	0.699	0.726	0.837	0.918	0.890	1.098	1.175	1.458	1.681	2.324	3.451	3.695	2.108	1.099	0.770	0.844	1.012
320.0	411.7	349.6	243.4	157.9	112.5	102.7	118.5	130.0	149.7	182.7	215.9	250.7	314.6	590.2	464.8	124.5	128.8	207.2	547.9	2722	3232	343.9	6.739	2.161	1.703	1.156	1.127	0.952	0.830	0.587	0.646	0.472	0.526	0.645	0.858	0.672	0.782	0.838	0.752	0.798	0.808	0.747	0.724	0.886	1.010	0.897	1.037	0.891	0.828	0.750	0.615	0.568	0.574	0.480	0.492	0.524	0.557	0.587	0.699	0.719	0.627	0.782	0.908	0.906	1.038	1.085	1.153	1.254	1.257	1.528	2.081	3.396	3.888	2.898	1.157	0.839	0.756
325.0	470.2	429.9	321.1	208.3	129.2	108.9	121.2	132.9	160.1	186.6	226.5	256.1	268.7	372.4	581.4	273.2	100.9	91.43	151.8	785.2	3090	2516	55.60	3.712	2.141	1.350	1.287	1.058	0.682	0.689	0.658	0.509	0.573	0.685	0.806	0.723	0.729	0.801	0.827	0.867	0.815	0.913	0.836	0.986	1.168	1.225	1.103	1.221	1.013	0.878	0.721	0.727	0.535	0.603	0.434	0.503	0.617	0.680	0.711	0.695	0.678	0.828	0.835	0.992	1.115	1.175	1.177	1.254	1.241	1.428	1.442	2.007	2.792	3.804	3.012	1.504	0.905
330.0	504.9	506.5	422.1	291.8	172.5	124.8	120.3	139.1	163.0	200.9	235.8	261.3	260.6	267.8	355.0	437.3	232.7	78.60	67.69	200.5	882.6	2242	2330	239.8	13.91	2.000	1.589	1.225	0.888	0.793	0.663	0.569	0.607	0.671	0.712	0.695	0.749	0.685	0.782	0.756	0.769	0.873	0.955	1.068	1.331	1.312	1.353	1.304	1.302	1.077	0.957	1.003	0.754	0.661	0.526	0.559	0.609	0.625	0.691	0.681	0.759	0.781	0.914	1.053	1.209	1.182	1.225	1.379	1.288	1.323	1.359	1.452	1.583	2.058	2.535	2.811	2.520
335.0	514.7	535.1	460.2	342.1	217.3	139.6	122.5	147.3	161.6	201.3	237.1	260.2	255.3	238.4	228.1	269.8	398.8	182.5	58.31	74.43	219.4	535.6	1572	2789	365.5	11.00	2.127	1.590	1.098	0.860	0.771	0.663	0.650	0.716	0.566	0.747	0.717	0.732	0.853	0.707	0.836	0.916	0.960	1.105	1.325	1.242	1.292	1.621	1.393	1.150	1.182	1.188	0.922	0.915	0.625	0.616	0.638	0.609	0.704	0.747	0.771	0.750	0.980	1.030	1.135	1.145	1.160	1.383	1.326	1.257	1.411	1.339	1.309	1.183	1.405	1.566	2.076
340.0	509.0	531.4	495.8	369.0	235.6	154.3	132.9	144.6	160.6	192.5	231.2	247.0	252.3	231.6	198.7	181.3	303.5	331.8	83.72	51.41	76.40	141.7	421.6	2099	2408	55.24	4.199	1.942	1.389	0.959	0.910	0.763	0.644	0.730	0.662	0.706	0.652	0.638	0.833	0.686	0.743	0.865	0.926	1.037	1.264	1.229	1.349	1.498	1.425	1.077	1.166	1.278	0.949	0.856	0.718	0.642	0.620	0.646	0.804	0.748	0.907	0.782	0.868	1.009	1.108	1.196	1.251	1.222	1.222	1.208	1.431	1.266	1.248	1.264	1.115	0.936	1.180
345.0	490.8	501.3	478.6	376.4	244.0	164.3	134.5	140.0	164.4	192.0	219.1	238.2	242.2	222.8	181.6	153.2	178.6	326.5	217.4	61.27	48.21	56.78	114.2	618.6	2397	1809	44.94	2.657	1.668	1.117	0.843	0.704	0.738	0.749	0.645	0.711	0.674	0.672	0.753	0.594	0.641	0.720	0.913	0.938	1.109	1.269	1.339	1.412	1.338	1.180	1.083	1.252	1.088	0.884	0.865	0.605	0.707	0.616	0.783	0.741	0.775	0.842	0.866	0.976	1.086	1.112	1.191	1.074	1.225	1.277	1.266	1.138	1.135	1.090	0.902	1.022	0.982
350.0	432.4	449.0	448.1	374.9	260.7	176.3	144.4	148.0	163.6	184.3	204.2	220.1	222.3	209.3	175.9	143.7	131.6	178.9	261.0	175.9	58.54	45.34	51.33	157.7	703.9	1720	1679	203.7	9.674	1.723	1.085	0.883	0.743	0.738	0.631	0.663	0.670	0.649	0.627	0.694	0.609	0.765	0.818	0.868	1.023	1.112	1.143	1.277	1.252	1.212	1.096	1.218	1.082	0.926	0.855	0.678	0.803	0.677	0.708	0.753	0.801	0.828	0.924	0.947	1.043	1.040	1.044	1.076	1.171	1.196	1.141	1.079	1.049	0.988	0.990	0.971	0.867
355.0	377.1	420.5	408.3	368.3	265.4	186.7	150.2	156.9	166.3	183.8	193.2	207.8	203.9	194.6	165.1	140.8	122.9	116.9	147.9	248.3	154.7	54.85	43.39	61.03	176.0	414.6	1222	2027	299.4	7.026	1.330	1.139	0.883	0.699	0.631	0.676	0.557	0.693	0.594	0.650	0.584	0.784	0.742	0.814	0.898	1.014	1.041	1.175	1.156	1.071	1.159	1.089	0.925	0.913	0.907	0.781	0.680	0.651	0.769	0.801	0.835	0.793	0.818	0.910	0.929	0.894	1.088	0.930	1.012	1.022	1.092	1.125	1.078	0.938	1.000	0.834	0.893
360.0	349.9	367.5	370.4	337.2	259.5	204.6	162.5	159.4	168.9	180.4	188.5	193.0	189.1	185.4	161.7	140.2	121.8	107.7	106.4	177.7	243.3	101.6	48.02	44.69	62.95	109.8	336.4	1651	1784	49.29	2.901	1.353	0.920	0.981	0.696	0.705	0.644	0.636	0.612	0.665	0.579	0.658	0.686	0.840	0.874	0.896	0.957	1.135	1.121	1.070	1.002	1.075	0.980	1.077	0.951	0.817	0.815	0.825	0.770	0.761	0.794	0.817	0.878	0.742	0.899	0.895	0.998	0.839	1.145	0.931	1.036	1.095	0.993	1.009	0.945	0.909	0.849
365.0	334.3	326.6	351.4	336.1	258.6	203.7	168.5	163.8	165.5	177.8	184.9	185.4	183.6	172.6	155.6	138.4	123.9	107.6	99.48	117.0	220.3	190.6	65.70	45.93	42.03	46.80	92.28	505.9	1909	1352	38.82	2.207	1.042	1.116	0.773	0.686	0.673	0.673	0.627	0.606	0.572	0.674	0.694	0.767	0.895	0.814	0.991	1.064	1.026	1.014	1.048	1.038	0.940	0.970	0.885	0.791	0.832	0.789	0.774	0.787	0.802	0.926	0.858	0.761	0.911	0.858	0.770	0.856	0.941	0.971	0.953	1.029	0.982	1.100	0.831	1.002	0.902
370.0	288.5	306.6	330.2	307.0	265.6	210.5	179.5	169.9	174.0	178.5	184.8	185.0	179.0	169.7	153.0	139.1	125.6	112.7	104.5	102.1	135.3	202.2	162.7	72.16	45.81	39.55	42.76	129.9	579.0	1386	1033	171.8	7.711	1.386	0.983	0.798	0.654	0.663	0.617	0.659	0.619	0.617	0.683	0.677	0.839	0.793	0.811	0.965	0.903	0.924	0.920	0.996	1.034	1.003	0.839	0.831	0.814	0.767	0.846	0.900	0.874	0.869	0.900	0.885	0.945	0.925	0.913	0.906	0.949	0.995	0.953	0.992	0.966	0.942	0.877	0.962	0.880
375.0	273.4	289.9	306.5	291.9	258.1	215.1	186.2	185.1	178.3	179.0	183.2	178.6	173.5	163.8	149.8	140.4	130.9	117.5	111.0	103.8	105.9	129.1	196.5	152.6	61.58	45.53	38.38	50.42	145.0	339.6	944.9	1520	238.5	4.715	1.414	0.915	0.758	0.753	0.709	0.620	0.669	0.634	0.686	0.651	0.686	0.726	0.774	0.845	0.856	0.857	0.826	1.036	0.950	0.903	0.879	0.913	0.877	0.845	0.790	0.845	0.861	0.762	0.969	0.899	1.034	0.941	0.943	0.994	0.903	0.940	0.907	0.844	0.883	0.936	0.909	0.902	0.750
380.0	249.7	289.2	293.4	280.9	252.0	219.9	192.3	181.5	177.0	176.0	179.8	175.9	172.0	161.6	150.2	139.5	131.8	122.2	113.3	108.2	102.4	105.2	147.8	201.9	107.4	53.90	42.85	39.10	52.20	89.95	270.9	1262	1255	40.13	2.257	1.128	0.911	0.797	0.771	0.707	0.646	0.569	0.672	0.610	0.796	0.751	0.756	0.797	0.854	0.806	0.798	0.970	1.039	0.916	0.818	0.855	0.921	0.774	0.791	0.788	0.826	0.822	0.849	0.791	0.913	0.870	0.935	0.819	1.049	0.894	0.897	0.920	0.898	0.916	0.860	0.934	0.917
385.0	260.3	274.1	290.4	276.2	253.6	216.7	198.7	186.5	177.6	179.8	181.1	179.1	170.1	161.3	149.7	136.0	131.0	123.7	117.6	112.0	105.6	101.1	111.0	174.1	173.6	64.12	48.79	39.31	35.33	37.49	74.56	395.3	1327	895.2	29.56	1.635	1.001	0.817	0.796	0.830	0.660	0.613	0.601	0.615	0.670	0.735	0.713	0.725	0.865	0.870	0.780	0.886	1.078	0.962	0.943	0.878	0.888	0.905	0.883	0.877	0.866	0.877	0.814	0.911	0.905	0.854	0.982	0.843	0.929	0.907	0.917	0.890	0.868	0.880	0.844	0.925	0.936
390.0	243.8	254.9	268.1	266.5	250.6	223.8	203.0	192.1	187.5	180.5	181.1	175.2	166.6	158.8	146.8	135.8	129.6	125.6	121.3	116.5	109.2	104.4	103.8	120.5	166.4	141.8	72.39	46.94	37.31	31.04	33.80	101.3	400.7	904.8	685.8	128.7	5.321	1.065	0.863	0.820	0.616	0.688	0.514	0.626	0.675	0.717	0.707	0.800	0.829	0.834	0.813	0.915	1.005	0.932	0.974	0.838	0.839	0.958	0.916	0.899	0.809	0.891	0.870	0.873	0.864	0.828	0.838	0.888	0.875	0.800	0.834	0.838	0.880	0.868	0.819	0.904	0.958
395.0	245.6	255.5	264.6	270.8	250.1	230.8	209.0	196.1	187.1	184.0	177.9	170.8	162.1	153.8	143.0	134.5	130.7	125.9	122.3	118.8	112.8	107.1	105.3	103.0	112.8	156.8	133.4	59.32	43.95	35.41	28.59	38.29	100.2	222.8	606.0	970.8	181.1	3.526	1.023	0.895	0.698	0.701	0.741	0.607	0.660	0.712	0.656	0.829	0.841	0.748	0.808	0.823	1.011	0.916	0.887	0.934	0.914	1.020	0.954	0.828	0.861	0.976	0.895	0.866	0.786	0.825	0.909	0.784	0.840	0.838	0.852	0.832	0.819	0.863	0.875	0.865	0.874
400.0	237.0	234.7	264.6	258.3	242.8	230.7	209.6	202.0	189.4	186.5	177.7	167.3	156.7	151.1	140.4	135.2	128.5	126.7	121.6	116.4	114.8	111.3	107.7	100.2	95.57	119.9	161.3	97.87	51.39	39.82	31.21	27.35	35.64	59.01	174.0	786.1	822.7	33.08	1.925	0.990	0.802	0.893	0.760	0.647	0.750	0.728	0.738	0.794	0.846	0.771	0.808	0.921	0.960	0.932	0.947	0.975	0.934	0.962	0.958	0.875	0.885	0.933	0.822	0.896	0.785	0.885	0.904	0.843	0.821	0.811	0.916	0.878	0.935	0.861	0.808	0.808	1.005
405.0	231.3	242.8	256.1	254.8	240.9	229.1	214.2	204.2	191.3	183.4	175.0	170.4	159.1	151.0	140.1	132.2	128.5	124.9	121.9	117.8	114.7	113.1	106.2	101.5	94.03	95.10	133.2	142.8	72.30	44.98	35.17	27.83	23.40	24.26	47.61	244.1	838.0	607.6	25.23	1.389	1.004	0.857	0.742	0.669	0.739	0.690	0.711	0.767	0.802	0.852	0.835	0.841	0.907	0.939	0.978	0.894	0.884	0.946	0.961	0.867	0.908	0.885	0.900	0.942	0.806	0.935	0.877	0.889	0.761	0.778	0.852	0.931	0.929	0.917	0.762	0.776	0.922
410.0	223.2	238.5	248.1	240.2	235.0	221.6	213.1	205.4	195.4	183.4	177.8	166.8	157.9	147.6	135.6	127.6	122.6	121.3	119.4	115.5	111.9	109.5	105.8	101.8	94.43	89.87	97.01	128.6	118.8	65.56	40.57	30.70	23.98	19.31	20.60	62.47	250.0	593.4	493.6	115.0	4.115	0.918	0.876	0.774	0.717	0.705	0.815	0.750	0.760	0.725	0.737	0.914	0.894	0.879	1.017	0.828	0.931	1.006	0.924	0.888	0.962	0.860	0.945	0.905	0.899	0.886	0.883	0.823	0.831	0.807	0.839	0.869	0.879	0.838	0.737	0.803	0.849
415.0	219.4	234.0	238.0	232.3	225.5	215.6	220.5	205.6	201.9	185.5	177.2	164.5	151.9	142.8	130.1	124.9	117.7	117.7	114.8	112.7	109.2	106.6	102.6	99.18	93.76	88.46	84.99	90.52	122.5	110.1	54.25	35.59	27.71	21.04	17.33	23.00	62.67	146.3	400.9	674.7	34.09	2.948	1.083	0.879	0.758	0.629	0.782	0.813	0.724	0.842	0.766	0.901	0.849	0.872	0.900	0.873	0.928	1.063	0.919	0.831	0.905	0.990	0.820	0.758	0.835	0.828	0.885	0.912	0.860	0.771	0.764	0.802	0.832	0.738	0.925	0.750	0.870
420.0	224.7	229.0	229.0	228.2	228.3	217.6	217.0	202.3	199.1	182.4	175.4	160.0	151.3	139.5	129.6	122.3	116.9	114.4	110.2	109.7	106.5	105.8	102.0	97.07	92.80	87.73	82.08	78.82	94.38	125.5	82.39	42.35	30.77	23.01	18.30	15.85	21.58	39.12	113.3	521.3	565.0	30.19	1.560	0.897	0.961	0.645	0.700	0.697	0.695	0.710	0.743	0.926	0.874	0.851	0.808	0.909	0.892	1.005	0.855	1.002	0.956	0.891	0.922	0.881	0.778	0.831	0.859	0.909	0.815	0.688	0.765	0.741	0.760	0.714	0.861	0.848	0.898
425.0	204.4	239.4	228.5	229.2	228.3	219.3	217.9	207.7	198.1	184.1	180.3	162.0	145.8	136.1	126.0	117.5	111.9	110.9	107.8	106.0	102.7	101.4	99.75	96.65	92.12	89.22	80.20	76.85	77.31	102.4	110.5	53.55	33.29	24.96	19.47	16.30	14.39	15.59	30.70	158.9	565.8	269.7	22.81	1.163	0.838	0.961	0.787	0.700	0.765	0.677	0.751	0.854	0.832	0.825	0.870	0.867	0.927	1.045	0.937	0.923	1.020	0.951	0.836	0.888	0.814	0.832	0.870	0.718	0.838	0.862	0.790	0.767	0.785	0.724	0.817	0.827	0.855
430.0	450.3	218.5	226.8	219.0	221.0	214.1	214.2	213.1	202.6	185.7	176.6	160.0	145.7	133.0	123.2	112.3	108.0	106.6	105.2	102.1	98.49	96.17	95.93	94.14	89.58	86.24	80.87	76.02	73.29	77.18	96.04	87.39	48.86	29.07	22.26	18.02	14.80	12.05	13.21	40.54	165.6	368.6	388.5	104.3	4.463	1.073	0.756	0.786	0.737	0.732	0.670	0.792	0.873	0.860	0.910	0.909	0.910	0.914	0.926	0.927	1.008	0.984	0.884	0.879	0.887	0.811	0.791	0.782	0.776	0.805	0.717	0.704	0.750	0.715	0.760	0.706	0.784
435.0	1227	248.5	217.3	213.8	217.7	212.2	223.2	214.7	203.5	190.0	171.5	156.4	144.3	130.2	117.3	108.2	105.2	102.0	101.2	98.40	94.65	93.23	91.39	89.96	87.40	84.23	80.25	77.95	74.42	69.47	70.78	86.45	77.32	40.83	26.49	20.11	16.12	13.26	10.83	15.14	41.16	90.52	283.0	544.2	146.7	3.777	0.874	0.869	0.732	0.710	0.629	0.910	0.874	0.851	0.848	0.916	0.981	0.932	0.995	1.109	0.981	0.995	0.907	0.820	0.904	0.873	0.833	0.764	0.760	0.744	0.730	0.642	0.770	0.646	0.741	0.749	0.727
440.0	1766	429.5	217.4	211.7	215.3	212.1	221.0	220.8	210.7	185.1	175.2	158.7	142.5	129.4	113.9	106.8	102.1	98.34	95.98	94.26	91.97	89.07	89.52	87.26	84.58	83.29	79.83	76.25	72.03	67.73	61.33	68.30	85.31	59.34	30.44	22.88	17.96	14.32	11.58	10.18	14.32	24.62	78.29	395.5	516.1	29.39	1.918	0.897	0.734	0.830	0.675	0.885	0.854	0.847	0.934	0.916	1.026	1.071	1.123	1.021	0.877	0.927	0.831	0.911	0.865	0.920	0.826	0.707	0.703	0.778	0.749	0.691	0.701	0.702	0.611	0.752	0.696
445.0	1765	939.0	214.8	205.6	205.5	218.4	220.6	218.3	205.6	185.8	172.6	155.0	139.1	124.4	114.1	107.4	99.97	98.47	94.43	91.75	87.60	85.97	84.65	83.63	83.44	81.43	77.86	76.40	71.24	66.52	60.89	57.18	71.99	75.31	41.04	24.58	19.61	15.74	12.11	9.926	9.072	10.55	21.62	116.8	455.7	422.0	22.27	1.368	0.902	0.797	0.658	0.833	0.787	0.787	0.996	0.859	1.051	1.039	1.056	1.010	0.928	1.006	0.843	0.859	0.779	0.866	0.781	0.716	0.737	0.760	0.820	0.714	0.603	0.786	0.664	0.775	0.682
450.0	1015	1724	400.2	191.5	205.7	209.9	215.0	215.9	202.8	178.7	167.3	148.3	133.6	121.6	110.4	102.7	94.31	91.32	88.39	86.39	82.35	80.16	79.60	77.89	77.85	76.49	73.64	72.19	69.43	64.32	59.57	52.75	53.71	63.55	59.50	34.46	21.39	16.92	13.71	11.18	8.970	7.952	9.034	29.73	128.2	338.2	331.0	104.7	5.365	0.868	0.726	0.815	0.790	0.859	0.931	0.861	0.986	1.093	1.020	1.024	0.947	0.869	0.895	0.852	0.787	0.723	0.734	0.735	0.716	0.761	0.732	0.588	0.703	0.743	0.755	0.762	0.743
455.0	392.2	1634	1084	208.6	190.5	206.6	206.5	198.5	194.4	174.6	162.2	139.4	127.5	115.1	104.2	92.74	88.51	84.27	82.44	79.36	76.23	74.70	72.77	72.11	72.49	71.19	69.33	67.84	65.32	62.60	58.31	50.00	45.86	45.79	55.02	52.00	28.35	18.05	14.63	12.50	9.776	8.396	7.297	10.60	31.99	80.59	195.2	461.2	139.4	4.828	0.863	0.824	0.851	0.832	0.881	0.847	0.967	0.906	1.005	0.986	0.925	0.884	0.839	0.808	0.765	0.743	0.707	0.753	0.673	0.649	0.611	0.664	0.699	0.637	0.627	0.702	0.760
460.0	216.3	1049	1676	383.6	179.6	192.4	202.8	196.9	185.4	168.3	152.6	136.2	121.3	109.5	96.98	89.22	83.54	80.78	78.80	74.30	68.90	68.67	67.71	66.51	66.31	67.34	66.15	63.94	62.65	60.09	55.76	48.85	43.89	38.69	42.13	54.58	39.43	21.31	15.05	12.97	10.49	8.925	7.261	6.714	10.74	20.97	50.93	276.6	417.0	23.94	2.450	0.861	0.830	0.867	0.793	0.842	1.050	0.921	0.965	0.960	0.963	0.866	0.849	0.785	0.720	0.738	0.692	0.697	0.670	0.685	0.626	0.646	0.646	0.707	0.666	0.626	0.772
465.0	187.1	514.6	1707	781.6	171.2	181.1	193.3	187.2	176.9	156.1	145.6	132.1	118.9	104.9	92.61	86.39	80.05	74.91	73.16	68.85	64.64	64.64	63.30	62.12	62.92	62.52	61.47	59.83	58.11	56.17	54.18	47.80	41.62	36.45	33.80	43.23	46.52	28.09	15.84	13.30	10.95	9.303	7.681	6.672	6.261	7.822	14.50	74.80	317.7	332.4	20.75	1.578	1.045	0.930	0.803	0.876	0.974	0.839	0.881	0.954	0.934	0.780	0.802	0.718	0.757	0.686	0.657	0.581	0.772	0.661	0.597	0.592	0.527	0.569	0.617	0.472	0.679
470.0	233.3	241.5	942.8	1628	359.0	167.5	174.6	172.2	161.9	146.5	134.5	120.9	106.9	96.23	86.31	78.39	72.72	68.26	65.28	62.79	59.03	58.01	56.94	56.43	56.35	56.61	55.29	55.15	54.04	52.27	49.79	44.38	39.01	34.14	30.67	31.10	37.24	36.52	22.24	14.00	11.27	9.546	8.260	7.174	5.840	5.384	6.216	19.24	84.48	217.6	270.4	101.2	7.035	0.950	0.830	0.829	0.963	0.768	0.806	0.842	0.790	0.783	0.770	0.733	0.652	0.635	0.653	0.581	0.569	0.519	0.569	0.538	0.523	0.531	0.541	0.473	0.581
475.0	275.0	178.8	338.1	1459	1028	174.6	159.0	159.4	153.0	135.6	122.1	108.6	98.03	88.68	77.13	69.55	65.06	61.84	58.93	55.36	51.65	51.47	50.07	49.91	50.59	49.72	49.72	49.88	48.35	47.02	45.01	40.68	36.02	32.27	28.22	25.77	25.34	32.80	31.81	18.67	11.71	9.438	8.343	7.116	6.344	5.249	4.557	7.110	21.11	50.91	111.1	281.0	139.3	7.954	0.976	0.840	0.813	0.798	0.822	0.758	0.834	0.765	0.783	0.664	0.621	0.637	0.643	0.501	0.616	0.488	0.571	0.524	0.455	0.447	0.404	0.437	0.554
480.0	264.2	182.7	172.5	809.2	1567	319.6	143.4	148.2	140.4	126.7	116.0	105.8	95.58	82.68	71.65	64.74	61.90	58.68	55.81	51.65	48.01	45.55	45.65	44.92	47.95	47.21	46.17	45.77	45.46	44.61	42.40	38.86	34.91	30.18	27.16	23.57	21.73	24.17	31.60	24.31	13.28	9.935	8.457	7.672	6.413	5.866	4.515	4.719	7.191	13.36	27.84	135.1	301.6	111.8	3.456	0.919	0.844	0.787	0.758	0.713	0.823	0.719	0.691	0.570	0.654	0.536	0.615	0.513	0.530	0.517	0.541	0.511	0.502	0.459	0.383	0.490	0.543
485.0	227.4	223.5	127.5	361.2	1581	553.0	147.2	142.6	131.6	117.8	110.0	97.44	88.11	78.04	68.60	62.83	57.33	54.54	51.63	47.09	44.46	42.95	42.15	42.08	42.64	43.06	42.90	43.00	42.61	41.78	39.40	35.99	33.57	28.53	26.30	22.74	20.84	19.68	25.61	28.22	18.15	10.38	8.655	7.771	6.403	5.985	4.913	4.296	4.030	4.979	8.295	35.14	184.1	285.3	26.27	1.825	0.894	0.792	0.698	0.727	0.693	0.686	0.625	0.605	0.611	0.558	0.522	0.460	0.528	0.508	0.462	0.603	0.475	0.422	0.408	0.420	0.520
490.0	151.2	245.4	148.0	173.5	856.0	1374	292.1	130.3	122.9	110.0	99.89	92.05	81.41	71.30	63.03	57.88	53.52	49.74	46.76	44.91	41.60	38.67	38.55	38.00	38.67	39.31	38.81	38.71	39.99	38.46	36.20	33.22	30.78	27.02	24.33	21.42	19.34	17.46	18.44	23.48	23.63	14.64	9.061	7.632	6.562	5.960	5.292	4.512	3.697	3.541	3.853	9.735	46.95	146.4	210.0	106.6	9.045	0.948	0.817	0.779	0.637	0.612	0.636	0.562	0.551	0.509	0.520	0.504	0.482	0.496	0.447	0.487	0.430	0.420	0.453	0.435	0.498
495.0	103.8	200.3	192.2	119.3	301.6	1314	897.2	129.1	109.5	99.77	93.03	81.32	76.12	66.15	58.38	52.27	48.47	45.54	43.34	39.28	36.84	34.93	35.31	34.37	35.25	34.48	35.12	34.59	35.36	35.04	34.01	31.35	27.69	24.74	22.89	19.97	18.35	16.40	15.17	16.06	20.68	20.88	12.33	7.671	6.383	6.203	5.186	4.976	4.003	3.293	3.057	3.985	12.06	34.34	83.03	243.6	162.3	11.23	0.850	0.716	0.655	0.621	0.527	0.587	0.503	0.526	0.485	0.572	0.392	0.452	0.437	0.570	0.476	0.464	0.389	0.423	0.462
500.0	89.53	151.4	224.3	115.3	145.3	745.7	1456	247.4	99.63	95.17	86.35	78.11	70.04	61.34	54.65	47.99	43.57	41.13	38.99	34.65	34.85	31.65	31.85	32.55	31.73	32.20	32.85	32.16	32.20	32.21	30.61	28.24	26.24	23.71	20.88	19.14	16.93	15.40	13.55	12.98	15.77	20.77	16.11	9.208	6.703	6.141	5.126	4.891	4.410	3.481	2.857	2.823	4.347	8.994	20.49	103.3	277.2	125.4	5.429	0.686	0.582	0.587	0.528	0.578	0.486	0.509	0.481	0.468	0.463	0.424	0.420	0.453	0.459	0.382	0.313	0.394	0.461
505.0	87.32	103.7	218.4	133.9	101.0	315.5	1526	582.5	99.19	89.58	79.26	72.12	63.56	58.86	49.46	44.00	41.47	37.02	35.69	32.41	30.58	29.84	28.48	29.12	29.44	29.55	29.47	30.15	29.83	29.61	27.87	25.27	23.65	22.34	19.48	17.86	15.65	14.49	12.61	11.90	11.93	15.95	17.85	11.84	7.019	6.444	5.226	4.563	4.089	3.796	2.992	2.512	2.757	3.607	6.030	25.84	139.7	264.0	29.83	2.305	0.622	0.637	0.491	0.510	0.488	0.435	0.412	0.391	0.370	0.378	0.431	0.338	0.394	0.363	0.361	0.343	0.420
510.0	68.84	78.44	149.4	171.3	91.08	134.3	833.2	1288	205.0	81.01	71.98	65.03	57.28	51.47	43.62	39.73	36.12	33.15	31.42	29.40	27.32	26.09	25.65	25.71	25.52	25.69	25.75	26.49	25.92	26.53	24.99	23.24	21.00	19.59	17.72	16.04	14.32	13.37	11.73	10.73	10.21	10.93	14.63	15.29	9.720	6.181	5.128	4.634	3.933	3.713	3.324	2.679	2.360	2.288	2.623	7.043	34.26	117.2	180.0	97.95	9.553	0.655	0.531	0.532	0.499	0.397	0.423	0.389	0.373	0.418	0.351	0.314	0.360	0.312	0.329	0.355	0.344
515.0	66.05	66.32	85.42	177.1	107.1	87.58	273.1	1348	739.3	80.96	63.17	59.63	49.73	44.54	40.12	35.38	32.14	29.51	27.42	25.82	24.17	23.43	21.79	22.53	22.50	22.09	21.98	22.44	22.74	22.89	22.39	20.40	18.66	17.21	15.46	14.12	12.48	12.36	10.92	9.560	9.469	8.257	9.868	13.85	12.90	7.924	4.938	4.299	3.988	3.225	3.292	3.166	2.475	1.982	2.064	2.745	8.703	27.37	58.78	179.8	133.8	10.67	0.642	0.497	0.495	0.406	0.367	0.346	0.384	0.351	0.282	0.328	0.361	0.340	0.299	0.328	0.280
520.0	56.84	60.83	62.98	139.9	145.5	77.54	115.6	790.6	1333	168.0	57.80	52.93	46.34	39.94	36.75	31.44	28.40	26.82	24.24	22.61	20.98	20.93	20.06	19.50	20.24	20.26	20.04	19.52	20.70	19.71	19.68	18.73	17.35	15.37	13.82	12.34	11.64	11.21	10.13	9.275	8.582	7.322	7.746	10.05	13.70	10.04	5.934	4.157	3.704	3.177	2.921	3.043	2.735	2.115	1.878	1.880	3.094	7.199	14.27	71.40	198.0	94.47	4.707	0.520	0.476	0.448	0.371	0.301	0.383	0.325	0.305	0.317	0.314	0.265	0.273	0.345	0.266
525.0	51.47	52.20	50.45	102.2	169.2	75.34	77.49	319.1	1526	460.5	57.19	48.79	41.40	37.70	33.96	29.15	26.85	24.32	22.01	21.39	19.55	18.22	18.17	17.83	18.03	17.78	18.20	18.24	18.20	18.30	17.75	17.28	15.28	13.99	12.69	11.70	10.57	9.925	9.170	8.444	7.631	7.213	6.616	7.058	10.90	11.84	7.408	4.458	3.521	3.117	2.834	2.798	2.924	2.113	1.860	1.502	1.665	2.642	4.169	17.58	93.04	183.9	29.55	1.870	0.533	0.420	0.320	0.325	0.313	0.338	0.336	0.292	0.332	0.258	0.287	0.271	0.272
530.0	45.38	48.58	47.37	61.73	148.7	111.7	62.83	119.4	879.4	1169	141.9	43.02	37.05	33.80	29.07	25.75	23.06	20.97	19.60	18.25	17.29	16.28	16.25	16.06	15.71	16.27	15.61	16.03	15.76	16.34	15.54	14.49	13.32	12.33	11.27	10.35	9.514	9.071	7.942	7.542	6.809	6.359	6.162	5.759	7.133	9.892	9.644	5.714	3.654	3.088	2.565	2.471	2.513	2.340	2.152	1.564	1.360	1.421	1.785	4.737	22.60	78.80	127.5	72.45	7.924	0.534	0.339	0.338	0.286	0.299	0.325	0.333	0.271	0.220	0.255	0.278	0.261
535.0	45.89	44.07	38.26	45.21	92.68	150.7	61.51	65.28	266.8	1300	613.1	46.19	32.67	30.08	24.47	21.57	19.86	18.21	18.24	15.81	14.58	14.09	13.80	14.20	13.38	13.43	13.35	13.53	13.96	13.93	12.97	12.62	11.20	10.73	9.734	8.797	8.399	7.592	7.346	6.457	6.083	5.742	5.231	5.023	5.098	6.416	9.109	7.733	4.194	3.058	2.394	2.117	2.102	2.039	2.214	1.887	1.276	1.166	1.125	1.715	5.728	18.11	39.73	122.1	95.06	7.698	0.412	0.343	0.288	0.291	0.304	0.253	0.269	0.221	0.258	0.253	0.230
540.0	37.61	40.99	36.20	37.23	57.00	146.5	84.63	49.24	95.80	767.8	1156	95.71	29.45	27.57	20.78	19.32	17.57	15.76	15.34	13.88	13.03	12.44	12.20	12.67	11.81	11.41	11.83	11.74	11.86	12.03	11.56	11.00	9.811	9.718	8.921	7.801	7.350	6.756	6.590	5.881	5.427	4.907	4.643	4.551	4.243	4.598	6.722	7.808	5.543	3.062	2.330	2.010	1.828	1.815	1.883	2.012	1.565	1.174	1.035	1.105	1.869	4.624	9.739	47.08	135.5	32.00	3.315	0.334	0.341	0.296	0.287	0.312	0.275	0.246	0.250	0.195	0.189
545.0	32.89	39.17	30.32	32.90	38.50	112.6	107.2	46.39	53.39	290.3	1373	207.5	27.03	22.87	19.62	17.61	15.62	14.33	12.66	11.66	11.44	10.91	10.94	10.98	10.62	10.37	10.08	10.49	10.49	10.34	10.53	10.10	8.900	8.315	7.625	6.771	6.750	5.857	5.774	5.452	4.976	4.369	4.306	4.333	3.812	3.881	4.614	6.527	6.663	4.004	2.418	1.979	1.730	1.632	1.583	1.748	1.864	1.144	0.950	0.836	1.040	1.572	2.683	11.36	61.48	118.4	27.58	1.234	0.319	0.327	0.270	0.304	0.243	0.243	0.196	0.193	0.166
550.0	36.43	31.80	26.74	26.84	31.16	62.13	128.7	54.86	38.22	93.65	769.9	864.2	75.87	20.40	16.34	14.54	13.15	12.40	11.32	10.16	9.537	9.200	8.938	8.929	9.065	8.514	8.622	8.881	8.819	8.599	8.559	8.245	7.794	6.939	6.523	5.980	5.586	5.006	4.981	4.607	4.293	3.820	3.580	3.654	3.241	3.273	3.184	4.075	5.618	4.930	2.968	1.922	1.587	1.448	1.339	1.362	1.649	1.529	1.002	0.780	0.827	0.862	1.088	2.994	14.83	50.03	83.69	50.21	5.953	0.307	0.241	0.233	0.199	0.211	0.150	0.185	0.201
555.0	35.18	31.87	24.44	23.48	26.05	34.42	100.8	92.74	35.29	43.15	218.1	1057	354.5	18.18	14.33	11.95	10.98	9.640	8.938	8.601	7.309	7.463	6.991	7.591	7.050	6.794	7.011	7.012	7.384	7.474	6.994	6.741	6.013	5.792	5.265	4.988	4.640	4.467	4.100	3.677	3.606	3.017	3.002	2.878	2.796	2.506	2.600	2.648	3.501	4.884	3.732	2.205	1.409	1.290	1.230	1.033	1.209	1.474	1.379	0.728	0.653	0.601	0.746	1.125	3.714	11.50	25.51	77.12	60.70	4.816	0.341	0.184	0.199	0.153	0.168	0.180	0.191
560.0	31.24	31.37	21.76	20.97	21.93	26.32	64.98	116.6	36.69	30.20	70.27	639.7	785.8	44.17	12.79	10.48	8.911	8.784	7.802	7.360	5.971	6.280	6.004	6.246	5.774	5.798	5.837	6.362	6.443	6.120	5.749	5.709	5.212	4.848	4.434	4.343	3.878	3.847	3.621	3.154	2.835	2.848	2.496	2.398	2.380	2.445	1.916	2.029	2.189	3.452	4.045	2.639	1.386	1.176	1.107	0.985	0.969	1.159	1.581	1.101	0.697	0.526	0.573	0.595	1.161	2.891	6.101	28.48	81.80	29.82	2.257	0.226	0.224	0.186	0.162	0.206	0.152
565.0	27.18	30.76	21.53	18.12	18.55	20.06	38.01	121.2	52.33	25.52	34.63	232.6	1015	133.1	11.29	9.453	8.075	7.306	6.766	6.198	5.683	5.932	5.419	4.925	5.030	5.128	5.122	5.179	5.288	5.146	5.357	4.877	4.325	4.152	3.872	3.958	3.587	3.405	3.086	2.572	2.502	2.414	2.275	2.128	2.140	2.005	1.838	1.748	1.530	2.230	3.314	3.095	1.714	0.975	0.994	0.741	0.751	0.830	1.000	1.278	0.894	0.646	0.467	0.467	0.569	0.941	1.718	6.846	36.25	72.17	23.07	0.796	0.224	0.227	0.139	0.164	0.145
570.0	26.38	30.51	18.83	15.51	15.27	16.16	23.31	81.11	85.29	24.93	22.89	70.70	603.8	570.4	34.20	7.786	6.450	5.895	5.388	5.342	4.859	4.466	4.462	4.084	4.194	4.230	4.122	4.123	4.049	4.254	4.240	3.636	3.686	3.247	3.143	2.924	2.893	2.615	2.416	2.285	2.117	2.026	1.894	1.880	1.819	1.686	1.521	1.453	1.274	1.384	2.002	2.568	2.128	1.227	0.809	0.732	0.651	0.680	0.739	0.938	1.128	0.731	0.444	0.396	0.421	0.548	0.668	1.810	8.662	30.20	50.98	22.50	3.567	0.230	0.164	0.183	0.142
575.0	28.98	33.89	19.40	13.49	11.37	12.92	16.34	37.79	98.75	40.95	19.07	30.67	169.4	738.4	124.7	7.408	5.530	5.471	4.938	4.786	3.757	4.173	3.611	3.558	3.673	3.334	3.155	3.141	3.404	3.407	3.183	2.839	3.031	2.707	2.433	2.336	2.382	2.220	1.924	1.751	1.703	1.693	1.490	1.697	1.455	1.419	1.251	1.104	1.053	1.083	1.193	1.646	2.200	1.779	0.892	0.620	0.540	0.486	0.553	0.613	0.796	1.117	0.611	0.441	0.396	0.355	0.395	0.587	2.161	6.992	15.52	44.37	29.51	2.821	0.176	0.145	0.126
580.0	34.95	29.52	15.37	15.03	9.696	12.04	13.52	20.08	84.16	64.93	20.00	19.82	50.00	461.7	466.1	15.69	4.796	4.629	3.725	3.997	3.051	3.206	2.992	3.345	3.013	2.833	2.548	2.994	2.934	2.769	2.835	2.438	2.564	2.551	2.000	2.095	2.042	1.978	1.561	1.641	1.400	1.419	1.278	1.317	1.333	1.059	1.073	0.974	1.043	0.922	0.871	1.180	1.773	1.927	1.159	0.635	0.524	0.545	0.467	0.474	0.539	0.953	0.817	0.514	0.320	0.396	0.312	0.363	0.705	1.802	3.717	17.24	47.50	23.45	1.223	0.196	0.138
585.0	28.07	25.46	16.95	12.72	11.37	11.63	12.11	15.57	53.85	88.39	22.42	17.36	21.45	170.1	654.2	70.36	4.395	4.273	3.217	3.372	2.966	2.536	2.481	2.874	2.628	2.465	2.441	2.551	2.636	2.691	2.358	2.002	2.180	2.046	1.944	1.557	1.758	1.588	1.386	1.343	1.298	1.156	1.064	1.183	1.091	1.051	0.927	0.935	0.920	0.703	0.811	0.734	1.238	1.865	1.321	0.833	0.606	0.486	0.464	0.447	0.471	0.532	0.933	0.663	0.378	0.333	0.345	0.313	0.332	0.593	1.047	4.178	21.62	44.61	14.27	0.587	0.185
590.0	29.69	21.74	16.97	11.73	11.41	10.56	10.05	13.26	27.43	83.79	41.72	15.17	13.82	48.29	392.3	321.7	14.04	3.248	2.696	2.884	2.495	2.414	2.257	2.266	2.071	2.005	2.125	1.969	2.134	2.199	1.981	1.655	1.740	1.507	1.617	1.413	1.306	1.327	1.187	1.092	1.072	1.021	0.968	0.991	0.857	0.872	0.817	0.710	0.698	0.629	0.657	0.593	0.690	1.157	1.466	1.090	0.697	0.422	0.381	0.416	0.380	0.349	0.596	0.803	0.629	0.294	0.282	0.261	0.283	0.344	0.412	1.128	5.233	18.22	28.71	18.12	2.093
595.0	29.00	21.89	13.90	10.98	9.409	9.327	9.504	10.72	15.58	51.68	72.03	17.98	11.72	17.14	107.7	440.5	79.32	2.988	2.377	2.142	2.140	1.887	1.853	1.830	1.638	1.704	1.623	1.668	1.614	1.697	1.605	1.510	1.364	1.222	1.233	1.213	1.255	1.098	0.805	0.841	0.940	0.843	0.886	0.819	0.762	0.723	0.727	0.582	0.572	0.481	0.467	0.454	0.484	0.676	1.033	1.250	0.748	0.433	0.301	0.310	0.364	0.287	0.411	0.474	0.672	0.511	0.272	0.264	0.248	0.251	0.232	0.414	1.281	4.182	8.645	26.25	20.87
600.0	28.29	18.19	11.51	10.90	8.106	8.284	9.071	9.678	11.59	27.69	76.08	25.42	11.85	9.799	30.31	284.9	252.1	6.736	2.231	2.100	1.857	1.781	1.528	1.655	1.454	1.428	1.405	1.323	1.337	1.464	1.181	1.410	1.236	1.258	1.060	0.993	1.054	0.901	0.815	0.784	0.792	0.763	0.699	0.699	0.592	0.622	0.571	0.500	0.458	0.462	0.407	0.422	0.447	0.481	0.639	0.998	0.993	0.559	0.367	0.286	0.261	0.283	0.299	0.282	0.529	0.616	0.434	0.237	0.208	0.180	0.198	0.246	0.433	1.101	2.112	9.716	28.45
605.0	24.93	17.72	13.67	10.91	7.434	7.351	9.505	9.195	11.39	16.22	64.07	42.41	10.21	8.626	11.45	107.2	373.5	34.47	2.009	1.714	1.784	1.518	1.369	1.527	1.371	1.198	1.318	1.126	1.167	1.170	1.088	1.100	1.057	1.095	0.973	0.952	0.900	0.797	0.739	0.723	0.633	0.681	0.527	0.543	0.559	0.519	0.560	0.480	0.352	0.445	0.383	0.342	0.296	0.368	0.473	0.699	0.942	0.726	0.357	0.221	0.270	0.274	0.294	0.277	0.358	0.571	0.641	0.297	0.246	0.215	0.146	0.165	0.245	0.397	0.591	2.392	12.35
610.0	21.80	17.02	13.06	10.53	7.153	7.137	9.149	8.741	9.969	12.85	35.30	58.01	15.58	8.732	7.014	29.69	240.0	162.3	6.048	1.458	1.441	1.272	1.248	1.042	1.003	1.020	0.990	1.036	1.123	0.918	0.946	0.921	0.885	0.827	0.806	0.769	0.747	0.728	0.579	0.586	0.550	0.507	0.477	0.484	0.461	0.440	0.475	0.395	0.386	0.372	0.292	0.316	0.266	0.312	0.330	0.395	0.736	0.709	0.527	0.287	0.216	0.229	0.206	0.210	0.250	0.364	0.476	0.406	0.260	0.210	0.170	0.167	0.170	0.223	0.275	0.658	2.976
615.0	18.19	17.13	12.39	10.66	7.095	7.159	7.328	8.816	9.312	10.57	18.24	54.92	28.21	9.663	6.329	10.34	69.00	266.7	49.00	1.376	1.323	0.990	1.037	0.870	0.900	0.907	0.984	0.795	0.912	0.747	0.767	0.775	0.763	0.679	0.659	0.667	0.597	0.701	0.637	0.504	0.498	0.433	0.435	0.459	0.374	0.404	0.389	0.329	0.300	0.284	0.252	0.237	0.243	0.209	0.282	0.260	0.414	0.603	0.544	0.366	0.195	0.214	0.239	0.256	0.225	0.212	0.273	0.526	0.395	0.253	0.147	0.169	0.161	0.176	0.176	0.271	0.764
620.0	22.05	17.94	12.49	10.90	6.257	5.962	6.136	9.119	8.925	9.148	13.21	39.89	43.74	11.12	5.980	5.955	18.97	187.4	148.4	2.910	1.071	0.949	0.868	0.740	0.712	0.840	0.667	0.697	0.606	0.615	0.603	0.751	0.732	0.595	0.537	0.511	0.608	0.543	0.550	0.519	0.415	0.332	0.326	0.355	0.306	0.345	0.405	0.298	0.280	0.306	0.198	0.240	0.190	0.223	0.213	0.226	0.284	0.363	0.487	0.415	0.238	0.213	0.201	0.203	0.215	0.163	0.213	0.320	0.484	0.332	0.199	0.167	0.170	0.143	0.153	0.204	0.267
625.0	18.56	16.84	11.63	10.10	7.766	7.869	7.580	8.749	7.697	8.968	11.96	24.11	51.01	14.59	6.107	4.877	7.259	75.07	229.7	14.95	0.919	0.970	0.724	0.750	0.820	0.707	0.600	0.633	0.568	0.603	0.615	0.594	0.447	0.527	0.387	0.478	0.550	0.493	0.463	0.474	0.347	0.314	0.319	0.266	0.305	0.340	0.267	0.270	0.271	0.241	0.189	0.240	0.181	0.184	0.183	0.191	0.198	0.257	0.432	0.484	0.315	0.268	0.187	0.152	0.190	0.133	0.174	0.189	0.413	0.448	0.216	0.194	0.135	0.156	0.139	0.189	0.143
630.0	21.03	18.10	11.35	9.647	7.969	6.963	7.013	8.428	7.475	9.350	10.82	14.76	40.11	27.91	6.780	4.480	4.525	20.73	162.6	105.5	2.430	0.872	0.759	0.622	0.699	0.638	0.614	0.532	0.518	0.583	0.514	0.536	0.453	0.453	0.404	0.379	0.371	0.402	0.373	0.417	0.393	0.291	0.283	0.296	0.279	0.275	0.231	0.241	0.234	0.203	0.141	0.221	0.167	0.172	0.205	0.169	0.162	0.193	0.262	0.377	0.325	0.283	0.173	0.188	0.172	0.166	0.169	0.194	0.243	0.326	0.321	0.266	0.146	0.136	0.149	0.140	0.128
635.0	22.50	16.70	12.64	9.404	7.923	6.038	6.430	7.862	7.518	10.13	10.92	12.02	23.69	37.47	10.98	4.326	3.891	6.803	48.81	186.7	25.63	0.843	0.692	0.591	0.534	0.516	0.569	0.464	0.456	0.522	0.393	0.454	0.432	0.449	0.345	0.408	0.310	0.315	0.257	0.355	0.393	0.379	0.232	0.319	0.273	0.259	0.263	0.185	0.176	0.199	0.137	0.184	0.158	0.182	0.165	0.169	0.149	0.179	0.228	0.268	0.299	0.296	0.182	0.156	0.129	0.161	0.131	0.147	0.183	0.217	0.273	0.333	0.207	0.173	0.177	0.116	0.122
640.0	20.00	17.97	10.64	10.82	6.665	5.855	6.644	7.671	7.121	8.839	10.51	10.59	14.81	35.68	17.39	4.106	3.221	3.804	13.64	140.6	70.03	1.316	0.684	0.511	0.493	0.419	0.494	0.519	0.462	0.395	0.482	0.391	0.372	0.287	0.278	0.321	0.298	0.317	0.273	0.305	0.329	0.372	0.265	0.292	0.250	0.202	0.227	0.200	0.194	0.147	0.131	0.144	0.148	0.128	0.158	0.163	0.184	0.176	0.172	0.165	0.237	0.272	0.215	0.168	0.124	0.157	0.175	0.143	0.153	0.151	0.181	0.384	0.327	0.218	0.137	0.112	0.116
645.0	24.72	18.60	13.21	7.666	5.425	5.294	7.139	6.955	7.136	8.669	10.34	11.12	11.11	25.20	24.78	4.866	3.420	2.998	4.608	61.13	149.3	8.122	0.619	0.461	0.406	0.448	0.390	0.461	0.476	0.358	0.436	0.352	0.340	0.332	0.262	0.274	0.368	0.262	0.246	0.222	0.221	0.344	0.331	0.205	0.205	0.219	0.196	0.173	0.151	0.163	0.124	0.112	0.149	0.093	0.162	0.118	0.148	0.131	0.140	0.177	0.185	0.244	0.275	0.252	0.125	0.121	0.157	0.160	0.189	0.159	0.180	0.294	0.437	0.232	0.125	0.144	0.133
650.0	23.02	17.37	14.28	9.512	6.094	5.553	6.690	6.273	8.582	9.154	10.22	11.50	9.752	17.70	28.63	7.379	3.707	2.656	2.255	18.05	150.3	42.38	0.678	0.488	0.426	0.468	0.405	0.443	0.420	0.295	0.295	0.331	0.332	0.282	0.279	0.306	0.335	0.248	0.272	0.220	0.201	0.316	0.328	0.181	0.216	0.189	0.153	0.143	0.178	0.137	0.122	0.135	0.123	0.111	0.137	0.121	0.135	0.134	0.169	0.203	0.152	0.272	0.224	0.239	0.146	0.149	0.171	0.144	0.192	0.176	0.154	0.154	0.272	0.344	0.183	0.143	0.129
