Sample:	'1
File name:	3ºÅ4±¶.FD3
Run date:	'14:50:06, 05/15/2024
Operator:	horiz
Comment:	'

Instrument
Model:	F-2700 FL Spectrophotometer
Serial number:	23B8-004
ROM Version:	4J14000 07

Instrument parameters
Measurement type:	3-D scan
Data mode:	Fluorescence
EX  Start WL:	220.0 nm
EX  End WL:	600.0 nm
EX Sampling interval:	5.0 nm
EM  Start WL:	230.0 nm
EM  End WL:	650.0 nm
EM Sampling interval:	5.0 nm
Scan speed:	12000 nm/min
EX Slit:	5.0 nm
EM Slit:	5.0 nm
PMT Voltage:	700 V
Response:	Auto 
Corrected spectra:	Off
Contour interval:	50.000

Peak integration
Integration method:	Rectangular
Sensitivity:	1
Threshold:	1.000

Peaks
No.	ApexEX/EM(nm)	Height(Data)
1	230.0/340.0	1184
2	245.0/535.0	-20.30
3	250.0/545.0	-3.163
4	255.0/280.0	598.8
5	255.0/560.0	20.09
6	260.0/285.0	722.0
7	260.0/440.0	299.9
8	260.0/570.0	21.67
9	265.0/585.0	49.58
10	270.0/300.0	1458
11	270.0/600.0	50.47
12	275.0/305.0	1734
13	275.0/335.0	1592
14	275.0/610.0	48.12
15	280.0/310.0	1539
16	280.0/625.0	37.90
17	285.0/315.0	1395
18	285.0/635.0	24.33
19	310.0/350.0	447.0
20	315.0/355.0	400.9
21	320.0/360.0	381.2
22	325.0/370.0	345.9
23	330.0/375.0	341.3
24	335.0/380.0	347.2
25	340.0/390.0	303.4
26	345.0/395.0	280.4
27	350.0/400.0	275.2
28	360.0/415.0	227.0
29	365.0/420.0	225.6
30	375.0/435.0	176.6
31	380.0/440.0	168.3
32	400.0/465.0	91.97
33	415.0/485.0	49.14
34	430.0/505.0	25.76
35	435.0/510.0	20.00
36	445.0/525.0	12.24
37	450.0/530.0	8.950
38	460.0/545.0	3.258
39	465.0/340.0	-2.477
40	465.0/550.0	1.647
41	495.0/270.0	-6.894
42	505.0/275.0	-6.408
43	515.0/280.0	-5.644
44	520.0/285.0	-5.017
45	530.0/290.0	-4.966
46	540.0/295.0	-2.902
47	545.0/300.0	-2.362
48	555.0/305.0	-2.321
49	560.0/310.0	-2.931
50	565.0/335.0	-3.064
51	570.0/315.0	-3.567
52	580.0/320.0	-3.458

Wavelength data
No.	EX/EM(nm)	Height(Data)	

Data points
	220.0	225.0	230.0	235.0	240.0	245.0	250.0	255.0	260.0	265.0	270.0	275.0	280.0	285.0	290.0	295.0	300.0	305.0	310.0	315.0	320.0	325.0	330.0	335.0	340.0	345.0	350.0	355.0	360.0	365.0	370.0	375.0	380.0	385.0	390.0	395.0	400.0	405.0	410.0	415.0	420.0	425.0	430.0	435.0	440.0	445.0	450.0	455.0	460.0	465.0	470.0	475.0	480.0	485.0	490.0	495.0	500.0	505.0	510.0	515.0	520.0	525.0	530.0	535.0	540.0	545.0	550.0	555.0	560.0	565.0	570.0	575.0	580.0	585.0	590.0	595.0	600.0
230.0	-773.8	496.1	3280	1152	-140.5	-158.4	-132.3	-110.6	-94.51	-83.05	-73.63	-64.42	-55.26	-47.36	-39.81	-34.44	-30.03	-26.91	-24.24	-22.10	-20.53	-19.23	-18.10	-16.96	-16.18	-15.62	-15.38	-14.99	-14.85	-14.60	-14.13	-13.58	-12.81	-12.34	-11.51	-11.05	-10.96	-11.03	-10.76	-10.67	-10.38	-10.43	-10.30	-10.12	-9.876	-9.702	-7.757	-2.245	4.958	3.127	-3.077	-7.793	-8.695	-8.782	-8.914	-8.917	-9.642	-9.665	-9.836	-9.859	-9.935	-9.950	-10.11	-10.24	-10.27	-10.32	-10.35	-10.47	-10.57	-10.68	-10.80	-10.83	-10.93	-10.98	-11.07	-11.27	-11.50
235.0	-732.0	-303.3	1396	3662	462.3	-21.42	-129.8	-109.6	-92.22	-82.12	-72.57	-63.66	-54.58	-46.80	-39.20	-33.88	-29.78	-26.90	-23.84	-22.05	-20.69	-19.27	-18.01	-17.07	-16.26	-15.51	-15.15	-15.16	-14.97	-14.53	-14.11	-13.51	-12.93	-12.31	-11.51	-11.07	-11.04	-11.04	-10.53	-10.62	-10.47	-10.51	-10.28	-10.09	-9.840	-9.723	-8.584	-7.373	-4.045	0.592	6.103	7.209	-0.371	-6.952	-8.763	-8.909	-9.575	-9.714	-9.858	-9.817	-9.956	-9.944	-10.11	-10.22	-10.23	-10.24	-10.39	-10.43	-10.56	-10.70	-10.81	-10.89	-10.96	-11.01	-11.13	-11.29	-11.49
240.0	-692.0	-444.3	84.73	2450	4748	1919	-49.89	-107.2	-89.44	-80.79	-71.47	-62.18	-54.50	-46.45	-38.83	-33.25	-29.57	-26.26	-24.02	-21.83	-20.45	-19.20	-18.05	-16.87	-16.24	-15.61	-14.91	-14.81	-14.98	-14.55	-14.11	-13.52	-12.91	-12.25	-11.61	-10.97	-10.91	-11.01	-10.68	-10.59	-10.45	-10.49	-10.28	-10.13	-9.712	-9.512	-8.688	-8.598	-7.424	-5.379	-0.944	8.670	16.74	11.79	0.143	-7.727	-9.565	-9.624	-9.762	-9.793	-9.881	-9.981	-10.10	-10.16	-10.28	-10.32	-10.41	-10.44	-10.62	-10.70	-10.80	-10.89	-10.96	-11.07	-11.05	-11.21	-11.51
245.0	-743.0	-429.1	-223.5	539.9	4491	7004	322.0	-73.68	-87.95	-77.81	-70.74	-61.52	-52.30	-45.99	-38.73	-33.27	-29.39	-26.17	-23.92	-21.87	-20.25	-18.88	-17.91	-16.61	-16.29	-15.60	-14.84	-14.75	-14.76	-14.36	-13.81	-13.50	-12.77	-12.23	-11.76	-10.89	-10.88	-10.90	-10.62	-10.64	-10.38	-10.39	-10.32	-10.13	-9.782	-9.536	-8.474	-8.602	-8.117	-6.988	-5.649	-3.391	6.484	22.05	22.09	12.08	-2.410	-9.172	-9.665	-9.765	-9.852	-9.939	-10.05	-10.15	-10.32	-10.21	-10.35	-10.46	-10.60	-10.67	-10.75	-10.87	-10.96	-11.00	-11.03	-11.25	-11.43
250.0	-768.7	-478.4	-203.4	1.786	1138	5327	9499	4684	46.09	-71.91	-66.06	-58.37	-51.04	-44.54	-38.11	-32.79	-28.80	-25.94	-23.18	-21.66	-20.00	-18.76	-17.64	-16.65	-15.89	-15.46	-14.82	-14.69	-14.39	-14.27	-13.95	-13.42	-12.78	-12.24	-11.66	-11.04	-10.84	-10.78	-10.53	-10.49	-10.30	-10.42	-10.43	-10.04	-9.873	-9.672	-8.678	-8.596	-7.800	-6.904	-6.533	-7.118	-5.097	0.152	9.387	25.26	30.67	38.41	7.918	-1.701	-9.120	-9.892	-9.985	-10.05	-10.24	-10.21	-10.35	-10.44	-10.52	-10.67	-10.66	-10.81	-10.88	-10.99	-11.05	-11.26	-11.51
255.0	-778.7	-524.5	-279.7	6.308	199.6	1141	5401	9999.9	8363	106.5	-56.98	-53.87	-47.38	-42.86	-37.23	-31.28	-27.88	-25.18	-22.85	-21.49	-19.69	-18.52	-17.29	-16.43	-15.53	-15.28	-14.51	-14.42	-14.52	-14.15	-13.89	-13.21	-12.84	-12.09	-11.58	-10.93	-10.86	-10.92	-10.48	-10.43	-10.37	-10.35	-10.36	-9.949	-9.752	-9.623	-8.610	-8.808	-8.133	-6.921	-6.248	-7.212	-7.493	-6.584	-4.766	-0.866	4.351	31.13	73.42	88.58	18.53	0.832	-9.502	-9.950	-10.13	-10.18	-10.24	-10.37	-10.52	-10.66	-10.66	-10.79	-10.80	-10.97	-11.08	-11.20	-11.48
260.0	-766.3	-543.2	-333.3	-75.72	136.7	205.7	1319	8989	9999.9	2151	56.67	-46.96	-44.14	-39.25	-35.01	-30.68	-27.42	-25.10	-22.42	-21.02	-19.38	-18.44	-17.44	-16.16	-15.45	-14.97	-14.30	-14.13	-14.22	-14.19	-13.85	-13.15	-12.68	-12.18	-11.47	-10.71	-10.88	-10.86	-10.41	-10.52	-10.32	-10.30	-10.25	-9.884	-9.638	-9.478	-8.604	-8.891	-8.276	-7.151	-6.620	-7.085	-7.178	-7.389	-7.700	-6.958	-6.203	0.631	21.66	68.77	109.1	96.91	14.28	-4.387	-9.879	-10.12	-10.15	-10.36	-10.43	-10.69	-10.66	-10.75	-10.72	-10.92	-10.98	-11.21	-11.45
265.0	-751.1	-541.1	-348.3	-177.3	118.1	157.7	245.3	2548	9999.9	9999.9	1757	1.704	-37.76	-35.28	-32.65	-28.81	-25.71	-24.32	-21.62	-20.47	-19.17	-17.85	-16.96	-15.82	-15.34	-14.74	-14.31	-14.19	-13.87	-13.75	-13.53	-12.99	-12.41	-11.99	-11.44	-10.66	-10.83	-10.75	-10.57	-10.42	-10.21	-10.31	-10.29	-9.849	-9.635	-9.531	-8.617	-8.841	-8.291	-7.341	-6.952	-7.886	-7.225	-6.842	-7.342	-7.985	-8.639	-7.084	-2.365	11.37	46.80	110.1	139.1	24.21	8.062	-8.413	-10.11	-10.25	-10.46	-10.60	-10.64	-10.67	-10.82	-10.79	-10.92	-11.12	-11.44
270.0	-721.0	-504.9	-329.8	-214.4	-65.48	197.1	244.4	575.8	3061	9999.9	9999.9	7066	49.55	-26.33	-26.90	-25.14	-23.48	-22.23	-20.65	-19.66	-18.32	-17.47	-16.32	-15.60	-15.05	-14.47	-14.12	-13.98	-13.73	-13.73	-13.37	-12.96	-12.19	-11.70	-11.23	-10.55	-10.47	-10.62	-10.46	-10.36	-10.04	-10.11	-10.17	-9.795	-9.510	-9.386	-8.524	-8.703	-8.181	-7.246	-6.962	-8.162	-8.142	-7.835	-7.268	-6.894	-7.586	-8.075	-7.629	-4.735	3.323	21.85	53.77	82.45	123.6	97.20	69.08	2.145	-7.989	-10.31	-10.54	-10.59	-10.70	-10.82	-10.89	-11.12	-11.35
275.0	-573.0	-388.7	-260.2	-198.6	-137.4	-14.09	341.7	383.2	739.8	2389	9802	9999.9	9748	81.73	-15.55	-19.34	-19.58	-19.92	-19.08	-17.80	-17.49	-16.86	-16.00	-15.38	-14.53	-14.17	-13.78	-13.62	-13.87	-13.44	-13.16	-12.77	-11.93	-11.56	-10.81	-10.09	-10.22	-10.46	-10.36	-10.07	-9.881	-9.919	-9.811	-9.510	-9.342	-9.115	-8.211	-8.447	-7.938	-7.159	-6.745	-8.113	-8.408	-8.354	-8.291	-7.915	-7.512	-6.408	-6.523	-7.627	-6.436	-2.272	4.771	11.39	25.56	57.78	152.2	195.8	24.29	8.196	-8.816	-10.38	-10.39	-10.71	-10.84	-10.92	-11.30
280.0	-451.9	-265.6	-186.3	-165.3	-149.2	-80.53	127.8	598.8	375.6	659.2	2610	9999.9	9999.9	6783	49.16	-11.02	-15.38	-17.54	-16.90	-16.87	-16.04	-15.97	-15.41	-14.83	-14.33	-13.46	-13.75	-13.57	-13.60	-13.60	-12.94	-12.57	-11.87	-11.03	-10.40	-9.553	-9.910	-10.05	-9.969	-9.668	-9.642	-9.372	-9.557	-9.209	-8.977	-8.782	-7.865	-8.134	-7.585	-6.872	-6.695	-8.107	-8.369	-8.326	-8.424	-8.367	-8.737	-7.838	-5.761	-5.644	-7.199	-7.405	-5.899	-4.494	-1.387	6.527	37.80	108.6	180.2	198.3	21.68	2.864	-9.808	-10.63	-10.64	-10.94	-11.21
285.0	-314.3	-140.6	-104.5	-125.1	-134.9	-86.01	14.48	393.3	722.0	352.0	804.4	3210	9999.9	9999.9	1027	21.58	-8.987	-12.89	-14.40	-15.03	-15.86	-15.35	-14.87	-14.26	-13.72	-13.41	-13.27	-13.10	-13.12	-13.15	-12.76	-12.35	-11.93	-10.91	-9.955	-9.131	-9.635	-9.626	-9.613	-9.604	-9.186	-9.258	-9.265	-8.905	-8.626	-8.500	-7.536	-7.666	-7.327	-6.599	-6.444	-7.973	-8.093	-8.267	-8.488	-8.424	-8.950	-8.625	-7.777	-6.081	-5.017	-6.512	-7.558	-7.829	-6.936	-5.146	1.663	18.80	55.69	146.6	212.3	184.6	16.61	-3.082	-10.34	-10.73	-11.04
290.0	-164.9	5.280	26.93	-56.54	-92.10	-50.38	29.05	208.7	635.5	893.6	680.9	1090	3511	9999.9	9999.9	4140	39.16	-2.136	-9.182	-11.72	-13.16	-13.80	-13.56	-13.22	-13.20	-12.79	-12.73	-12.65	-12.69	-12.42	-12.45	-12.04	-11.53	-10.68	-9.855	-8.986	-9.152	-9.293	-9.132	-9.048	-8.994	-9.066	-9.008	-8.580	-8.287	-8.126	-7.140	-7.222	-6.967	-6.396	-6.346	-7.668	-7.977	-8.118	-8.286	-8.320	-8.787	-8.677	-8.369	-7.841	-6.758	-5.702	-4.966	-5.737	-6.569	-6.853	-5.560	-2.021	5.918	27.81	62.25	119.5	152.0	175.4	119.5	7.788	-3.345
295.0	-110.2	132.4	131.6	10.32	-34.20	13.88	108.3	243.6	454.9	913.9	1304	882.7	1228	2574	9999.9	9999.9	6128	56.55	0.787	-5.879	-9.061	-10.98	-11.69	-11.88	-11.74	-12.20	-12.22	-12.39	-12.25	-11.97	-11.98	-11.78	-11.29	-10.42	-9.294	-8.611	-8.889	-9.044	-8.813	-9.029	-8.929	-8.867	-8.596	-8.429	-7.953	-7.835	-6.950	-7.016	-6.489	-6.091	-6.092	-7.322	-7.823	-7.975	-7.844	-7.945	-8.383	-8.306	-8.183	-7.871	-7.620	-6.992	-6.319	-4.745	-2.902	-4.468	-5.997	-6.007	-4.510	0.175	7.401	19.77	27.79	52.02	132.8	237.4	215.0
300.0	-34.16	202.5	174.1	59.91	3.350	69.14	169.3	316.9	491.1	776.4	1458	1315	863.8	938.3	2667	9999.9	9999.9	4608	37.42	0.854	-4.724	-8.189	-9.663	-11.02	-10.44	-11.27	-11.80	-11.58	-11.67	-11.47	-11.94	-11.30	-11.05	-10.04	-9.180	-8.232	-8.794	-8.702	-8.726	-8.636	-8.605	-8.684	-8.496	-8.155	-7.846	-7.421	-6.607	-6.707	-6.403	-5.921	-5.896	-7.259	-7.676	-7.748	-7.831	-7.671	-7.980	-7.838	-7.798	-7.410	-7.392	-6.939	-6.597	-6.109	-4.373	-2.362	-3.166	-5.443	-6.350	-5.510	-4.299	-2.089	-0.749	4.612	25.48	86.65	210.2
305.0	-14.25	240.4	221.8	100.7	46.31	107.9	239.1	389.0	574.4	798.3	1213	1734	1055	666.0	831.2	3095	9999.9	9999.9	638.7	23.99	2.196	-3.899	-7.221	-9.270	-9.720	-10.03	-10.41	-10.78	-11.00	-11.45	-11.15	-11.18	-10.57	-9.995	-8.891	-8.374	-8.460	-8.606	-8.738	-8.511	-8.361	-8.431	-8.404	-8.083	-7.678	-7.528	-6.666	-6.572	-6.221	-5.743	-5.701	-7.122	-7.438	-7.665	-7.575	-7.421	-7.665	-7.539	-7.228	-7.011	-6.754	-6.764	-6.211	-5.616	-5.276	-3.969	-2.448	-2.321	-4.210	-5.957	-6.537	-6.729	-6.941	-5.856	-1.549	12.16	47.34
310.0	7.878	234.0	258.1	140.7	75.15	161.7	291.7	463.1	654.0	878.4	1121	1467	1539	904.3	521.1	867.1	3415	9999.9	9999.9	9999.9	33.60	5.873	-1.295	-5.229	-7.261	-8.030	-8.998	-9.862	-10.14	-10.42	-10.57	-10.87	-10.08	-9.578	-9.006	-8.251	-7.954	-8.474	-8.361	-8.283	-8.060	-8.511	-8.363	-7.961	-7.568	-7.395	-6.462	-6.558	-6.162	-5.545	-5.571	-6.887	-7.357	-7.362	-7.474	-7.185	-7.547	-7.274	-7.070	-6.552	-6.341	-6.205	-5.751	-5.318	-5.012	-4.861	-4.265	-3.612	-2.931	-3.375	-4.711	-6.513	-7.453	-7.898	-7.425	-4.537	2.734
315.0	27.17	318.0	299.4	169.3	112.2	179.4	323.2	512.4	727.5	944.0	1167	1325	1394	1395	677.6	423.8	898.5	2403	9999.9	9999.9	4472	45.03	8.643	1.553	-3.037	-5.649	-6.895	-8.157	-9.283	-9.426	-9.790	-9.845	-9.404	-8.985	-8.540	-7.944	-7.778	-8.076	-8.058	-8.479	-8.146	-8.195	-8.006	-7.781	-7.164	-7.175	-5.998	-6.205	-5.989	-5.297	-5.390	-6.575	-7.040	-7.227	-7.210	-6.853	-7.180	-7.088	-6.712	-6.461	-6.097	-5.819	-5.437	-5.221	-4.985	-4.519	-4.698	-4.159	-4.600	-4.111	-3.567	-3.794	-5.549	-7.467	-8.126	-8.159	-7.020
320.0	150.2	454.1	481.6	262.3	156.7	190.3	346.1	550.8	776.8	1031	1246	1374	1346	1389	1043	425.9	370.2	649.1	2622	9999.9	9999.9	3677	36.54	10.14	2.441	-2.047	-5.055	-6.553	-7.486	-8.247	-8.973	-9.309	-8.876	-8.827	-8.247	-7.769	-7.652	-7.631	-7.692	-8.263	-7.971	-8.161	-7.639	-7.271	-6.860	-6.719	-5.667	-5.699	-5.578	-4.756	-5.044	-6.377	-6.746	-7.024	-7.180	-6.615	-7.011	-6.782	-6.283	-6.284	-5.709	-5.430	-4.839	-4.916	-4.498	-4.517	-4.665	-4.428	-4.611	-4.553	-4.357	-3.973	-3.458	-5.419	-7.231	-8.406	-8.695
325.0	277.4	724.9	768.0	468.3	250.9	228.1	366.9	585.3	831.8	1102	1337	1476	1437	1277	1245	671.6	311.1	290.2	683.8	3340	9999.9	9999.9	494.9	29.47	9.061	2.290	-2.597	-4.590	-6.301	-6.882	-7.938	-8.358	-8.283	-8.147	-7.968	-7.354	-7.561	-7.570	-7.544	-7.780	-7.577	-7.806	-7.561	-6.983	-6.591	-5.934	-5.217	-4.701	-4.519	-3.872	-4.271	-5.960	-6.263	-6.687	-6.775	-6.578	-6.706	-6.713	-6.340	-5.966	-5.608	-4.933	-4.915	-4.485	-4.335	-3.951	-4.014	-4.189	-3.883	-4.379	-4.329	-4.857	-4.408	-4.157	-5.273	-7.168	-8.705
330.0	397.5	905.9	1043	737.9	389.9	291.8	392.6	603.9	860.7	1144	1409	1566	1534	1309	1098	907.6	524.0	260.5	276.1	839.2	3805	9999.9	9999.9	9999.9	34.02	13.89	5.060	0.144	-2.896	-5.123	-6.121	-6.864	-7.386	-7.744	-7.312	-6.947	-7.064	-7.475	-7.220	-7.447	-7.260	-7.375	-7.208	-6.718	-6.136	-5.234	-4.565	-4.157	-3.478	-3.089	-3.466	-4.966	-5.633	-6.271	-6.429	-6.437	-6.729	-6.580	-6.108	-5.650	-5.527	-4.890	-4.556	-4.110	-3.804	-3.516	-3.372	-3.595	-3.586	-3.545	-4.069	-4.597	-4.856	-5.264	-5.604	-5.851	-6.767
335.0	469.0	973.8	1165	855.4	477.7	324.0	403.6	607.7	877.7	1160	1431	1592	1574	1348	1040	760.9	717.7	397.9	210.0	293.8	933.9	2452	9999.9	9999.9	3717	42.85	16.34	7.525	1.914	-1.265	-3.492	-4.936	-6.111	-6.361	-6.423	-6.514	-6.399	-6.811	-6.747	-7.083	-6.848	-6.979	-6.759	-6.613	-5.766	-4.886	-4.169	-3.445	-2.834	-2.496	-2.945	-4.430	-5.091	-5.830	-6.151	-6.119	-6.457	-6.141	-5.945	-5.666	-5.166	-4.728	-4.149	-3.856	-3.844	-3.248	-3.176	-3.094	-3.332	-3.064	-3.877	-4.295	-4.765	-5.452	-6.328	-6.865	-7.295
340.0	458.7	1006	1184	882.6	510.3	352.7	419.7	618.9	879.0	1167	1426	1561	1552	1351	1034	689.2	616.1	575.5	258.2	182.7	303.3	631.0	2872	9999.9	9999.9	3253	36.74	15.89	6.308	1.538	-1.242	-3.287	-4.877	-5.716	-6.090	-5.895	-6.224	-6.511	-6.764	-6.948	-6.931	-6.934	-6.941	-6.176	-6.017	-5.166	-3.928	-3.286	-2.903	-2.477	-2.798	-4.102	-5.426	-5.742	-5.916	-5.855	-6.159	-6.276	-6.002	-5.610	-5.033	-4.916	-4.183	-3.978	-3.912	-3.225	-3.225	-3.440	-3.433	-3.323	-4.044	-4.300	-4.901	-5.470	-6.573	-7.313	-7.846
345.0	450.3	942.1	1127	858.6	534.1	371.0	440.7	642.3	882.6	1138	1382	1533	1504	1318	1007	668.0	504.8	564.8	401.3	183.0	172.3	232.0	715.9	3952	9999.9	9999.9	430.1	31.40	13.02	5.988	1.050	-1.799	-4.153	-4.923	-5.368	-5.578	-6.176	-6.422	-6.411	-6.830	-6.681	-6.998	-6.716	-6.347	-5.862	-5.405	-4.203	-3.554	-3.026	-2.580	-2.902	-4.082	-5.129	-5.611	-6.158	-5.838	-6.238	-6.141	-5.760	-5.634	-5.015	-4.456	-4.097	-3.889	-3.968	-3.621	-3.548	-3.484	-3.552	-3.536	-4.028	-4.484	-5.280	-5.741	-6.547	-7.427	-8.026
350.0	320.5	779.4	960.8	779.1	521.9	412.9	479.2	675.6	899.1	1110	1305	1404	1388	1225	952.5	644.9	458.3	409.3	447.0	317.0	170.0	150.8	238.8	952.1	4630	9999.9	9999.9	9999.9	33.79	15.62	6.943	1.612	-1.841	-3.394	-4.721	-4.935	-5.572	-6.423	-6.317	-6.750	-6.719	-6.830	-6.916	-6.508	-5.945	-5.610	-4.501	-4.055	-3.533	-2.935	-3.170	-4.400	-4.985	-5.810	-6.007	-5.830	-6.250	-5.809	-5.578	-5.234	-4.930	-4.695	-4.283	-4.421	-4.246	-3.844	-4.021	-3.996	-4.128	-4.052	-4.494	-4.718	-5.441	-5.993	-6.621	-7.252	-7.953
355.0	173.1	586.8	777.7	677.9	471.3	429.3	510.1	697.7	894.0	1073	1215	1278	1271	1110	873.7	607.8	440.0	347.3	328.4	400.9	278.8	152.5	143.5	286.0	1094	2522	9999.9	9999.9	9999.9	40.94	18.06	7.948	2.727	-1.730	-3.600	-3.995	-4.864	-5.916	-5.733	-6.238	-6.803	-7.201	-7.040	-6.679	-6.088	-5.880	-4.835	-4.511	-4.083	-3.616	-3.673	-4.660	-5.224	-5.715	-6.114	-5.684	-6.160	-6.097	-5.673	-5.143	-4.823	-4.713	-4.776	-4.272	-4.454	-4.536	-4.367	-4.426	-4.797	-4.796	-4.869	-5.433	-5.812	-6.095	-6.611	-7.400	-8.081
360.0	66.09	476.2	639.0	577.7	453.9	410.1	494.6	670.8	857.9	1009	1127	1182	1149	1023	814.2	576.3	425.0	331.8	287.1	329.8	381.2	211.0	135.7	146.4	310.0	623.1	3127	9999.9	9999.9	3085	36.88	15.03	6.975	1.473	-2.030	-3.149	-4.597	-5.311	-5.665	-6.006	-6.715	-7.074	-6.994	-6.602	-6.412	-5.914	-5.110	-4.690	-4.095	-3.874	-3.962	-4.956	-5.214	-5.712	-6.224	-5.862	-6.061	-6.264	-5.721	-5.316	-4.858	-4.974	-4.701	-4.852	-4.585	-4.674	-4.959	-4.998	-5.088	-5.084	-5.262	-5.872	-6.208	-6.260	-7.159	-7.611	-8.254
365.0	2.362	357.8	528.3	515.4	403.9	400.4	467.0	642.0	807.4	944.6	1050	1091	1057	940.0	755.1	545.7	416.8	334.9	281.6	267.9	364.9	323.3	163.4	124.7	143.3	201.5	759.5	4559	9999.9	9999.9	2434	30.58	12.17	5.465	0.379	-1.561	-3.695	-4.721	-5.262	-5.711	-6.423	-6.502	-6.968	-6.409	-6.235	-6.277	-5.148	-4.906	-4.530	-4.160	-3.961	-5.203	-5.385	-5.911	-5.963	-5.807	-6.272	-6.005	-6.125	-5.431	-5.413	-5.130	-5.065	-5.060	-5.129	-5.172	-5.035	-5.317	-5.480	-5.388	-5.727	-6.452	-6.337	-6.487	-7.414	-7.637	-8.231
370.0	-83.84	253.5	397.5	404.6	370.6	379.7	460.5	611.6	747.5	864.3	943.9	979.6	938.5	835.5	680.0	506.2	401.8	332.0	288.6	260.6	280.8	345.9	284.2	162.8	124.4	117.4	228.1	1080	5191	9999.9	9999.9	9814	130.2	14.13	6.056	1.664	-1.624	-3.459	-4.510	-5.342	-5.646	-6.542	-6.674	-6.553	-6.314	-6.356	-5.483	-5.124	-4.795	-4.269	-4.222	-5.297	-5.477	-5.860	-6.028	-5.762	-6.184	-6.141	-6.003	-5.667	-5.669	-5.487	-5.357	-5.315	-5.359	-5.426	-5.569	-5.684	-5.987	-5.786	-6.180	-6.545	-6.610	-7.111	-7.764	-7.876	-8.371
375.0	-146.4	160.3	273.6	318.1	324.8	364.7	438.4	569.6	688.9	776.6	825.1	855.6	816.4	741.8	610.4	467.0	387.3	336.1	299.2	273.2	262.5	279.0	341.3	274.4	153.0	116.5	119.9	296.6	1208	2617	9999.9	9999.9	9999.9	34.76	14.18	6.329	1.647	-1.556	-3.250	-4.560	-5.569	-6.136	-6.516	-5.923	-6.348	-6.408	-5.637	-5.519	-5.168	-4.455	-4.498	-5.481	-5.665	-5.946	-6.031	-5.851	-6.550	-6.088	-6.155	-6.144	-6.065	-6.193	-5.757	-5.945	-5.627	-6.003	-5.973	-6.352	-6.242	-6.314	-6.628	-7.022	-7.098	-7.430	-7.820	-8.167	-8.350
380.0	-193.1	65.03	204.4	256.6	294.6	336.8	414.4	531.2	626.6	706.7	755.5	778.3	739.6	669.6	558.9	435.3	370.3	328.9	302.9	280.8	265.4	261.3	299.9	347.2	215.7	132.9	106.3	127.5	319.7	637.0	3292	9999.9	9999.9	2585	30.15	11.65	5.153	0.819	-2.462	-4.201	-4.828	-5.621	-6.199	-6.257	-6.500	-6.200	-5.550	-5.670	-5.351	-4.738	-4.669	-5.542	-5.738	-5.937	-6.019	-5.994	-6.483	-6.361	-6.270	-6.409	-6.122	-6.354	-6.120	-6.009	-6.119	-6.366	-6.520	-6.550	-6.661	-6.753	-7.109	-7.493	-7.348	-7.627	-8.126	-8.277	-8.426
385.0	-260.9	-1.959	143.9	216.9	258.8	329.3	391.4	491.7	557.1	627.7	680.4	702.8	678.7	609.1	511.4	410.8	355.7	325.9	302.2	293.1	274.8	267.6	267.2	325.0	297.3	166.0	115.3	97.98	128.5	190.9	790.1	4641	9999.9	9999.9	1947	24.08	9.208	3.781	-0.486	-2.796	-4.202	-5.301	-5.699	-6.015	-6.273	-6.159	-5.297	-5.732	-5.520	-4.876	-4.754	-5.602	-5.793	-5.872	-6.056	-5.970	-6.403	-6.622	-6.538	-6.657	-6.528	-6.396	-6.437	-6.465	-6.410	-6.468	-6.832	-7.006	-6.923	-7.199	-7.317	-7.573	-7.608	-7.864	-8.378	-8.315	-8.658
390.0	-311.1	-68.20	97.45	180.6	239.2	308.4	367.4	445.0	516.0	556.9	607.8	624.4	602.8	550.4	464.6	391.2	344.4	320.8	305.0	299.6	289.7	279.0	266.2	270.3	303.4	252.6	152.5	107.3	96.79	99.32	223.8	1092	4847	9999.9	9999.9	7705	24.20	9.296	3.053	-0.685	-2.731	-4.543	-5.190	-5.702	-5.799	-6.053	-5.459	-5.833	-5.368	-5.045	-4.745	-5.840	-5.943	-6.091	-6.073	-6.033	-6.516	-6.512	-6.542	-6.653	-6.583	-6.493	-6.682	-6.717	-6.892	-6.830	-7.133	-7.178	-7.254	-7.465	-7.439	-7.910	-7.802	-8.059	-8.360	-8.610	-8.745
395.0	-343.0	-115.0	54.80	137.3	224.5	296.2	348.9	416.3	470.3	497.0	538.1	559.3	532.7	485.9	428.3	369.1	333.2	314.6	304.5	302.7	296.8	285.8	276.9	259.9	257.4	280.4	234.4	135.2	103.9	89.11	104.9	288.9	1120	2566	9999.9	9999.9	2471	28.18	9.300	2.798	-0.622	-3.012	-4.351	-5.328	-5.703	-5.793	-5.269	-5.460	-5.399	-4.924	-4.734	-5.757	-6.006	-6.087	-6.202	-5.981	-6.542	-6.607	-6.772	-6.771	-6.712	-6.890	-6.726	-6.934	-7.215	-7.116	-7.361	-7.359	-7.323	-7.377	-7.561	-8.026	-8.036	-8.228	-8.392	-8.624	-8.677
400.0	-395.5	-140.7	9.934	121.2	208.9	267.2	337.9	396.1	429.0	463.0	485.3	487.6	480.1	447.0	402.1	353.7	324.9	308.8	302.8	300.1	296.2	292.4	282.3	263.4	244.0	248.2	275.2	186.7	120.0	95.49	83.85	114.2	289.4	611.8	3033	9999.9	9999.9	2224	23.52	6.532	1.705	-1.270	-3.428	-5.241	-5.445	-5.663	-5.012	-5.540	-5.297	-4.796	-4.647	-5.717	-5.994	-6.114	-6.183	-6.145	-6.554	-6.796	-6.830	-6.883	-6.928	-6.797	-7.048	-7.169	-7.321	-7.287	-7.444	-7.489	-7.614	-8.070	-7.939	-8.058	-8.277	-8.253	-8.642	-8.785	-8.921
405.0	-408.0	-169.7	-16.37	99.48	185.5	263.1	312.8	376.8	402.4	432.5	446.8	453.2	443.4	412.1	373.0	335.9	311.7	300.2	298.8	296.0	296.1	291.7	283.5	269.3	245.3	228.2	255.4	247.7	149.4	107.5	88.45	79.27	109.1	172.8	714.4	3827	9999.9	9999.9	1733	16.73	3.879	0.249	-2.350	-4.640	-4.939	-5.270	-5.081	-5.702	-5.370	-4.878	-4.765	-5.717	-5.990	-6.135	-6.290	-6.277	-6.703	-6.759	-7.181	-7.106	-6.967	-6.957	-7.215	-7.433	-7.553	-7.507	-7.569	-7.812	-7.894	-8.163	-8.275	-8.347	-8.394	-8.570	-8.578	-9.002	-9.151
410.0	-438.2	-205.1	-36.79	83.61	166.0	240.8	293.1	350.3	375.0	388.9	403.5	414.6	397.3	374.1	346.4	315.5	299.2	290.8	288.6	286.8	289.3	286.4	283.7	271.2	248.8	225.4	217.5	240.2	217.1	142.1	101.9	83.54	76.16	79.42	192.0	888.6	3820	9999.9	9999.9	7083	19.03	4.400	-0.706	-2.751	-3.857	-4.837	-4.720	-5.329	-5.337	-4.691	-4.775	-5.662	-5.970	-6.223	-6.294	-6.393	-6.907	-6.928	-7.026	-7.117	-6.979	-7.276	-7.421	-7.553	-7.790	-7.695	-7.841	-7.979	-8.108	-8.183	-8.362	-8.462	-8.642	-8.632	-8.744	-9.139	-9.269
415.0	-464.6	-222.2	-67.27	58.78	152.1	223.5	284.1	324.8	349.3	361.5	364.2	372.7	360.6	338.8	319.9	293.4	286.0	278.4	276.4	277.2	279.5	279.3	277.1	267.1	252.5	231.4	209.2	203.3	227.0	203.1	129.8	94.36	76.60	65.20	78.94	226.4	874.1	2403	9999.9	9999.9	9533	24.64	3.383	-0.228	-2.328	-3.943	-4.223	-5.226	-4.848	-4.485	-4.759	-5.767	-6.021	-6.228	-6.325	-6.414	-7.087	-7.011	-6.933	-7.032	-7.203	-7.341	-7.785	-7.640	-7.789	-7.955	-7.907	-8.133	-8.136	-8.193	-8.385	-8.556	-8.550	-8.688	-8.779	-9.257	-9.282
420.0	-494.8	-237.0	-74.36	46.91	132.5	207.9	268.4	316.2	332.1	347.2	351.7	349.9	337.2	319.6	296.9	282.3	274.3	269.3	266.9	266.5	267.9	270.4	269.8	263.1	250.9	230.8	209.0	193.4	200.0	225.6	169.8	106.6	81.14	65.76	56.63	81.35	218.4	558.4	2622	9999.9	9999.9	2133	19.23	2.272	-1.025	-2.751	-3.588	-4.720	-4.638	-4.463	-4.586	-5.702	-6.047	-6.118	-6.198	-6.399	-7.024	-6.909	-7.027	-6.998	-7.240	-7.376	-7.520	-7.630	-7.900	-8.139	-8.112	-8.389	-8.626	-8.487	-8.498	-8.753	-8.801	-8.870	-9.031	-9.280	-9.232
425.0	-485.9	-250.6	-89.50	48.29	128.2	203.0	257.8	306.3	322.2	327.6	326.4	329.3	313.2	299.1	282.0	267.5	263.0	259.2	254.4	258.1	258.6	261.1	264.4	258.9	247.6	230.4	208.6	194.6	185.0	204.9	203.8	131.2	89.36	71.18	56.38	51.57	75.06	146.6	605.4	3060	9999.9	9999.9	1717	13.44	1.474	-1.891	-2.755	-4.306	-4.685	-4.278	-4.358	-5.510	-5.988	-5.846	-6.233	-6.379	-7.013	-6.864	-6.968	-7.160	-7.390	-7.476	-7.714	-7.731	-7.959	-8.105	-8.167	-8.365	-8.689	-8.620	-8.741	-8.900	-8.894	-8.902	-8.868	-9.531	-9.411
430.0	-158.7	-279.5	-96.26	35.41	124.1	193.6	245.0	299.7	306.3	307.0	300.9	307.6	289.2	274.8	264.7	250.8	247.8	247.9	244.5	245.6	248.6	250.4	252.2	250.3	242.0	226.9	211.4	198.6	185.2	181.0	193.2	174.2	115.5	80.55	62.67	50.63	46.84	56.00	154.3	701.7	3049	9999.9	9999.9	6616	17.18	2.424	-0.733	-2.770	-3.670	-4.033	-4.222	-5.368	-5.827	-5.941	-6.218	-6.086	-6.929	-6.864	-6.949	-7.093	-7.442	-7.500	-7.660	-7.727	-7.999	-8.205	-8.237	-8.559	-8.700	-8.719	-8.873	-8.938	-9.006	-9.029	-9.138	-9.520	-9.696
435.0	800.6	-254.7	-110.2	29.38	116.3	174.7	236.7	291.0	295.8	291.2	290.6	279.3	270.0	255.6	247.6	236.9	236.7	235.7	233.7	234.0	237.0	237.0	240.3	240.8	235.2	227.1	210.8	199.7	189.6	177.3	168.1	176.6	158.1	101.6	71.22	57.33	45.22	39.74	55.79	173.7	695.5	2309	7791	9999.9	9660	23.71	3.813	-0.424	-2.336	-3.075	-3.757	-5.045	-5.599	-5.857	-5.944	-6.114	-6.768	-6.668	-6.772	-7.037	-7.249	-7.155	-7.735	-7.848	-8.019	-8.200	-8.355	-8.536	-8.600	-8.801	-8.971	-8.934	-9.092	-8.992	-9.191	-9.435	-9.525
440.0	1467	29.30	-118.0	13.88	108.2	169.3	231.8	286.1	299.9	286.5	284.8	264.3	257.9	243.9	238.5	223.4	225.9	227.2	225.5	224.7	225.7	227.3	229.8	230.9	228.0	221.9	207.9	197.5	189.3	178.2	160.9	158.7	168.3	129.2	82.44	63.54	48.90	39.13	36.39	59.29	172.1	531.4	1954	9999.9	9999.9	2049	19.03	2.745	-0.596	-1.925	-3.123	-4.745	-5.288	-5.777	-5.916	-6.110	-6.485	-6.647	-6.931	-6.912	-7.071	-7.356	-7.638	-7.779	-8.056	-8.064	-8.449	-8.736	-8.728	-8.919	-8.939	-8.903	-9.239	-9.050	-9.252	-9.316	-9.629
445.0	1206	720.8	-121.8	11.47	100.1	168.2	216.8	277.8	291.8	280.8	274.5	259.0	240.0	235.4	226.1	217.4	216.4	216.3	214.0	217.7	217.3	219.8	222.8	221.7	220.6	211.4	203.6	195.1	188.6	177.9	161.9	148.5	151.5	148.0	99.46	70.17	54.54	42.98	35.84	37.92	58.48	135.8	455.1	2759	9999.9	9999.9	1583	15.00	1.733	-0.531	-2.378	-4.174	-4.795	-5.557	-5.749	-6.064	-6.539	-6.738	-6.849	-7.080	-7.413	-7.494	-7.811	-7.948	-8.110	-8.158	-8.247	-8.565	-8.706	-8.928	-8.980	-8.927	-9.078	-9.337	-9.278	-9.518	-9.629
450.0	208.6	1530	246.5	1.860	86.62	154.3	202.7	261.0	278.9	266.3	260.4	248.0	230.1	213.0	208.5	197.1	201.9	199.8	197.7	200.4	199.5	205.8	208.5	210.0	208.0	199.8	192.9	185.8	179.6	173.7	159.6	143.4	131.9	134.1	122.4	88.36	61.31	48.44	40.90	36.36	37.19	50.93	120.4	636.7	2796	9999.9	9999.9	6327	92.97	2.963	-0.503	-2.681	-3.976	-5.069	-5.627	-5.675	-6.600	-6.486	-6.759	-7.017	-7.270	-7.254	-7.640	-7.793	-7.967	-8.277	-8.334	-8.517	-8.558	-8.917	-9.099	-8.965	-9.314	-9.292	-9.296	-9.538	-9.744
455.0	-402.4	1131	988.4	25.89	62.08	131.2	179.5	247.3	261.8	251.6	235.8	221.9	203.1	193.9	183.4	179.5	180.0	178.9	181.0	182.8	180.9	185.3	188.9	190.9	188.9	183.8	178.0	171.8	168.7	163.1	152.6	137.4	122.3	112.2	116.3	107.2	73.16	52.22	44.04	36.98	31.84	32.15	44.92	159.6	640.5	2281	5859	9999.9	8644	19.15	2.978	-0.911	-2.950	-4.070	-4.917	-5.419	-6.311	-6.534	-6.873	-7.079	-6.989	-7.541	-7.621	-7.916	-8.230	-8.365	-8.610	-8.623	-8.930	-9.105	-9.033	-9.098	-9.262	-9.435	-9.478	-9.561	-9.865
460.0	-565.0	298.8	2022	336.5	53.75	108.8	171.3	223.9	238.6	235.3	214.3	202.2	183.5	173.7	167.2	164.3	163.8	166.4	165.5	163.4	166.3	168.6	173.8	175.9	177.2	170.6	167.8	160.3	161.5	154.3	145.6	132.7	115.5	103.4	99.21	106.7	87.14	55.78	43.57	36.83	31.01	27.41	26.74	50.67	157.6	523.6	1415	7811	9999.9	1618	15.99	1.785	-1.421	-3.415	-4.416	-5.115	-6.209	-6.313	-6.710	-7.252	-7.266	-7.281	-7.642	-7.895	-8.266	-8.416	-8.563	-8.758	-8.758	-8.962	-9.204	-9.248	-9.419	-9.525	-9.592	-9.730	-10.01
465.0	-602.3	-182.4	1828	1128	54.36	83.88	148.9	204.8	223.5	216.9	199.9	182.1	168.1	154.5	151.4	147.2	146.0	152.1	151.7	150.0	151.0	154.9	158.5	159.2	162.8	157.4	158.1	151.1	150.9	147.3	136.6	125.7	109.9	97.08	88.62	89.72	91.97	64.58	44.24	36.49	29.60	25.35	21.53	25.89	48.51	129.0	328.2	1997	9999.9	9999.9	1417	14.91	0.843	-1.810	-3.588	-4.365	-5.440	-5.866	-6.497	-7.114	-7.248	-7.323	-7.672	-7.943	-8.077	-8.195	-8.561	-8.840	-8.993	-9.054	-9.182	-9.436	-9.356	-9.624	-9.547	-9.918	-10.04
470.0	-603.1	-340.8	669.3	2238	349.7	74.07	125.3	170.8	195.7	187.8	177.3	159.6	144.5	136.4	129.1	127.0	127.9	133.2	130.8	132.1	133.6	135.3	138.7	141.5	142.8	139.9	138.8	134.7	133.3	130.3	124.3	114.6	101.0	88.98	79.26	73.96	76.94	71.62	51.10	36.18	29.28	24.16	19.89	18.94	22.85	38.61	81.20	452.8	2553	7571	9999.9	6186	103.0	1.439	-1.848	-3.488	-4.822	-5.897	-6.358	-6.899	-7.126	-7.232	-7.807	-7.985	-7.963	-8.265	-8.540	-8.829	-9.092	-9.184	-9.291	-9.465	-9.508	-9.669	-9.640	-9.979	-10.14
475.0	-601.4	-397.3	-4.957	1732	1967	132.5	105.1	145.7	171.5	166.9	150.0	134.4	125.0	115.8	114.9	107.2	112.3	112.9	111.2	110.3	112.1	115.3	121.0	123.4	124.0	121.4	118.9	118.3	116.7	116.0	110.2	101.1	90.89	80.01	72.14	63.74	59.73	61.26	60.06	41.11	29.19	22.95	19.38	17.22	15.70	17.15	23.79	104.7	571.6	1701	3822	9999.9	7517	22.29	0.742	-2.547	-4.326	-5.530	-6.187	-6.795	-7.161	-7.428	-7.712	-8.036	-8.203	-8.491	-8.556	-8.987	-9.202	-9.357	-9.485	-9.432	-9.691	-9.805	-9.940	-10.01	-10.23
480.0	-610.8	-390.0	-175.9	697.4	3096	412.1	88.72	128.0	153.1	147.9	131.9	121.6	109.3	99.47	99.95	97.87	99.73	99.48	100.7	101.2	102.3	106.6	107.0	110.0	110.6	107.5	105.4	107.0	104.9	103.5	100.8	92.29	83.54	75.94	67.01	59.87	53.17	50.43	56.89	47.17	30.71	21.97	19.10	16.58	14.03	12.01	10.84	26.43	129.8	382.3	883.0	4708	9999.9	1873	19.38	-0.099	-3.529	-4.650	-5.437	-6.586	-6.897	-7.253	-7.631	-8.094	-8.377	-8.376	-8.665	-9.067	-9.329	-9.252	-9.411	-9.582	-9.632	-9.760	-9.917	-10.15	-10.33
485.0	-632.6	-391.3	-207.9	117.1	2859	1876	101.5	110.7	138.6	132.9	119.2	108.1	96.78	91.04	88.11	88.59	88.97	88.89	90.43	92.05	91.87	95.38	98.41	99.02	99.33	99.21	95.92	97.95	96.65	94.47	91.20	86.17	78.26	71.15	61.75	55.85	48.83	43.52	45.30	49.14	35.68	22.16	18.43	14.99	13.08	9.507	7.794	8.592	31.10	87.29	200.6	1132	6732	9999.9	1719	14.45	-1.387	-3.923	-5.070	-5.957	-6.688	-7.279	-7.554	-8.112	-8.439	-8.649	-8.692	-8.907	-9.344	-9.424	-9.424	-9.550	-9.691	-9.904	-9.932	-10.03	-10.47
490.0	-683.2	-387.2	-224.1	-67.73	1212	3744	861.9	96.58	117.7	115.9	101.4	89.26	82.18	76.70	75.08	76.01	76.22	76.83	77.90	79.48	80.51	83.91	85.25	87.31	88.88	87.11	85.67	86.18	84.35	84.52	81.10	76.59	69.83	63.88	56.36	50.39	44.72	39.52	36.63	39.80	39.23	27.13	17.98	13.94	11.71	8.759	6.594	4.553	8.486	21.17	46.38	254.1	1623	5479	9999.9	6278	121.7	1.031	-4.173	-5.252	-6.134	-6.928	-7.465	-7.930	-8.319	-8.588	-8.751	-8.995	-9.187	-9.392	-9.459	-9.614	-9.798	-9.953	-10.00	-10.18	-10.53
495.0	-677.7	-417.7	-216.3	-120.9	230.0	2939	3257	194.0	102.2	97.17	85.19	73.31	64.94	65.49	60.76	61.25	63.91	65.96	66.27	68.00	69.32	70.21	73.02	75.56	77.70	74.45	74.65	73.51	74.29	74.66	71.90	67.25	61.29	55.04	51.04	44.03	40.15	35.12	31.23	29.72	32.73	31.62	20.92	13.19	10.27	7.668	6.201	3.183	3.561	6.159	11.53	57.01	361.8	1224	3372	9999.9	8628	195.5	-1.235	-4.369	-5.783	-6.546	-6.987	-7.806	-8.417	-8.652	-8.717	-9.078	-9.218	-9.396	-9.492	-9.667	-9.706	-9.908	-10.08	-10.24	-10.57
500.0	-711.2	-450.2	-206.8	-132.6	-8.731	1283	5202	922.9	81.76	82.83	73.25	62.83	55.33	56.52	53.20	50.45	53.98	56.01	57.98	59.26	61.32	60.82	63.58	65.94	67.63	64.69	65.87	65.27	64.76	67.29	64.06	59.65	54.98	49.49	45.85	40.60	36.51	32.45	28.42	25.94	25.70	28.91	24.65	14.63	9.283	7.398	5.372	2.829	2.189	3.096	3.596	12.87	80.37	273.2	767.3	4113	9999.9	6364	22.29	-2.594	-5.226	-6.158	-7.027	-7.803	-8.383	-8.617	-8.891	-9.088	-9.394	-9.491	-9.628	-9.727	-9.854	-9.930	-10.10	-10.21	-10.58
505.0	-699.5	-472.6	-227.0	-124.2	-64.28	333.7	4795	2669	105.0	73.66	65.46	52.56	48.36	47.43	44.06	45.52	46.99	47.64	51.19	50.70	53.67	55.45	55.94	58.06	58.36	57.17	57.74	56.94	57.22	58.23	56.30	54.20	49.57	45.07	41.04	37.30	32.99	28.92	25.74	22.67	21.22	22.47	25.76	17.99	9.892	7.518	5.416	2.857	1.816	2.407	1.834	2.629	17.38	60.38	172.2	963.6	5455	9999.9	1928	15.80	-4.335	-5.895	-6.952	-7.527	-8.059	-8.607	-8.851	-9.122	-9.463	-9.501	-9.665	-9.924	-9.906	-10.07	-10.23	-10.31	-10.66
510.0	-711.1	-489.7	-269.4	-113.0	-82.67	33.81	2029	5621	972.1	56.84	49.69	40.46	37.53	35.39	35.39	36.29	36.34	39.07	40.17	41.45	44.14	45.90	47.34	49.77	49.52	49.88	48.92	47.82	48.76	48.87	48.13	45.25	42.54	38.32	34.36	32.40	28.34	25.78	22.79	19.30	17.53	15.99	19.70	20.00	12.81	6.904	4.809	2.633	1.572	1.786	1.556	-0.001	2.821	12.17	37.33	214.4	1285	4684	8656	5022	123.1	-2.158	-6.198	-7.295	-7.760	-8.331	-8.675	-9.006	-9.394	-9.592	-9.741	-9.847	-10.07	-10.06	-10.24	-10.39	-10.70
515.0	-744.2	-501.9	-298.5	-124.7	-73.60	-47.90	450.5	4610	4356	146.6	34.38	29.30	26.16	24.36	24.27	27.09	27.77	29.62	31.78	30.50	35.28	35.21	39.59	40.89	41.21	40.63	39.74	39.96	39.73	40.66	39.29	37.50	34.54	31.91	30.40	26.93	23.82	21.57	18.59	15.92	13.84	12.31	12.05	16.93	16.08	8.670	4.005	1.975	1.530	1.164	1.136	-0.877	-1.056	0.877	6.111	45.63	283.8	1043	2676	8424	6477	191.3	-3.878	-6.489	-7.363	-8.116	-8.559	-8.917	-9.482	-9.573	-9.719	-9.998	-10.12	-10.26	-10.33	-10.47	-10.82
520.0	-735.5	-507.6	-315.1	-152.0	-53.80	-69.39	72.43	2038	7133	929.2	26.46	22.68	19.34	13.41	18.10	18.36	19.68	23.41	26.00	26.85	28.36	30.18	32.26	34.12	33.44	33.41	33.61	34.13	33.51	34.02	32.92	31.32	29.06	26.85	24.72	22.42	19.26	18.33	15.81	13.19	11.95	9.475	8.834	10.90	14.52	11.30	4.964	1.637	1.209	0.765	0.602	-0.938	-1.371	-1.946	-1.063	7.455	60.34	229.7	602.9	3182	9376	2122	21.19	-4.875	-7.051	-7.780	-8.430	-8.945	-9.465	-9.606	-9.783	-9.935	-10.05	-10.24	-10.28	-10.47	-10.74
525.0	-750.3	-513.5	-319.4	-181.5	-51.01	-62.30	-21.54	567.5	6926	2331	44.57	13.82	13.48	9.672	11.84	14.22	15.33	18.92	19.54	22.01	23.04	25.45	27.04	28.80	28.67	29.53	28.04	28.25	29.11	28.73	28.26	26.58	24.80	22.70	20.54	19.49	16.63	15.14	13.84	11.60	10.05	7.898	7.135	7.092	10.05	12.24	7.371	1.696	0.411	0.441	0.333	-1.654	-1.977	-2.579	-2.756	-1.063	10.06	48.23	131.7	736.1	4268	8372	1848	13.92	-6.042	-7.323	-8.297	-8.669	-9.321	-9.634	-9.825	-9.919	-10.08	-10.24	-10.37	-10.59	-10.97
530.0	-746.0	-513.7	-325.4	-202.2	-81.53	-37.38	-51.19	109.6	3043	6850	830.3	7.732	4.257	3.531	6.060	7.173	9.312	12.44	14.32	15.55	17.29	18.43	20.95	22.54	22.49	22.53	21.66	22.20	22.91	22.66	23.26	21.34	19.67	17.89	16.49	15.72	13.20	11.65	10.50	8.841	7.730	5.967	4.708	4.560	5.099	8.288	8.950	3.271	0.526	0.047	-0.113	-2.132	-2.501	-2.946	-3.018	-3.189	-1.308	6.969	25.52	160.7	994.6	3542	6141	3716	120.5	-4.230	-7.716	-8.395	-9.014	-9.436	-9.693	-9.907	-10.09	-10.25	-10.42	-10.57	-10.92
535.0	-743.6	-521.3	-342.6	-212.7	-126.1	-20.30	-49.76	-6.333	701.5	5988	4571	63.45	-2.383	-1.403	-0.365	2.186	4.005	6.165	8.253	9.322	12.23	14.91	15.45	15.08	15.99	16.31	16.07	15.88	17.49	16.18	16.92	15.74	15.78	13.72	12.55	11.73	9.821	8.230	7.295	5.647	5.481	3.685	2.544	2.331	2.298	3.101	6.489	5.347	1.419	-0.494	-0.645	-2.747	-3.102	-3.409	-2.793	-3.104	-3.850	-2.810	1.289	31.74	218.0	787.0	1845	5857	4624	24.74	-5.390	-7.898	-8.674	-9.281	-9.518	-9.794	-10.16	-10.23	-10.34	-10.69	-10.97
540.0	-758.0	-527.9	-348.3	-221.9	-144.5	-36.11	-31.10	-35.32	143.2	2683	7947	592.6	-7.105	-5.601	-3.849	-2.917	-1.068	1.606	3.222	5.266	7.347	9.179	10.90	12.07	12.28	12.65	12.39	12.36	12.66	12.75	13.04	12.06	11.79	10.61	9.842	8.654	7.556	6.245	4.674	4.187	3.757	2.369	0.958	1.075	1.065	0.664	2.997	5.258	2.836	-0.198	-0.757	-2.847	-3.467	-3.724	-3.567	-3.472	-4.364	-4.739	-4.068	2.587	44.42	171.8	413.6	2156	6432	2053	20.43	-6.975	-8.306	-9.056	-9.325	-9.600	-10.01	-10.22	-10.34	-10.54	-10.96
545.0	-743.1	-531.8	-343.3	-225.2	-156.8	-77.09	-3.163	-43.63	13.58	747.4	7979	1782	-3.127	-10.41	-8.425	-6.506	-4.079	-2.105	0.750	1.799	4.226	5.663	6.362	8.023	8.221	8.949	8.062	8.757	8.946	9.679	9.530	8.738	8.889	7.227	6.697	6.223	5.587	4.008	2.890	2.943	2.001	0.875	0.100	-0.148	-0.347	-0.632	0.385	2.418	3.258	0.745	-0.979	-2.936	-3.780	-3.745	-3.867	-3.682	-4.235	-5.365	-5.483	-3.967	5.774	34.80	89.48	494.3	2833	5792	1711	12.88	-7.531	-8.811	-9.397	-9.465	-9.896	-10.09	-10.48	-10.59	-10.94
550.0	-738.9	-529.4	-344.2	-225.9	-164.7	-108.5	-6.869	-28.86	-24.61	154.5	3467	6645	495.0	-12.90	-12.46	-11.16	-8.518	-5.909	-3.425	-2.303	0.130	1.622	2.149	3.495	4.524	4.843	3.908	4.467	4.359	5.256	5.482	4.730	4.847	3.812	3.481	3.076	2.277	1.755	1.210	0.393	-0.117	-0.816	-1.118	-1.666	-1.834	-1.972	-1.082	-0.702	1.456	1.647	-0.735	-3.343	-4.345	-4.197	-4.470	-4.345	-4.889	-5.190	-6.240	-5.933	-3.445	3.350	15.83	106.5	654.3	2329	4097	2156	119.0	-5.917	-8.998	-9.462	-9.865	-10.07	-10.42	-10.65	-10.96
555.0	-743.8	-532.0	-341.1	-230.2	-173.9	-126.8	-47.24	7.203	-32.76	13.99	800.3	6428	3309	6.452	-16.73	-14.35	-12.29	-8.920	-6.942	-6.034	-4.207	-3.155	-1.562	-0.776	1.080	0.200	0.057	0.525	0.377	1.188	1.543	0.882	1.205	0.714	0.138	-0.009	-0.178	-0.890	-0.647	-1.669	-1.727	-2.483	-2.594	-2.986	-2.957	-3.629	-2.916	-3.089	-1.797	0.381	-0.232	-3.498	-4.762	-4.930	-5.211	-5.243	-6.143	-6.090	-6.152	-6.917	-6.057	-4.540	-1.383	18.86	140.7	514.3	1178	3528	2177	25.24	-7.473	-9.168	-9.838	-9.952	-10.34	-10.51	-10.98
560.0	-748.3	-521.7	-347.5	-233.0	-177.9	-135.1	-79.32	20.09	-26.31	-22.63	164.4	3043	6669	119.0	-18.75	-16.79	-14.52	-11.45	-9.799	-8.228	-7.122	-5.193	-4.174	-3.407	-2.560	-2.591	-2.037	-2.205	-1.449	-1.431	-1.030	-1.238	-1.119	-1.742	-1.806	-1.187	-2.208	-2.774	-2.896	-3.340	-3.035	-3.511	-3.843	-4.230	-3.900	-4.297	-3.641	-4.190	-3.569	-1.433	-0.514	-3.522	-5.052	-5.526	-5.702	-5.806	-6.681	-6.846	-6.697	-6.880	-7.206	-6.795	-5.529	-1.461	25.88	109.1	260.0	1253	3726	1900	19.86	-8.529	-9.586	-9.858	-10.20	-10.61	-10.96
565.0	-741.4	-509.9	-343.0	-237.4	-181.0	-140.4	-97.87	3.491	-7.102	-31.73	19.72	872.7	7539	1146	-17.09	-18.74	-17.00	-14.58	-12.65	-10.45	-8.742	-7.672	-6.590	-5.755	-4.358	-4.172	-4.032	-3.982	-3.280	-3.939	-3.158	-2.874	-3.177	-3.895	-3.059	-2.759	-2.816	-4.001	-3.995	-4.206	-4.023	-4.548	-4.982	-4.891	-4.600	-5.266	-4.478	-4.801	-4.280	-3.135	-1.538	-3.314	-4.999	-5.873	-6.175	-6.317	-7.015	-7.184	-7.331	-7.125	-7.325	-7.615	-7.129	-6.276	-0.328	18.08	52.22	280.7	1562	3605	1424	11.50	-9.177	-9.778	-10.15	-10.45	-11.01
570.0	-741.4	-508.8	-340.8	-235.6	-180.9	-141.5	-106.4	-41.33	21.67	-26.25	-12.70	187.6	3699	5115	252.6	-20.39	-18.63	-16.33	-14.20	-12.88	-10.68	-9.693	-8.752	-7.775	-6.661	-6.799	-6.451	-6.312	-5.949	-5.762	-5.452	-5.171	-5.054	-5.150	-4.499	-4.602	-4.678	-4.897	-5.153	-5.423	-5.431	-5.807	-6.024	-5.972	-5.739	-5.873	-5.235	-5.783	-5.061	-4.223	-3.342	-3.890	-4.725	-5.941	-6.541	-6.697	-7.439	-7.643	-7.911	-7.807	-7.463	-7.810	-8.035	-7.761	-6.469	-2.486	5.256	56.24	354.3	1377	2475	1216	107.5	-7.574	-9.973	-10.47	-10.93
575.0	-741.7	-508.5	-342.1	-241.3	-184.4	-143.2	-113.0	-70.39	19.05	-0.840	-18.10	31.77	877.7	5770	2092	-12.75	-19.39	-17.85	-16.34	-14.59	-12.63	-11.57	-9.866	-9.599	-8.707	-8.314	-8.314	-8.033	-7.804	-8.017	-7.615	-7.206	-6.727	-6.955	-6.184	-6.043	-5.915	-6.405	-6.476	-6.113	-6.605	-6.693	-6.823	-6.698	-6.620	-6.418	-5.640	-6.291	-5.623	-4.981	-4.523	-5.416	-4.945	-5.627	-6.871	-6.984	-7.775	-7.977	-8.240	-8.305	-7.991	-7.618	-8.242	-8.336	-8.323	-7.384	-5.793	5.588	71.99	300.0	679.1	1982	1860	24.36	-9.033	-10.19	-10.84
580.0	-729.9	-509.6	-339.9	-240.8	-183.1	-146.7	-109.5	-78.71	-8.278	29.51	-14.90	-1.434	188.7	3050	4857	62.08	-20.15	-19.21	-17.20	-15.79	-14.07	-12.94	-11.45	-10.76	-10.28	-9.645	-9.491	-9.475	-9.132	-8.766	-9.009	-8.293	-7.882	-7.817	-7.337	-6.706	-6.859	-7.131	-7.085	-6.900	-7.073	-7.120	-7.471	-7.120	-7.094	-6.662	-6.121	-6.470	-5.912	-5.282	-4.953	-6.263	-5.903	-5.622	-6.510	-7.034	-8.121	-8.200	-8.385	-8.490	-8.404	-7.976	-8.065	-8.312	-8.789	-8.662	-8.357	-5.832	8.843	59.81	145.8	679.2	2261	1373	17.88	-9.678	-10.72
585.0	-738.5	-512.4	-344.4	-238.8	-184.1	-146.4	-111.6	-79.96	-30.21	49.58	-6.141	-7.451	34.64	918.6	6046	684.2	-19.04	-19.78	-17.89	-16.80	-14.60	-13.40	-12.73	-11.86	-11.01	-10.68	-10.50	-10.16	-9.948	-10.03	-9.785	-8.955	-8.535	-8.237	-7.834	-7.433	-7.666	-7.667	-7.400	-7.413	-7.517	-7.732	-7.868	-7.368	-7.533	-7.191	-6.555	-6.955	-6.309	-5.634	-5.368	-6.735	-6.653	-5.958	-6.460	-7.053	-8.164	-8.306	-8.568	-8.565	-8.610	-8.423	-8.130	-8.288	-8.760	-8.992	-8.967	-8.539	-5.435	6.102	25.45	148.2	889.4	2150	918.1	9.481	-10.15
590.0	-753.4	-504.6	-340.2	-239.7	-184.7	-144.4	-111.6	-80.46	-47.44	28.90	22.36	-5.109	1.290	201.3	3184	3425	34.33	-19.65	-18.62	-17.50	-15.55	-14.79	-13.80	-12.76	-12.10	-11.54	-11.28	-11.11	-10.84	-10.70	-10.30	-9.881	-9.522	-9.183	-8.566	-8.086	-8.364	-8.435	-8.084	-8.152	-7.908	-8.200	-8.414	-8.117	-7.893	-7.713	-6.961	-7.280	-6.794	-5.845	-5.702	-7.038	-7.214	-6.715	-6.293	-6.739	-8.029	-8.413	-8.747	-8.697	-8.778	-8.608	-8.598	-8.238	-8.750	-9.194	-9.328	-9.266	-8.698	-6.250	-1.771	25.58	196.2	768.7	1453	872.8	100.5
595.0	-738.2	-517.5	-337.7	-239.1	-182.2	-146.1	-112.7	-81.67	-53.37	-5.886	49.32	2.397	-3.776	33.61	766.5	4409	741.9	-18.05	-19.23	-17.91	-16.50	-15.75	-14.69	-13.44	-12.92	-12.83	-12.35	-11.85	-11.93	-11.39	-11.34	-10.45	-10.08	-9.772	-9.434	-8.749	-8.953	-9.149	-8.630	-8.816	-8.215	-8.660	-8.711	-8.655	-8.377	-8.172	-7.260	-7.587	-7.024	-6.130	-5.986	-7.373	-7.511	-7.446	-6.925	-6.853	-7.768	-8.589	-8.923	-8.828	-8.966	-8.774	-8.819	-8.795	-8.660	-9.176	-9.470	-9.563	-9.648	-9.118	-8.217	-2.045	35.91	163.6	380.0	1134	1188
600.0	-744.3	-513.9	-343.3	-239.4	-184.5	-147.7	-113.3	-80.82	-57.14	-23.12	50.47	18.19	-4.607	-4.159	158.5	2620	2864	22.65	-19.03	-17.93	-16.92	-16.36	-15.46	-14.21	-13.75	-12.62	-12.93	-12.32	-12.26	-12.19	-11.71	-11.10	-10.39	-10.34	-9.718	-9.025	-9.124	-9.118	-9.171	-9.001	-8.880	-8.967	-8.926	-9.043	-8.587	-8.439	-7.423	-7.909	-7.223	-6.388	-6.224	-7.525	-7.785	-7.742	-7.457	-7.076	-7.595	-8.398	-8.813	-8.907	-9.031	-9.005	-9.097	-9.098	-9.003	-9.078	-9.467	-9.557	-10.03	-9.785	-9.655	-8.328	0.202	28.58	77.50	366.4	1317
605.0	-753.1	-519.6	-345.4	-243.2	-186.1	-144.9	-112.2	-82.73	-57.66	-30.46	27.57	31.38	-3.227	-11.19	19.92	863.3	4165	353.9	-18.66	-18.28	-17.14	-16.34	-15.64	-14.35	-14.09	-13.47	-13.42	-13.13	-12.53	-12.51	-11.77	-11.39	-10.69	-10.37	-10.07	-9.393	-9.214	-9.640	-9.318	-9.314	-9.173	-9.294	-9.318	-9.131	-8.767	-8.490	-7.727	-7.886	-7.374	-6.621	-6.377	-7.567	-7.895	-7.949	-7.958	-7.550	-7.856	-8.337	-8.844	-8.941	-9.037	-9.123	-9.168	-9.188	-9.416	-8.984	-9.384	-9.547	-10.03	-9.985	-9.964	-9.955	-7.855	-1.607	9.365	75.29	491.8
610.0	-754.9	-524.0	-346.9	-241.8	-183.6	-144.8	-111.9	-84.35	-56.49	-34.95	1.951	48.12	3.806	-10.15	-10.54	186.5	2585	2210	14.58	-18.13	-17.37	-16.58	-15.98	-15.12	-14.35	-13.67	-13.46	-13.33	-13.26	-12.96	-12.30	-11.82	-11.13	-10.66	-10.18	-9.640	-9.481	-9.760	-9.480	-9.483	-9.538	-9.594	-9.548	-9.289	-8.942	-8.830	-7.902	-8.159	-7.548	-6.782	-6.452	-7.776	-8.052	-8.213	-8.167	-8.104	-8.406	-8.486	-8.802	-9.055	-9.223	-9.194	-9.331	-9.389	-9.560	-9.363	-9.449	-9.558	-9.939	-10.18	-10.20	-10.20	-9.868	-8.449	-5.993	8.594	103.8
615.0	-769.2	-531.2	-346.7	-242.0	-184.6	-145.8	-110.7	-84.34	-55.69	-34.86	-14.07	35.50	23.13	-11.63	-16.99	26.50	663.8	3364	496.1	-17.37	-17.83	-17.02	-16.34	-15.29	-14.71	-14.36	-13.63	-13.60	-13.82	-13.24	-12.60	-12.42	-11.45	-11.01	-10.41	-9.831	-9.695	-9.864	-9.701	-9.913	-9.684	-9.734	-9.662	-9.516	-9.201	-9.167	-8.061	-8.253	-7.750	-6.943	-6.545	-7.972	-8.141	-8.303	-8.323	-8.325	-8.837	-8.649	-8.774	-9.027	-9.165	-9.387	-9.415	-9.527	-9.649	-9.671	-9.767	-9.687	-9.875	-10.15	-10.28	-10.39	-10.41	-10.06	-9.593	-6.534	14.50
620.0	-763.0	-531.8	-351.5	-241.0	-185.4	-147.3	-112.0	-85.46	-56.16	-35.28	-15.59	15.42	34.02	-7.768	-17.96	-10.76	138.6	2290	1899	-2.458	-17.62	-16.99	-16.45	-15.57	-14.60	-14.71	-14.06	-13.96	-13.78	-13.57	-13.12	-12.55	-11.83	-11.45	-10.63	-10.03	-9.982	-10.12	-9.888	-9.957	-9.805	-9.858	-9.833	-9.532	-9.199	-9.098	-8.239	-8.346	-7.829	-6.982	-6.634	-8.003	-8.263	-8.398	-8.471	-8.365	-8.950	-8.961	-8.777	-8.986	-9.232	-9.387	-9.579	-9.496	-9.855	-9.611	-9.813	-9.849	-9.817	-10.06	-10.30	-10.43	-10.50	-10.42	-10.42	-9.916	-5.354
625.0	-761.7	-529.0	-354.9	-244.6	-185.8	-147.3	-115.8	-83.98	-61.15	-37.09	-19.95	0.877	37.90	-0.849	-17.21	-18.13	15.66	845.4	3144	56.69	-17.27	-16.96	-16.58	-15.88	-15.08	-14.42	-14.33	-14.17	-13.92	-13.73	-13.34	-12.58	-12.08	-11.52	-11.13	-10.19	-10.24	-10.38	-10.08	-9.902	-9.905	-10.13	-10.06	-9.768	-9.433	-9.200	-8.219	-8.593	-7.902	-7.054	-6.590	-8.088	-8.339	-8.456	-8.471	-8.512	-9.085	-9.115	-8.963	-8.967	-9.184	-9.475	-9.596	-9.625	-9.797	-9.705	-9.779	-10.05	-9.994	-9.974	-10.26	-10.46	-10.54	-10.57	-10.72	-10.63	-9.873
630.0	-771.8	-532.7	-352.9	-244.2	-184.8	-147.4	-113.5	-86.10	-62.36	-38.95	-21.58	-5.983	24.43	13.46	-15.58	-20.30	-12.90	187.2	2245	1351	2.436	-16.64	-16.37	-15.71	-15.26	-14.91	-14.50	-14.45	-14.18	-14.10	-13.61	-12.93	-12.29	-11.83	-11.29	-10.37	-10.46	-10.53	-10.25	-10.04	-9.909	-10.30	-10.16	-9.806	-9.550	-9.425	-8.428	-8.651	-8.022	-7.150	-6.782	-8.159	-8.448	-8.495	-8.587	-8.623	-9.248	-9.280	-9.230	-9.234	-9.188	-9.387	-9.609	-9.791	-9.822	-9.745	-9.927	-10.01	-10.11	-10.17	-10.16	-10.47	-10.60	-10.63	-10.74	-10.95	-10.88
635.0	-756.1	-537.4	-352.9	-244.2	-184.7	-148.0	-113.6	-85.07	-62.69	-40.92	-25.95	-7.538	6.707	24.33	-10.86	-20.20	-19.58	26.68	616.9	2780	326.3	-15.80	-16.60	-15.89	-15.47	-15.06	-14.78	-14.35	-14.29	-14.12	-13.70	-13.10	-12.45	-11.88	-11.24	-10.50	-10.61	-10.62	-10.31	-10.29	-10.14	-10.14	-10.11	-9.934	-9.605	-9.568	-8.462	-8.720	-8.089	-7.179	-6.864	-8.189	-8.412	-8.530	-8.667	-8.613	-9.377	-9.368	-9.457	-9.416	-9.317	-9.454	-9.706	-9.782	-9.809	-9.894	-10.05	-10.08	-10.29	-10.34	-10.28	-10.40	-10.51	-10.68	-10.87	-11.07	-11.16
640.0	-767.4	-540.8	-352.9	-247.2	-187.7	-147.2	-117.5	-86.80	-62.67	-42.78	-23.69	-10.48	0.483	21.36	-3.011	-19.60	-21.01	-9.906	129.8	2163	1328	-7.772	-16.22	-15.95	-15.54	-14.91	-14.92	-14.62	-14.58	-14.21	-13.86	-13.27	-12.55	-12.17	-11.40	-10.67	-10.70	-10.76	-10.29	-10.43	-10.18	-10.14	-10.14	-10.06	-9.658	-9.552	-8.627	-8.820	-8.069	-7.245	-6.892	-8.186	-8.486	-8.589	-8.715	-8.706	-9.365	-9.393	-9.526	-9.491	-9.445	-9.369	-9.644	-9.751	-9.831	-10.04	-9.996	-10.13	-10.24	-10.34	-10.48	-10.42	-10.54	-10.74	-10.87	-11.10	-11.35
645.0	-765.3	-529.9	-345.1	-246.3	-189.9	-147.2	-118.8	-86.98	-65.60	-43.54	-23.30	-9.320	-1.597	9.957	6.188	-18.61	-21.04	-18.71	14.69	898.9	2449	42.53	-15.58	-15.86	-15.49	-15.12	-14.89	-14.65	-14.52	-14.21	-13.80	-13.40	-12.56	-12.19	-11.38	-10.92	-10.77	-10.74	-10.49	-10.44	-10.17	-10.21	-10.31	-10.12	-9.797	-9.518	-8.574	-8.774	-8.133	-7.234	-6.914	-8.213	-8.456	-8.649	-8.710	-8.710	-9.376	-9.383	-9.657	-9.613	-9.560	-9.537	-9.703	-9.767	-9.900	-9.961	-10.05	-10.12	-10.30	-10.37	-10.49	-10.49	-10.51	-10.60	-10.89	-11.09	-11.33
650.0	-777.2	-532.3	-339.9	-243.4	-186.9	-149.6	-118.4	-88.14	-64.25	-41.47	-22.57	-9.706	-3.249	0.325	12.34	-15.29	-20.58	-19.71	-11.17	225.4	2505	478.4	-14.39	-15.36	-15.03	-14.98	-15.08	-14.59	-14.62	-14.28	-13.62	-13.36	-12.67	-12.23	-11.48	-10.76	-10.85	-10.78	-10.61	-10.37	-10.14	-10.27	-10.24	-10.09	-9.685	-9.679	-8.588	-8.860	-8.164	-7.250	-6.927	-8.249	-8.511	-8.634	-8.658	-8.731	-9.335	-9.480	-9.581	-9.673	-9.654	-9.579	-9.679	-9.791	-9.964	-9.955	-10.04	-10.11	-10.31	-10.37	-10.50	-10.54	-10.50	-10.60	-10.82	-11.12	-11.40
