Sample:	'1
File name:	河段-五机部农场.FD3
Run date:	'14:32:46, 03/20/2025
Operator:	Administrator
Comment:	'

Instrument
Model:	F-2700 FL Spectrophotometer
Serial number:	23B8-004
ROM Version:	4J14000 07

Instrument parameters
Measurement type:	3-D scan
Data mode:	Fluorescence
EX  Start WL:	220.0 nm
EX  End WL:	600.0 nm
EX Sampling interval:	5.0 nm
EM  Start WL:	230.0 nm
EM  End WL:	650.0 nm
EM Sampling interval:	5.0 nm
Scan speed:	12000 nm/min
EX Slit:	5.0 nm
EM Slit:	5.0 nm
PMT Voltage:	700 V
Response:	Auto 
Corrected spectra:	Off
Contour interval:	50.000

Peak integration
Integration method:	Rectangular
Sensitivity:	1
Threshold:	1.000

Peaks
No.	ApexEX/EM(nm)	Height(Data)
1	225.0/335.0	3056
2	225.0/595.0	79.94
3	225.0/610.0	91.46
4	230.0/635.0	98.22
5	240.0/525.0	260.6
6	245.0/535.0	214.1
7	250.0/550.0	172.9
8	255.0/560.0	152.9
9	260.0/575.0	127.6
10	265.0/585.0	116.5
11	275.0/320.0	2955
12	275.0/615.0	179.0
13	280.0/625.0	166.2
14	320.0/360.0	421.6
15	325.0/370.0	390.6
16	330.0/375.0	370.8
17	335.0/380.0	358.7
18	340.0/390.0	318.2
19	345.0/395.0	300.0
20	350.0/400.0	289.6
21	360.0/415.0	240.0
22	365.0/420.0	234.6
23	430.0/505.0	36.19
24	445.0/525.0	23.19
25	455.0/340.0	11.80
26	570.0/315.0	15.85

Data points
	220.0	225.0	230.0	235.0	240.0	245.0	250.0	255.0	260.0	265.0	270.0	275.0	280.0	285.0	290.0	295.0	300.0	305.0	310.0	315.0	320.0	325.0	330.0	335.0	340.0	345.0	350.0	355.0	360.0	365.0	370.0	375.0	380.0	385.0	390.0	395.0	400.0	405.0	410.0	415.0	420.0	425.0	430.0	435.0	440.0	445.0	450.0	455.0	460.0	465.0	470.0	475.0	480.0	485.0	490.0	495.0	500.0	505.0	510.0	515.0	520.0	525.0	530.0	535.0	540.0	545.0	550.0	555.0	560.0	565.0	570.0	575.0	580.0	585.0	590.0	595.0	600.0
230.0	347.0	8864	9999.9	4276	109.4	21.49	16.84	15.25	13.95	13.74	14.63	14.19	13.33	12.75	11.22	10.16	9.576	8.675	8.400	7.477	6.986	6.298	5.874	5.530	5.142	4.874	4.299	4.189	4.018	3.756	3.542	3.580	3.394	3.109	2.860	2.484	2.134	2.106	1.883	1.869	1.704	1.854	1.803	1.578	1.497	1.741	12.47	51.23	79.73	53.53	14.94	3.111	1.119	1.050	0.919	0.916	0.895	0.812	0.779	0.680	0.704	0.694	0.631	0.606	0.606	0.569	0.457	0.510	0.435	0.449	0.380	0.418	0.367	0.336	0.298	0.304	0.278
235.0	208.7	2404	9999.9	9999.9	3885	198.3	26.06	19.71	17.85	17.04	16.25	16.49	14.80	14.31	12.32	11.57	10.06	9.361	8.876	7.860	7.018	6.724	6.185	6.113	5.473	4.782	4.780	4.320	3.981	3.887	3.674	3.785	3.296	3.108	3.010	2.757	2.464	2.097	1.933	1.883	1.692	1.678	1.715	1.783	1.614	1.705	4.000	13.76	32.45	58.92	82.15	83.44	20.62	6.992	1.147	0.920	0.885	0.904	0.788	0.717	0.804	0.682	0.635	0.583	0.531	0.616	0.474	0.567	0.514	0.374	0.432	0.382	0.346	0.363	0.289	0.353	0.269
240.0	260.9	670.7	3257	9999.9	9999.9	3065	119.6	32.55	24.66	21.38	20.04	18.93	16.22	15.11	13.00	12.33	10.60	9.519	9.136	8.242	7.526	7.012	6.516	6.507	5.555	5.071	4.553	4.455	4.406	4.070	3.728	3.530	3.072	3.158	2.983	2.747	2.592	2.207	2.216	1.927	1.777	1.701	1.695	1.818	1.884	1.792	2.461	4.304	8.505	17.76	47.06	114.2	135.3	92.32	17.99	4.044	1.190	1.118	0.866	0.819	0.821	0.714	0.837	0.660	0.679	0.585	0.525	0.562	0.446	0.433	0.449	0.432	0.347	0.349	0.373	0.405	0.296
245.0	196.5	370.8	840.6	4641	9999.9	9999.9	2223	67.51	32.92	26.45	24.05	22.35	18.00	16.13	13.97	13.30	11.66	11.07	9.592	8.572	7.870	7.303	6.836	6.845	6.013	5.534	4.922	4.917	4.571	4.104	4.025	3.539	3.598	3.228	3.226	2.994	2.857	2.156	2.081	2.040	1.893	1.700	1.524	1.656	1.807	2.058	2.102	2.424	3.170	4.951	12.05	39.08	101.7	170.4	165.6	27.48	14.76	2.267	1.090	1.016	0.975	0.719	0.818	0.812	0.748	0.766	0.600	0.672	0.562	0.456	0.476	0.561	0.454	0.418	0.421	0.344	0.331
250.0	132.9	236.4	426.0	1184	4772	9999.9	9999.9	8471	151.8	44.54	36.60	29.25	23.45	20.15	17.07	15.34	13.47	12.28	10.67	9.567	8.391	7.392	7.238	6.574	6.609	5.887	5.593	5.145	4.931	4.711	4.174	3.889	3.476	3.145	2.977	3.045	2.781	2.448	2.425	2.262	1.986	1.952	1.810	1.811	1.748	1.760	1.868	2.046	2.525	2.542	3.886	9.846	25.02	55.10	104.7	145.3	204.4	129.1	88.48	11.57	2.678	1.106	1.003	0.965	0.902	0.838	0.760	0.639	0.658	0.536	0.577	0.479	0.487	0.480	0.550	0.423	0.387
255.0	120.3	133.7	256.5	552.2	1185	2961	9999.9	9999.9	9999.9	195.5	61.23	44.14	32.93	27.61	21.41	18.84	15.97	15.18	11.77	10.87	9.459	8.269	8.001	7.125	7.258	6.527	5.883	5.431	5.324	4.984	4.554	4.100	3.861	3.326	3.016	2.782	2.910	2.909	2.737	2.367	2.132	2.062	2.078	1.953	1.981	1.771	1.691	1.621	1.791	2.034	2.689	4.104	6.914	13.41	24.60	35.45	76.11	176.7	344.6	231.6	29.85	16.04	2.268	1.329	1.122	1.173	0.890	0.894	0.806	0.757	0.714	0.574	0.649	0.613	0.510	0.498	0.490
260.0	125.1	105.3	136.6	372.9	529.4	773.9	4135	9999.9	9999.9	2032	153.0	61.64	44.32	35.51	26.19	21.66	18.89	16.80	13.96	12.00	10.13	9.862	8.366	8.294	7.538	6.948	6.497	5.890	5.856	5.661	5.494	4.600	4.100	3.850	3.285	3.081	2.834	3.049	2.555	2.496	2.040	2.237	2.170	2.177	2.144	1.990	1.844	1.599	1.697	1.692	2.092	3.080	3.704	4.569	6.753	9.201	18.67	47.55	147.5	308.5	444.2	223.7	27.11	11.24	1.784	1.181	1.191	1.115	0.967	0.903	0.982	0.660	0.692	0.688	0.555	0.653	0.600
265.0	136.2	108.6	97.69	201.2	440.1	393.9	1044	7471	9999.9	9999.9	1691	119.7	63.68	46.50	35.41	27.05	22.35	19.32	16.17	13.60	11.39	10.34	9.322	8.571	8.064	7.384	7.046	6.400	6.220	6.451	5.831	4.920	4.473	3.937	3.710	3.312	2.945	2.922	2.642	2.848	2.528	2.420	2.158	2.293	2.254	2.059	1.853	1.767	1.716	1.682	1.600	2.134	3.020	3.736	3.614	3.439	5.669	11.96	35.21	90.97	247.8	456.2	546.4	203.2	22.43	5.392	1.705	1.519	1.199	1.172	0.945	0.843	0.874	0.838	0.726	0.666	0.772
270.0	187.5	139.4	106.5	118.9	245.7	440.1	496.2	1856	8336	9999.9	9999.9	9999.9	136.8	78.57	52.60	38.73	30.12	24.32	20.07	16.34	13.69	12.39	10.92	10.07	9.249	8.775	7.757	7.508	7.198	6.913	6.282	5.674	5.358	4.351	4.234	3.811	3.542	3.210	2.848	2.859	2.915	2.667	2.431	2.430	2.428	2.163	2.041	1.955	1.778	1.669	1.594	1.841	2.006	2.560	3.125	3.480	3.883	4.739	9.482	21.91	58.66	129.4	266.6	412.1	522.8	397.0	127.5	15.11	5.700	1.770	1.461	1.241	1.123	1.141	0.946	0.912	0.921
275.0	251.9	203.5	144.5	119.8	134.0	242.9	551.1	703.3	2017	3618	9999.9	9999.9	9938	153.4	88.49	59.24	43.26	33.27	26.91	20.80	16.67	15.39	13.41	11.40	10.58	9.926	8.509	8.603	7.857	7.343	6.707	6.443	6.147	5.198	4.782	4.230	3.781	3.549	3.398	3.304	3.053	2.995	3.005	2.919	2.837	2.521	2.415	2.207	2.241	1.749	1.769	1.909	1.984	1.993	2.051	2.450	3.541	4.793	5.205	6.714	14.81	30.54	61.20	95.35	149.4	315.4	672.4	818.7	221.4	23.33	4.864	2.219	1.663	1.531	1.501	1.339	1.159
280.0	346.0	273.0	184.4	139.0	123.9	153.6	368.2	679.8	687.1	1016	5330	9999.9	9999.9	7507	132.4	86.95	58.43	43.33	33.73	25.94	20.67	18.09	14.80	13.09	11.65	10.51	10.17	9.255	8.575	7.565	7.281	6.994	6.641	5.716	5.382	4.769	4.170	4.021	3.587	3.592	3.520	3.176	3.243	3.383	2.930	3.041	2.616	2.658	2.413	1.995	2.104	2.114	1.986	1.974	2.006	2.163	2.577	3.640	5.028	5.630	5.975	8.748	15.53	23.38	35.86	77.14	220.8	552.9	874.1	831.6	32.83	17.38	3.089	2.216	1.840	1.706	1.570
285.0	411.0	346.8	246.1	172.4	136.5	143.8	217.8	570.2	662.0	458.4	1481	8820	9999.9	9999.9	5247	120.0	81.62	55.79	42.24	31.91	24.11	21.11	17.40	14.60	13.32	11.73	10.52	10.48	9.185	8.640	8.182	7.929	6.989	6.130	5.933	5.205	4.792	4.348	3.868	3.969	3.559	3.385	3.408	3.514	3.143	3.363	2.986	2.872	2.638	2.351	2.121	2.422	2.156	2.329	2.251	2.280	2.293	2.501	3.465	4.729	5.759	5.252	5.491	7.332	10.36	19.67	52.12	136.9	331.3	755.8	963.9	258.7	29.46	12.34	3.077	2.092	1.938
290.0	571.7	513.5	375.5	254.1	189.3	169.6	200.4	336.6	647.7	711.5	725.4	2391	9246	9999.9	9999.9	9999.9	337.3	91.99	62.54	44.39	33.01	26.91	22.23	18.51	16.29	14.40	12.70	11.40	10.48	9.632	9.158	8.222	7.741	6.881	6.474	5.796	5.432	5.102	4.523	4.407	3.907	3.931	3.798	3.819	3.815	3.867	3.566	3.416	3.057	2.912	2.522	2.646	2.446	2.507	2.520	2.392	2.463	2.473	2.768	3.217	4.227	5.153	5.777	5.717	5.525	7.256	14.56	33.53	77.44	186.3	346.8	488.5	722.3	614.5	488.6	20.05	10.27
295.0	734.7	717.8	548.7	372.6	260.3	234.0	266.6	326.0	469.6	859.1	1040	1106	2559	3582	9999.9	9999.9	9999.9	401.3	89.63	65.44	45.11	35.25	28.04	23.51	20.36	16.86	15.87	13.15	12.24	11.57	10.67	9.213	8.607	7.663	7.052	6.370	5.876	5.878	5.101	5.124	4.805	4.511	4.374	4.340	4.286	4.547	4.052	4.145	3.954	3.534	2.974	3.018	2.983	2.923	2.767	2.958	2.941	2.915	2.946	3.198	3.696	3.861	4.519	6.414	7.704	6.541	7.161	11.07	20.85	45.08	80.94	112.6	177.1	294.6	762.8	1119	275.8
300.0	920.2	968.0	757.2	520.1	373.6	342.5	404.6	412.8	643.1	943.3	1536	1394	1429	1524	4866	9999.9	9999.9	5123	263.8	84.62	61.03	47.07	36.10	27.39	24.14	19.14	17.78	15.66	14.29	12.10	11.71	9.996	9.253	7.908	7.574	6.846	6.389	5.927	5.551	5.219	5.128	4.980	4.716	4.763	4.543	5.007	4.814	4.925	4.748	3.923	3.454	3.641	3.294	3.439	3.327	3.226	3.607	3.450	3.763	4.081	4.510	4.645	4.992	6.074	8.045	9.487	8.844	8.406	9.961	15.11	23.01	29.64	44.29	71.62	206.9	536.9	937.2
305.0	1197	1293	1071	738.0	534.0	526.8	656.3	822.6	1095	1451	2003	2427	1614	1438	2014	8348	9999.9	9999.9	3897	153.5	78.58	59.24	42.84	32.90	27.45	22.84	19.88	17.63	15.28	13.50	12.82	11.29	10.04	8.933	7.867	7.209	6.606	6.664	6.192	5.982	5.874	5.321	5.594	5.266	5.658	5.540	5.851	5.801	5.655	4.699	4.500	4.330	4.060	4.078	4.228	4.091	4.706	4.763	5.390	5.614	6.165	6.739	7.502	8.558	9.312	10.93	12.40	13.19	11.81	11.98	12.78	13.73	16.72	22.75	52.23	129.5	294.7
310.0	1502	1671	1442	994.1	730.5	710.8	881.4	1112	1413	1812	2289	2766	2646	2062	1743	2831	9468	9999.9	9999.9	9999.9	277.0	89.67	60.94	44.92	35.03	28.06	23.93	19.83	17.89	16.05	14.60	12.41	10.92	9.474	8.840	7.705	7.025	6.921	6.564	6.713	6.016	6.241	6.202	6.080	6.246	6.662	6.817	7.241	6.980	6.027	5.257	5.415	4.743	4.661	4.969	4.812	5.508	5.999	6.332	7.023	7.481	8.161	8.983	10.47	10.72	11.83	12.76	14.18	15.00	14.63	13.90	12.39	12.23	13.12	19.07	35.47	71.87
315.0	1837	2076	1827	1245	902.3	838.2	1031	1281	1571	1998	2480	2870	2888	2704	1937	1667	2983	3484	9999.9	9999.9	9999.9	323.1	93.55	64.16	46.86	35.57	28.57	24.40	21.19	18.55	16.28	14.04	12.64	10.61	9.428	8.665	7.529	7.645	7.270	6.907	6.635	7.006	7.037	6.792	7.130	7.516	8.121	8.122	8.119	6.747	5.895	6.081	5.714	5.288	5.554	5.536	6.125	6.471	7.080	7.420	8.550	8.865	10.59	11.43	11.76	12.84	13.62	14.13	14.88	14.88	15.85	15.24	13.26	12.23	12.12	14.91	22.20
320.0	1983	2382	2101	1405	994.4	920.4	1106	1352	1650	2067	2582	2955	2910	2834	2248	1492	1555	1349	4450	9999.9	9999.9	3982	216.0	86.22	60.43	43.90	34.95	27.66	23.60	20.14	17.88	15.46	12.80	11.43	10.06	8.614	8.256	8.157	7.540	7.322	7.262	7.309	7.374	7.575	7.690	8.839	8.700	9.488	9.042	7.722	6.538	6.653	5.948	5.835	5.866	5.896	6.571	6.935	7.763	8.043	8.455	9.116	10.28	11.92	12.17	13.40	13.62	14.59	15.28	15.47	15.68	15.38	15.27	13.88	11.51	10.74	11.37
325.0	2168	2674	2485	1618	1056	940.4	1097	1354	1618	2013	2529	2880	2859	2664	2348	1552	1196	828.9	1263	7716	9999.9	9999.9	3178	137.1	80.65	54.80	41.67	32.85	26.96	22.62	19.68	16.99	15.05	12.02	10.89	9.313	8.833	8.338	8.174	7.463	7.330	7.202	7.824	8.047	8.011	9.165	9.167	10.35	9.771	8.411	7.200	7.303	6.569	5.878	5.837	5.893	6.552	6.901	7.734	8.315	8.514	9.096	10.05	11.39	11.87	13.20	13.63	14.25	14.68	14.73	14.60	14.16	14.60	14.15	12.19	10.01	8.845
330.0	2280	2912	2824	1973	1272	984.1	1070	1292	1529	1870	2357	2698	2671	2482	2086	1630	1155	674.4	527.1	1939	8786	9999.9	9999.9	9999.9	235.8	77.98	55.98	42.44	34.08	27.92	23.68	19.47	16.17	13.53	11.96	10.37	9.385	8.634	8.599	7.893	7.799	7.589	7.760	8.279	8.738	9.739	9.963	11.27	10.83	9.445	8.349	8.062	7.228	6.487	6.100	5.925	6.568	6.999	7.516	7.884	8.305	8.491	9.671	10.67	11.39	12.07	13.05	13.53	14.26	14.42	13.85	13.24	12.68	12.22	11.57	10.88	9.451
335.0	2324	3056	3025	2287	1506	1043	1036	1215	1413	1722	2154	2481	2486	2328	1878	1433	1219	720.1	377.2	625.0	2132	3133	9999.9	9999.9	9999.9	269.0	83.49	57.50	43.91	35.50	28.46	22.19	18.55	15.87	13.38	11.77	10.08	9.544	8.906	8.196	8.249	8.138	8.190	8.638	8.885	9.943	10.58	11.71	11.66	10.07	9.411	9.454	8.260	7.417	6.783	6.349	6.585	6.951	7.265	7.778	7.975	8.224	9.440	10.01	10.54	11.46	12.07	12.81	13.17	13.44	13.19	12.48	12.07	11.38	10.20	9.415	8.794
340.0	2312	2992	2997	2308	1547	1039	985.1	1132	1301	1584	1972	2268	2285	2150	1735	1278	1072	810.6	382.4	334.2	642.8	873.4	4691	9999.9	9999.9	3368	178.8	75.62	55.51	40.97	32.44	25.55	20.38	17.14	14.57	12.37	11.00	9.709	9.116	8.836	8.468	8.082	8.323	8.830	9.260	9.998	10.23	11.80	11.72	10.38	9.519	9.698	8.545	7.427	6.792	6.185	6.433	6.766	6.731	7.340	7.653	7.849	8.713	9.222	9.757	10.85	11.17	11.58	12.15	12.56	11.85	12.27	11.31	10.58	9.658	8.574	7.515
345.0	2155	2805	2931	2272	1527	1038	923.0	1062	1200	1440	1779	2036	2051	1949	1582	1158	897.2	772.8	483.2	284.4	310.9	353.0	1221	8691	9999.9	9999.9	2795	109.9	69.29	51.16	37.03	28.55	22.55	18.28	16.08	13.09	11.20	10.37	9.225	8.592	7.887	8.097	7.924	8.584	8.607	9.520	9.876	11.29	11.22	10.11	9.153	9.480	8.468	7.427	6.461	5.947	6.100	6.535	6.482	6.679	7.209	7.174	8.174	8.687	9.149	9.765	10.22	10.38	10.69	11.51	11.55	11.40	10.41	9.804	8.968	7.738	6.973
350.0	1942	2514	2632	2153	1477	1018	877.0	960.1	1081	1276	1545	1749	1774	1706	1394	1042	785.0	618.4	526.4	380.3	262.4	238.9	419.4	2106	9497	9999.9	9999.9	9999.9	202.8	68.92	49.61	36.12	26.95	20.98	17.53	14.18	12.19	11.10	9.814	9.231	8.275	7.741	7.856	8.110	8.267	8.946	9.390	10.74	10.44	9.418	8.699	9.172	8.183	7.444	6.653	5.949	5.953	6.168	6.079	6.280	6.579	6.727	7.346	7.516	8.167	8.643	8.899	9.205	9.739	9.955	9.774	9.804	9.360	8.399	7.859	7.188	6.707
355.0	1671	2191	2304	1935	1409	981.5	844.4	885.0	981.1	1115	1340	1507	1519	1468	1226	935.9	711.2	547.5	444.1	457.4	338.9	227.4	240.9	600.9	2238	3257	9999.9	9999.9	9999.9	222.3	69.65	47.97	33.96	26.04	19.84	16.05	13.79	11.95	11.05	9.050	8.709	7.983	7.783	8.021	8.010	8.367	8.637	10.04	9.559	8.861	8.128	8.437	7.943	7.408	6.785	5.652	5.588	5.935	5.961	5.889	6.414	6.154	6.336	6.844	7.053	7.915	7.693	7.805	8.373	8.635	8.471	8.601	8.566	7.766	7.541	6.437	6.294
360.0	1507	1943	2073	1767	1335	959.9	817.0	846.6	899.9	1012	1202	1331	1343	1307	1099	860.6	674.7	524.6	411.8	409.6	421.6	268.6	212.8	266.6	617.9	853.6	5346	9999.9	9999.9	3089	145.7	62.12	43.58	31.43	23.82	18.33	15.52	12.97	11.54	9.730	8.887	8.526	8.082	7.651	8.391	8.133	8.355	9.350	9.228	7.974	7.429	8.142	7.431	7.094	6.239	5.346	5.650	5.740	6.042	5.841	5.795	5.912	6.148	6.370	6.478	7.290	6.979	7.228	7.814	7.992	7.707	7.725	7.716	7.082	6.613	6.023	5.899
365.0	1399	1762	1831	1601	1268	955.9	799.8	825.9	857.0	939.7	1092	1204	1207	1179	1003	800.2	643.5	509.9	409.4	369.7	416.1	361.6	224.9	199.4	260.1	303.5	1336	9999.9	9999.9	9999.9	2462	93.37	52.90	38.47	27.44	21.02	16.47	14.07	12.28	10.64	9.458	9.284	8.637	7.930	8.300	8.036	8.133	8.940	8.536	7.642	6.935	7.888	7.443	6.857	6.347	5.553	5.514	5.336	5.946	5.669	5.671	5.746	5.814	6.301	6.126	6.795	6.672	7.153	6.884	7.282	7.019	7.014	6.985	6.778	6.261	5.818	5.605
370.0	1239	1545	1595	1425	1172	928.7	783.8	787.0	812.3	875.3	984.1	1066	1071	1039	902.6	745.1	614.5	510.7	425.7	373.3	363.3	390.6	321.4	217.0	190.5	184.4	407.7	2390	9999.9	9999.9	9999.9	9999.9	168.2	55.50	38.70	26.96	20.39	16.63	13.59	11.70	10.42	9.451	8.899	8.258	8.368	7.924	7.746	8.032	8.001	7.074	6.681	7.379	6.856	6.664	6.007	5.470	5.634	5.313	5.728	5.566	5.648	5.495	5.591	5.825	5.892	6.110	6.069	6.413	6.177	6.455	6.415	6.525	6.284	6.249	5.694	5.533	5.305
375.0	1108	1340	1384	1279	1094	894.2	801.5	758.3	767.3	810.6	888.8	941.0	946.3	919.2	811.0	689.6	588.1	511.4	441.5	389.4	357.6	343.5	370.8	298.6	200.6	166.7	201.1	636.9	2337	3680	9999.9	9999.9	9999.9	181.3	55.87	36.74	26.66	20.23	16.56	13.67	11.42	10.50	9.203	8.382	8.176	7.855	7.535	8.175	7.550	6.914	6.345	7.065	6.778	6.379	6.126	5.423	5.790	5.405	5.304	5.548	5.331	5.257	5.417	5.444	5.629	5.491	5.476	5.492	5.697	5.763	5.869	5.792	5.523	5.642	5.506	5.122	5.066
380.0	1004	1237	1247	1168	1051	877.5	781.6	745.3	743.9	765.0	838.5	872.7	876.7	846.4	751.1	654.9	570.4	509.4	449.2	403.7	362.0	331.6	339.2	358.7	242.3	177.0	160.9	245.4	621.6	939.2	6049	9999.9	9999.9	2555	109.2	45.86	33.40	24.46	19.04	14.98	12.87	11.03	10.10	9.129	8.291	7.839	7.400	7.638	7.014	6.847	6.324	6.706	6.321	6.339	5.940	5.545	5.666	5.141	5.429	5.372	5.258	4.978	5.025	5.256	5.212	5.138	5.264	5.305	5.529	5.444	5.476	5.351	5.615	5.212	5.225	4.698	4.808
385.0	951.1	1144	1153	1097	1003	869.0	769.8	740.1	731.0	741.0	784.9	816.2	812.3	783.6	703.8	625.1	550.4	499.2	451.6	411.8	371.5	336.0	318.3	343.2	310.0	203.1	161.8	163.7	238.5	305.4	1483	9999.9	9999.9	9999.9	1945	67.07	41.49	30.78	21.47	17.35	13.89	11.89	10.44	9.154	9.061	8.205	7.324	7.801	6.955	6.463	6.152	6.794	6.210	6.385	6.099	5.596	5.867	5.152	5.100	5.360	5.149	5.080	4.944	5.081	5.021	4.959	5.228	5.098	5.305	5.155	4.937	4.975	5.129	4.795	4.680	4.715	4.509
390.0	882.4	1036	1058	1025	946.3	834.2	760.3	734.0	716.2	719.5	742.2	759.3	742.7	723.7	654.2	593.2	533.6	488.3	447.7	412.6	382.4	351.1	320.4	304.5	318.2	274.3	190.6	156.7	156.3	162.7	419.4	2372	9132	9999.9	9999.9	8579	133.6	39.60	29.02	21.73	16.13	13.80	11.42	10.07	9.469	8.456	7.804	7.883	7.150	6.268	5.898	6.533	6.202	6.210	5.991	5.493	5.683	5.327	5.131	5.151	5.204	5.175	4.953	4.964	4.871	5.008	4.748	4.941	4.804	4.868	4.759	4.896	4.811	4.703	4.668	4.437	4.437
395.0	843.8	951.5	962.6	953.5	910.4	796.3	750.4	719.8	704.4	688.9	711.1	707.4	693.5	674.4	612.0	555.3	508.7	474.7	444.6	413.2	384.3	357.9	326.0	300.5	284.3	300.0	256.9	177.5	147.2	134.5	181.2	606.6	2113	3466	9999.9	9999.9	9999.9	146.4	39.45	28.78	21.47	17.07	13.17	11.87	10.43	9.490	8.177	7.954	7.338	6.464	5.944	6.350	6.540	6.040	5.810	5.568	5.600	5.279	5.340	5.025	4.988	4.938	4.862	4.981	4.677	4.762	4.750	4.821	4.633	4.753	4.533	4.839	4.452	4.451	4.542	4.473	4.371
400.0	782.3	897.8	907.5	886.2	869.7	785.6	758.9	728.5	697.8	676.8	688.0	678.2	662.2	639.1	588.8	535.0	493.3	463.3	437.9	411.4	384.5	358.7	331.0	305.7	278.6	272.2	289.6	215.4	155.7	133.9	128.8	213.4	540.3	855.4	5377	9999.9	9999.9	2197	84.13	35.19	25.17	19.64	15.28	12.82	11.32	9.912	8.709	8.543	7.718	6.533	5.924	6.179	6.203	5.946	5.713	5.606	5.557	5.423	5.158	5.358	5.216	5.188	5.014	4.847	4.604	4.992	4.632	4.668	4.339	4.385	4.455	4.386	4.457	4.345	4.233	4.246	4.117
405.0	775.4	857.9	885.1	843.4	819.9	774.9	743.3	711.1	689.6	663.6	677.9	664.0	641.1	610.9	564.4	512.1	479.9	449.6	429.8	406.9	382.0	360.5	336.3	309.6	282.2	258.9	277.2	259.6	179.4	140.5	122.0	125.6	189.1	253.6	1292	8846	9999.9	9999.9	1702	52.24	30.44	22.92	17.75	14.47	12.10	10.44	9.043	8.684	7.796	6.625	5.839	6.093	6.057	5.969	5.566	5.332	5.773	5.323	5.377	5.414	5.132	5.047	4.661	4.788	4.625	4.750	4.555	4.575	4.358	4.332	4.141	4.129	4.226	4.271	4.123	4.333	3.920
410.0	731.0	797.6	820.4	819.2	782.2	752.9	728.3	702.8	679.7	662.4	655.6	639.9	609.8	578.7	533.6	487.6	454.7	432.4	410.1	393.5	370.9	352.9	335.6	309.4	286.1	261.4	249.4	257.7	230.4	165.8	130.1	110.8	111.2	116.4	345.1	2066	7629	9999.9	9999.9	7883	114.1	31.27	21.99	17.08	13.88	11.44	9.721	9.217	8.007	6.827	5.989	6.577	6.162	5.960	5.740	5.433	5.915	5.637	5.214	5.416	5.082	5.108	4.710	4.725	4.474	4.557	4.320	4.230	4.163	4.203	4.061	4.127	4.079	4.100	3.772	3.989	3.897
415.0	640.4	757.6	771.4	782.4	757.4	731.4	709.9	690.0	678.8	655.2	644.7	613.4	574.1	544.1	502.4	454.7	430.7	411.7	394.5	376.7	360.6	344.8	330.5	305.7	290.0	264.0	243.5	230.4	240.0	215.2	149.0	113.6	97.05	86.68	131.2	508.9	1751	3200	9999.9	9999.9	9999.9	130.4	30.04	21.90	16.94	13.28	10.68	9.540	8.240	7.035	6.543	6.669	6.084	6.028	5.645	5.391	5.544	5.808	5.570	5.403	5.148	5.093	4.872	4.812	4.541	4.331	4.251	4.051	4.303	3.979	4.001	4.163	3.720	4.172	3.703	3.735	3.676
420.0	625.6	713.6	728.2	745.8	715.2	705.9	700.0	681.1	667.3	647.3	632.2	604.7	555.6	518.5	482.5	433.0	411.4	391.6	380.4	358.1	347.1	333.8	323.6	303.1	289.2	265.4	242.7	224.9	221.2	234.6	178.7	121.8	98.97	80.83	82.60	159.8	434.9	769.3	4439	9999.9	9999.9	2028	73.20	27.16	20.44	15.69	11.93	10.33	8.929	7.301	6.786	6.804	6.410	6.253	5.867	5.680	5.839	5.690	5.632	5.557	5.126	4.908	5.039	4.708	4.429	4.421	4.504	4.260	4.252	4.110	4.120	3.926	3.813	3.818	3.640	3.749	3.464
425.0	616.4	683.9	721.8	710.9	689.3	697.8	684.5	679.1	658.4	645.5	619.0	590.9	539.1	501.0	462.0	418.0	397.8	377.5	362.0	348.4	335.9	325.2	315.7	300.4	285.7	262.7	245.5	224.0	211.5	220.9	207.7	139.8	103.9	83.10	72.80	82.08	139.2	213.7	1055	6680	9999.9	9999.9	1598	36.85	24.71	18.94	13.99	11.68	9.482	7.475	6.760	6.965	6.321	6.225	6.059	5.453	6.065	5.384	5.415	5.408	5.389	5.045	5.079	4.813	4.420	4.159	4.169	3.990	3.839	4.092	4.128	3.833	3.652	3.900	3.555	3.786	3.562
430.0	1085	655.7	682.3	686.4	685.6	670.5	671.1	666.5	650.6	637.5	613.0	578.1	523.1	485.2	441.9	401.3	376.5	360.7	342.5	334.0	320.8	311.6	303.7	292.3	278.8	261.3	245.2	228.5	212.8	200.9	202.3	175.5	123.3	90.19	75.26	67.08	72.87	86.30	273.9	1553	6148	9999.9	9999.9	7428	110.7	26.65	18.03	14.53	11.14	8.497	7.326	7.397	6.736	6.360	6.393	5.702	6.073	5.548	5.664	5.315	5.188	4.948	5.135	4.697	4.409	4.266	4.071	4.009	3.821	3.838	3.889	3.579	3.472	3.615	3.352	3.355	3.403
435.0	2555	711.3	642.5	652.8	653.6	645.8	664.0	659.2	648.8	634.8	608.9	570.9	512.1	467.7	420.5	380.7	362.0	344.2	321.7	316.7	308.2	297.7	291.0	282.6	272.0	256.4	246.1	229.9	217.4	198.7	182.6	179.9	155.9	105.1	80.75	66.93	59.95	56.41	96.51	380.0	1407	2778	9999.9	9999.9	9999.9	138.4	26.13	18.99	14.23	10.50	8.428	8.529	7.509	6.814	6.860	6.373	6.317	5.712	5.944	5.517	5.312	4.978	4.878	4.653	4.666	4.330	4.067	4.092	3.957	3.780	3.640	3.691	3.371	3.674	3.407	3.295	3.362
440.0	6472	1268	628.8	637.8	641.4	628.0	649.4	651.9	642.4	634.1	607.2	556.6	504.3	453.5	412.9	367.4	342.7	325.7	313.3	302.8	293.4	285.8	281.0	273.9	265.5	253.7	243.1	228.3	216.2	200.2	181.9	167.6	165.6	125.9	87.39	70.74	59.53	50.59	55.96	117.5	346.5	662.1	3619	9999.9	9999.9	1924	33.48	25.57	17.09	12.62	9.830	9.235	8.186	7.390	7.143	6.485	6.588	6.151	5.820	5.365	5.436	5.107	4.888	4.796	4.628	4.407	4.106	4.258	3.840	3.675	3.674	3.481	3.469	3.518	3.362	3.313	3.227
445.0	8425	3304	625.5	607.1	613.8	622.3	629.3	644.2	639.7	618.4	602.1	550.4	495.3	444.0	399.9	358.5	328.0	310.9	301.3	288.4	280.6	272.4	271.5	263.8	258.8	249.1	240.6	225.9	217.1	203.0	180.9	160.0	154.5	142.0	99.62	74.46	60.66	50.84	47.46	57.42	108.0	181.1	856.3	5262	9999.9	9999.9	1537	33.26	21.67	14.65	11.64	10.28	8.673	7.645	7.234	7.134	6.809	6.564	5.805	5.603	5.427	5.358	4.856	4.980	4.732	4.216	4.405	4.333	3.752	3.637	3.455	3.570	3.193	3.236	3.048	3.219	3.262
450.0	5576	8461	1592	584.4	586.0	594.6	600.5	611.2	610.4	603.2	587.2	539.0	474.8	422.4	375.7	337.2	309.2	291.3	278.9	270.5	262.4	255.1	257.6	249.0	245.0	234.5	229.6	218.9	211.2	199.4	179.2	158.6	140.4	135.6	119.2	85.36	64.34	52.90	46.97	44.59	53.67	69.49	222.5	1222	5249	9999.9	9999.9	7088	102.2	21.41	14.93	12.92	10.51	8.817	7.989	7.302	7.013	6.921	6.184	5.726	5.649	5.317	4.961	5.165	4.739	4.421	4.336	4.098	3.939	3.614	3.502	3.437	3.337	3.268	3.223	3.170	3.198
455.0	1908	9798	6068	659.0	545.0	553.2	566.0	585.7	591.4	564.2	560.7	510.4	446.7	394.6	354.5	313.6	290.7	269.2	256.7	248.5	241.9	236.0	236.9	230.9	226.6	220.8	214.1	207.7	201.4	193.0	176.0	155.8	135.9	119.7	116.2	101.9	72.55	55.43	47.61	43.11	41.48	42.73	75.67	299.8	1201	2543	9999.9	9999.9	9999.9	129.4	21.68	15.65	12.85	10.27	8.735	7.857	7.220	7.314	6.612	6.131	5.575	5.299	5.133	4.677	4.607	4.438	4.053	3.944	3.948	3.469	3.603	3.142	3.123	3.302	3.174	3.128	3.118
460.0	802.6	6524	9923	930.2	524.4	517.9	531.1	552.2	564.0	556.4	536.9	490.6	426.5	372.7	330.6	291.9	269.5	251.1	241.8	230.4	227.1	219.9	219.3	214.2	213.1	207.2	202.6	199.7	192.4	184.4	171.1	151.0	129.4	114.5	102.4	104.0	83.23	58.98	48.74	42.20	38.38	35.85	41.67	91.48	294.3	601.3	2827	9999.9	9999.9	8546	98.03	21.68	15.25	11.78	9.932	8.631	7.733	7.506	6.655	5.966	5.827	5.226	5.498	4.978	4.727	4.241	4.117	3.835	3.897	3.592	3.598	3.201	3.140	3.031	2.838	3.041	3.050
465.0	528.1	2794	9999.9	4529	511.3	495.8	505.2	527.5	532.7	529.3	503.2	463.6	414.2	354.5	310.0	274.5	250.4	236.6	224.3	217.7	209.8	202.3	203.3	200.0	197.7	194.1	191.1	188.2	185.0	176.1	166.1	145.7	126.7	109.9	96.15	94.41	89.84	65.39	50.28	42.81	37.02	34.16	33.73	44.36	89.68	161.4	665.5	3588	9999.9	9999.9	1395	75.46	19.82	14.32	11.83	9.796	8.910	7.913	6.816	6.487	6.203	5.539	5.395	5.020	4.853	4.383	4.076	3.925	3.829	3.681	3.534	3.213	3.188	3.236	3.015	2.946	2.996
470.0	455.3	999.5	6940	9999.9	1757	466.0	474.2	480.3	488.4	488.6	469.1	427.5	381.3	327.7	284.4	255.0	229.8	215.0	202.5	195.2	187.4	184.3	184.1	180.0	178.2	177.6	173.6	171.2	169.7	163.8	152.7	135.8	120.1	104.1	90.28	81.67	80.23	73.64	56.36	43.13	37.18	33.78	31.46	32.21	41.82	58.11	171.7	831.7	3682	9999.9	9999.9	7372	117.2	21.43	14.76	12.04	10.38	8.768	7.464	6.789	6.350	5.854	5.488	4.916	4.570	4.434	3.903	3.903	3.599	3.559	3.487	3.168	3.012	3.003	2.843	2.809	2.640
475.0	445.1	532.3	2164	9999.9	7470	531.8	424.4	443.3	444.8	445.5	432.6	392.7	347.4	298.2	259.8	231.0	206.8	191.5	180.2	174.7	167.8	162.8	160.8	162.8	158.8	156.9	155.5	155.9	151.5	149.6	140.6	124.4	111.8	97.75	85.02	74.73	67.69	68.73	62.84	45.83	37.02	32.91	29.69	27.38	28.31	31.35	56.02	204.1	841.0	2316	8159	9999.9	9999.9	172.6	20.87	14.33	11.57	9.536	7.622	7.059	6.211	5.584	5.144	4.901	4.453	4.423	3.619	3.589	3.339	3.319	3.323	3.030	2.856	2.914	2.559	2.570	2.411
480.0	410.5	434.7	781.5	7006	9999.9	1688	399.7	416.6	423.9	421.7	402.8	370.5	321.4	285.2	242.9	212.8	194.2	178.8	167.5	161.8	156.3	151.6	148.6	149.8	148.5	147.2	143.5	143.0	143.7	138.4	131.0	118.5	104.5	92.60	81.29	70.81	63.41	59.93	62.19	51.90	38.44	32.58	29.40	26.98	25.11	24.60	29.60	62.46	205.0	536.4	1989	9999.9	9999.9	9999.9	31.65	18.88	13.86	10.58	8.919	7.586	6.384	5.865	5.272	4.802	4.324	4.403	3.557	3.616	3.357	3.168	3.085	2.911	3.066	2.676	2.518	2.533	2.313
485.0	365.5	415.3	453.6	2914	9999.9	4132	419.0	396.7	404.4	396.8	381.0	346.0	305.6	269.3	232.2	199.0	182.7	166.8	158.9	149.8	144.4	139.9	140.6	142.2	138.4	137.7	136.3	133.6	134.3	130.5	123.4	112.9	101.5	89.74	78.63	68.44	59.98	55.22	55.53	55.02	42.12	32.98	29.36	26.70	23.85	22.85	23.23	29.59	61.24	135.8	463.9	2651	9999.9	9999.9	1734	29.48	17.49	12.47	9.960	8.507	7.012	6.104	5.378	5.065	4.670	4.442	4.043	3.486	3.467	3.246	2.987	2.775	2.822	2.536	2.504	2.604	2.373
490.0	314.7	404.0	364.7	945.7	7476	9999.9	1832	371.1	373.9	376.3	357.8	330.6	290.1	250.4	216.3	187.0	170.3	156.0	145.9	138.1	133.5	129.2	128.5	127.6	126.6	125.3	124.7	123.4	122.9	120.9	114.9	105.2	94.67	84.33	74.09	64.94	58.51	52.21	48.74	50.51	46.65	36.10	29.02	26.35	24.08	22.38	21.22	21.70	27.71	43.96	117.9	610.4	2787	9622	9999.9	7688	132.2	20.40	13.16	9.939	8.203	6.986	5.785	5.278	4.894	4.525	4.356	3.749	3.531	3.229	2.918	2.810	2.587	2.582	2.456	2.383	2.386
495.0	264.6	366.7	365.7	449.6	2265	9999.9	8756	414.0	351.5	343.8	329.2	305.7	266.3	231.7	197.8	171.6	153.0	139.4	131.8	126.4	120.6	117.5	116.1	113.8	112.7	111.4	111.3	110.8	109.9	109.5	104.8	95.16	87.56	78.36	69.14	61.26	55.34	49.57	45.34	42.23	44.08	41.04	31.23	26.12	23.94	21.73	20.28	19.06	19.58	21.90	38.30	149.3	636.4	2187	6997	9999.9	9999.9	214.7	20.85	12.61	9.387	7.740	6.445	5.704	4.940	4.515	4.180	3.806	3.270	2.874	2.955	2.687	2.679	2.677	2.424	2.239	1.974
500.0	249.6	307.6	363.5	322.5	733.3	7157	9999.9	1718	333.4	321.3	306.5	284.3	252.0	214.4	180.6	158.7	142.2	132.1	123.1	117.2	109.5	107.5	105.4	104.1	103.8	101.7	102.8	102.3	101.6	101.3	96.47	87.97	81.57	73.09	66.12	59.03	52.49	47.21	42.80	38.36	38.39	40.06	34.70	26.59	23.48	21.43	19.24	17.99	17.25	16.40	19.70	44.79	154.7	503.2	1654	8556	9999.9	9999.9	175.9	17.14	11.06	8.940	7.069	5.922	4.926	4.499	4.079	3.691	3.292	3.171	2.856	2.714	2.539	2.612	2.234	2.216	2.032
505.0	236.8	265.4	341.6	297.8	366.4	2882	9999.9	6212	329.9	297.0	287.8	267.0	234.3	199.0	167.3	148.6	129.9	121.5	114.3	106.5	102.6	98.94	97.02	95.76	96.16	92.48	91.73	94.43	93.64	92.54	88.05	80.87	76.03	67.31	62.57	54.58	49.03	44.38	40.40	36.18	33.74	36.00	36.19	28.87	23.40	20.84	18.81	17.60	15.87	14.83	14.63	21.01	45.20	124.7	386.0	2111	9999.9	9999.9	9414	31.75	14.38	10.36	7.851	6.574	5.547	4.426	4.074	3.602	3.426	3.208	2.778	2.639	2.384	2.444	2.115	2.275	1.988
510.0	206.2	231.4	275.1	294.8	271.9	871.9	8330	9999.9	1465	279.4	261.7	238.2	213.8	181.7	153.1	132.8	120.5	107.6	101.6	94.61	90.24	90.35	85.75	85.01	83.44	83.16	81.71	83.41	83.41	83.63	79.11	74.00	67.13	60.35	55.56	49.48	44.89	41.19	36.98	33.98	30.88	30.28	31.22	31.14	24.46	20.34	18.40	16.76	14.82	13.38	12.99	14.08	19.45	37.90	97.83	485.4	2510	8686	9999.9	8463	717.2	17.24	9.594	7.369	6.223	5.033	4.369	3.780	3.446	3.119	2.764	2.533	2.344	2.384	2.044	2.160	1.869
515.0	180.6	200.0	210.7	270.8	245.7	358.0	2453	9999.9	9409	300.3	242.3	215.5	188.9	161.8	138.4	118.7	106.2	97.21	89.23	84.34	80.64	80.70	76.41	75.07	75.04	72.32	71.79	72.53	72.28	72.23	69.50	64.80	59.56	54.57	49.23	43.94	40.68	37.44	34.20	31.52	28.19	26.82	25.90	28.76	26.34	20.98	17.53	15.44	14.15	12.74	11.77	12.00	12.58	17.39	30.95	118.2	571.7	1960	4646	9999.9	9999.9	220.9	16.24	9.530	6.958	5.696	4.677	3.977	3.385	3.170	2.982	2.567	2.206	2.510	2.083	2.016	1.812
520.0	165.2	188.6	184.4	229.3	246.0	229.8	725.3	9775	9999.9	1406	228.7	201.6	173.6	150.2	125.0	110.5	98.18	88.96	82.19	76.47	72.00	70.65	70.75	68.58	66.18	65.60	66.01	65.85	65.00	64.78	62.61	59.06	54.69	49.92	44.55	40.58	37.64	33.99	31.47	29.01	26.89	24.48	23.09	24.62	25.71	22.37	17.20	14.82	13.26	11.93	11.03	11.34	10.76	11.77	15.09	35.61	137.5	449.4	1085	6304	9999.9	9999.9	33.80	12.98	8.336	6.298	4.888	4.163	3.323	3.092	2.734	2.729	2.259	2.251	1.913	1.944	1.692
525.0	154.8	163.8	161.3	197.5	260.6	202.3	302.7	4060	9999.9	6064	235.1	191.2	160.5	138.7	117.4	101.4	90.99	81.09	74.55	70.16	66.11	65.37	62.51	62.10	61.00	59.77	59.66	59.09	58.59	59.24	58.02	53.34	48.76	45.20	40.58	37.91	34.76	31.30	29.28	26.35	24.67	23.08	21.21	21.27	22.93	23.19	17.71	13.78	12.25	11.17	10.38	10.34	9.980	9.836	10.63	16.19	39.37	110.0	255.4	1520	8930	9999.9	7803	29.42	11.30	7.422	5.493	4.552	3.803	3.187	2.865	2.521	2.150	2.048	1.873	2.032	1.909
530.0	138.1	148.1	142.2	153.4	222.1	207.6	195.9	1118	9999.9	9999.9	1156	180.3	147.9	125.2	105.9	92.12	79.58	71.72	67.07	62.82	58.77	56.43	55.34	54.95	53.74	53.34	51.74	52.92	52.27	51.56	50.48	47.64	43.73	39.97	36.35	33.32	30.94	28.25	26.22	24.46	22.36	20.79	19.46	18.45	18.61	20.18	19.14	14.20	11.78	10.46	9.295	9.260	8.862	8.928	9.009	10.16	16.19	32.28	65.70	349.6	2150	7209	9999.9	8207	135.2	13.26	7.169	5.460	4.302	3.501	3.187	2.628	2.392	2.072	1.972	1.821	1.707
535.0	118.3	124.3	127.3	136.1	166.5	214.1	162.3	374.9	3050	9999.9	9910	208.0	136.2	114.1	95.70	81.46	71.85	64.06	59.39	55.68	53.02	50.37	48.32	46.78	46.97	45.62	46.06	47.53	45.65	44.21	44.83	40.53	37.60	34.63	31.42	28.46	27.46	25.19	22.98	21.17	20.19	18.41	17.53	16.51	15.25	16.18	17.61	15.54	11.87	9.886	8.586	8.571	7.846	7.830	8.000	8.474	10.06	13.75	21.25	85.15	487.2	1621	3693	9999.9	9999.9	216.0	11.86	7.143	5.043	3.934	3.352	2.790	2.500	2.221	1.996	1.801	1.503
540.0	122.9	111.1	122.6	109.2	129.5	196.9	164.9	195.0	828.8	9999.9	9999.9	987.7	125.7	106.4	87.40	74.74	63.54	59.18	53.61	48.84	47.14	45.01	43.72	42.07	42.29	41.27	39.96	41.36	40.89	40.37	39.80	36.00	33.95	30.97	28.34	26.10	24.82	22.62	20.76	18.55	18.11	17.15	15.83	15.19	13.94	14.19	14.47	15.43	11.99	9.506	8.152	7.567	7.016	7.179	7.177	7.780	8.103	8.621	10.73	25.49	115.7	369.6	851.6	4886	9999.9	8904	32.71	9.561	5.995	4.514	3.572	2.885	2.672	2.119	2.011	1.824	1.585
545.0	114.9	102.0	107.0	106.2	108.0	171.1	167.9	143.1	294.9	4199	9999.9	5084	129.6	100.6	82.15	69.43	58.63	53.43	48.56	44.75	41.93	41.01	38.59	38.19	37.56	36.64	36.80	35.99	35.87	35.58	35.45	32.69	30.05	28.26	25.15	23.95	22.45	20.50	19.01	17.22	16.45	15.40	14.17	13.90	13.01	12.33	11.96	13.55	12.48	9.217	7.532	7.012	6.633	6.299	6.772	7.028	7.239	7.130	7.599	11.13	31.75	88.92	198.6	1156	6516	9999.9	1950	27.74	7.981	5.183	4.000	3.074	2.813	2.235	2.012	1.839	1.839
550.0	106.8	97.10	96.60	91.63	90.28	120.3	172.9	130.7	157.4	1116	9999.9	9999.9	686.3	95.10	74.60	62.12	51.27	46.82	42.74	38.98	36.01	34.82	34.03	33.14	32.34	31.49	31.29	30.65	30.44	30.22	29.95	27.61	25.84	24.13	21.89	20.53	18.98	17.29	16.04	15.36	14.02	13.07	12.89	11.92	11.49	10.88	10.21	10.51	11.24	9.800	7.524	6.378	5.870	5.817	5.852	5.899	6.414	6.345	6.185	6.826	11.72	24.91	50.22	265.0	1546	5499	9999.9	6597	135.5	10.48	4.926	3.539	2.959	2.474	2.054	1.830	1.654
555.0	99.18	97.57	87.54	75.78	78.38	87.56	140.7	143.0	116.2	337.7	2926	9999.9	7714	119.7	68.93	54.62	45.15	41.31	36.83	33.81	30.77	29.26	28.06	28.26	26.91	26.26	26.06	24.67	25.64	25.94	24.46	23.43	21.03	20.07	18.62	17.77	15.84	14.88	13.35	12.94	12.15	11.08	10.65	10.39	9.912	9.260	8.417	8.261	8.212	9.048	7.877	5.994	5.572	5.097	4.996	5.025	5.354	5.681	5.483	5.345	6.216	9.425	15.55	63.96	350.2	1234	3135	9999.9	8494	204.1	8.258	4.713	3.466	2.670	2.187	1.961	1.616
560.0	92.97	86.91	72.53	65.05	67.62	69.28	107.4	152.9	102.2	149.5	764.0	9999.9	9999.9	622.5	67.61	51.00	42.14	36.90	32.13	29.87	27.30	26.28	25.25	24.37	23.74	22.62	22.31	22.29	22.05	21.88	20.87	20.24	18.09	17.34	16.18	14.96	14.22	12.70	11.97	11.28	10.82	10.48	9.285	8.835	8.627	8.096	7.572	7.305	6.915	7.681	7.897	5.821	5.069	4.695	4.407	4.561	4.747	4.763	4.940	4.972	4.862	5.557	6.972	18.34	82.51	280.3	715.2	3889	9999.9	5720	32.01	6.662	3.882	2.862	2.304	2.050	1.844
565.0	89.31	81.33	69.44	63.74	61.91	62.59	82.76	146.6	102.8	103.5	249.9	4185	9999.9	3794	68.97	49.86	39.92	33.35	30.05	27.50	24.77	22.94	22.21	21.37	21.08	19.84	19.40	19.78	19.10	19.30	18.37	17.48	15.49	15.07	14.11	12.70	12.39	11.68	10.66	9.892	9.760	9.389	8.093	7.669	7.597	6.857	6.935	6.156	6.031	6.054	6.939	6.333	4.965	4.117	4.078	4.215	4.074	4.257	4.336	4.559	4.289	4.240	4.649	7.592	22.02	66.69	165.0	904.2	4791	9999.9	1901	25.20	4.934	3.578	2.629	1.930	1.914
570.0	84.38	76.59	69.59	55.86	53.83	56.11	63.67	107.9	122.5	84.20	122.4	1097	9999.9	9999.9	456.0	49.23	37.18	30.55	26.75	23.71	21.79	20.47	18.62	18.55	18.33	16.27	16.76	16.60	16.73	16.21	15.71	14.67	13.34	12.68	11.73	10.88	10.30	9.574	9.050	8.526	8.290	7.595	7.164	6.661	6.618	5.923	5.837	5.310	5.158	4.844	5.273	5.552	5.141	3.994	3.719	3.652	3.705	3.721	3.711	3.992	3.930	3.832	3.926	4.494	7.842	18.33	40.48	206.1	1123	4266	7084	4079	127.1	6.382	3.291	2.363	2.012
575.0	82.27	74.89	66.20	51.61	45.79	48.52	52.73	71.61	127.6	88.63	88.29	310.1	2989	9999.9	5592	63.71	35.39	29.19	24.89	20.59	19.23	18.87	16.43	16.40	15.95	14.46	14.13	13.71	13.76	13.66	13.14	12.43	11.58	11.08	9.598	9.290	8.593	8.261	7.972	7.107	6.918	6.352	6.018	5.537	5.780	5.479	4.925	4.709	4.547	4.023	4.155	4.431	4.890	4.221	3.598	3.204	3.293	3.321	3.200	3.216	3.323	3.559	3.439	3.323	4.275	6.803	11.93	49.19	253.6	955.5	2136	6667	4952	33.99	5.454	2.718	2.033
580.0	90.32	75.81	62.48	50.06	44.68	42.81	48.03	57.79	112.2	101.7	78.36	132.9	767.2	9999.9	9999.9	117.7	35.72	28.79	24.18	19.82	18.45	16.80	16.00	14.50	14.27	13.48	12.74	11.90	12.04	12.16	11.89	10.92	10.03	9.646	8.833	7.889	7.587	7.175	6.794	6.339	6.020	5.747	5.380	5.020	5.342	5.063	4.389	4.374	4.106	3.517	3.622	3.548	3.979	4.136	3.646	3.023	2.998	3.066	3.078	2.896	2.944	3.184	3.466	3.119	3.074	3.853	5.065	13.70	59.57	216.4	486.2	2497	7173	1985	28.49	4.001	2.360
585.0	82.21	73.21	59.58	48.08	41.49	41.62	45.33	47.89	85.84	116.5	74.98	89.80	233.3	4160	9999.9	845.8	39.65	27.62	22.22	18.28	17.32	15.49	14.03	13.37	12.79	11.47	11.38	11.10	10.80	10.67	10.41	9.504	9.012	8.349	8.120	6.953	6.704	6.711	6.099	5.794	5.408	5.182	5.043	4.762	4.734	4.317	3.997	3.876	3.628	3.267	3.347	3.076	3.177	3.884	3.580	2.941	2.880	2.847	2.580	2.621	2.643	2.762	3.361	2.926	2.846	2.775	3.256	5.282	15.72	51.02	111.8	579.6	3193	6203	1637	21.03	3.326
590.0	79.80	72.24	61.76	46.64	39.66	35.77	39.56	42.16	62.52	114.8	88.62	74.85	106.8	1073	9999.9	9999.9	287.2	28.66	21.87	17.57	15.62	14.32	12.80	12.15	11.30	10.38	10.03	9.600	9.594	9.264	9.203	8.461	8.126	7.278	6.947	6.138	5.765	5.489	5.332	4.944	4.815	4.413	4.291	4.024	4.102	3.886	3.634	3.384	3.280	2.994	2.830	2.718	2.594	3.237	3.344	3.080	2.641	2.531	2.424	2.340	2.224	2.262	2.590	2.648	2.633	2.510	2.583	3.143	5.594	13.65	27.33	132.0	743.9	2581	4373	2171	118.3
595.0	74.81	79.94	58.68	44.26	38.88	33.33	37.12	42.06	54.03	88.87	111.0	75.49	78.89	289.2	2853	9999.9	3642	36.43	22.40	17.33	14.62	13.50	11.47	10.87	9.893	9.335	8.563	8.707	8.498	8.063	7.720	7.363	7.063	5.964	6.161	5.586	4.984	4.896	4.606	4.367	4.260	3.933	3.782	3.689	3.372	3.194	3.272	2.935	2.885	2.554	2.431	2.303	2.255	2.625	2.927	2.989	2.765	2.382	2.181	1.962	2.109	2.041	2.161	2.177	2.475	2.516	2.216	2.404	2.781	4.923	8.134	31.40	167.8	577.5	1290	3849	2136
600.0	70.25	72.12	61.32	43.52	38.96	36.55	38.17	42.06	50.38	71.89	122.0	82.63	74.97	115.8	716.5	9863	9999.9	85.54	23.73	17.49	14.48	12.05	11.42	10.51	9.158	8.421	8.353	8.135	7.846	7.736	7.178	6.553	6.259	5.223	5.546	5.302	4.477	4.280	4.165	3.802	3.733	3.426	3.666	3.418	2.980	2.980	2.922	2.875	2.774	2.456	2.243	2.179	1.965	2.018	2.546	2.630	2.704	2.313	1.889	1.877	1.933	1.891	1.795	1.877	2.186	2.418	1.946	2.208	1.993	2.546	3.349	8.714	39.12	130.6	293.1	1420	4030
605.0	78.87	82.60	65.97	51.99	36.05	38.12	40.87	46.51	55.76	74.84	125.7	110.9	85.30	84.07	211.2	3929	9999.9	635.9	25.47	17.38	14.11	12.28	10.40	9.343	8.269	8.175	7.713	7.266	7.041	6.872	6.770	5.827	5.656	5.093	4.963	4.634	4.086	4.110	3.631	3.531	3.484	3.097	3.149	3.284	2.892	2.596	2.595	2.772	2.477	2.150	2.013	1.891	1.794	1.954	2.115	2.353	2.589	2.418	2.008	1.905	1.731	1.906	1.828	1.769	1.840	2.069	1.896	2.082	2.000	1.813	2.294	3.473	10.14	30.99	67.40	328.9	1779
610.0	86.65	91.46	78.82	57.31	43.03	41.15	53.16	61.75	78.03	99.09	135.5	161.8	125.6	101.0	118.3	1017	9304	8079	180.5	18.67	14.25	11.57	9.876	8.941	8.349	7.567	7.235	6.288	6.613	6.295	6.089	5.331	5.223	4.537	4.370	3.857	3.764	3.629	3.343	3.165	3.077	2.928	2.860	2.833	2.685	2.602	2.546	2.477	2.317	2.029	1.875	1.777	1.740	1.639	1.752	1.976	2.167	2.328	2.055	1.969	1.771	1.878	1.698	1.672	1.675	1.847	2.081	2.141	1.910	1.718	1.932	2.114	3.759	8.368	16.65	75.06	412.8
615.0	87.38	89.42	87.77	61.50	45.28	42.54	55.84	66.03	88.33	109.6	137.2	179.0	158.0	113.3	103.0	286.1	2690	9999.9	2371	23.51	14.76	12.56	10.15	8.404	7.951	7.355	6.640	6.203	6.137	5.896	5.569	4.883	4.457	4.107	4.053	3.662	3.366	3.348	3.144	2.859	2.665	2.721	2.513	2.436	2.367	2.357	2.179	2.283	2.147	1.828	1.760	1.699	1.573	1.454	1.837	1.710	1.913	2.063	2.076	1.905	1.605	1.857	1.658	1.639	1.726	1.925	1.748	1.992	2.092	1.731	1.775	1.647	1.923	3.084	4.887	18.04	93.33
620.0	94.28	91.34	79.94	60.99	46.27	45.77	54.41	68.78	85.90	108.3	129.0	164.5	165.9	115.4	96.96	119.4	693.0	8578	7795	58.50	16.28	12.80	10.33	8.911	7.630	6.780	6.335	5.713	6.107	5.323	4.907	4.673	4.199	3.954	3.964	3.297	3.133	3.160	3.116	2.568	2.677	2.489	2.319	2.209	2.403	2.227	2.039	2.258	1.918	1.841	1.630	1.652	1.465	1.427	1.536	1.466	1.699	1.791	1.995	1.812	1.546	1.719	1.630	1.584	1.617	1.770	1.619	1.752	1.888	1.835	1.662	1.489	1.665	1.707	2.234	5.176	22.12
625.0	88.46	94.14	87.87	62.17	45.73	45.32	53.24	66.87	82.47	104.5	124.9	148.9	166.2	117.2	93.99	81.40	207.8	3484	9999.9	466.4	17.76	12.98	10.74	8.750	7.425	6.512	6.128	5.673	5.921	5.186	4.779	4.560	4.258	3.693	3.568	3.123	2.992	2.965	2.728	2.514	2.427	2.317	2.410	2.090	2.163	2.204	2.091	2.133	1.815	1.819	1.681	1.585	1.410	1.437	1.403	1.453	1.630	1.594	1.835	1.752	1.693	1.735	1.542	1.491	1.734	1.567	1.514	1.582	1.672	1.746	1.666	1.387	1.599	1.453	1.457	2.218	6.025
630.0	83.24	96.27	90.84	62.58	45.28	46.32	53.22	66.24	77.53	99.66	123.8	140.2	156.6	130.7	92.49	70.37	94.43	892.3	8326	5821	48.09	14.47	11.09	8.749	7.011	6.342	5.812	5.413	5.550	5.189	4.709	4.169	4.140	3.667	3.217	3.071	2.787	2.718	2.532	2.482	2.333	2.216	2.237	2.082	2.089	2.114	1.962	2.077	1.793	1.752	1.624	1.508	1.465	1.423	1.461	1.409	1.506	1.518	1.530	1.646	1.620	1.475	1.576	1.371	1.545	1.484	1.532	1.394	1.491	1.635	1.651	1.413	1.471	1.208	1.227	1.448	2.260
635.0	80.61	95.76	98.22	68.52	45.74	43.72	56.47	64.53	77.51	98.65	120.7	134.1	143.9	136.2	96.71	67.34	65.27	232.7	2445	9999.9	532.1	18.48	11.74	9.536	7.333	6.443	5.850	5.217	4.997	4.869	4.381	4.046	3.971	3.535	3.359	2.987	2.597	2.494	2.438	2.415	2.511	2.137	2.050	2.216	1.961	2.048	1.930	1.903	1.816	1.635	1.527	1.549	1.390	1.360	1.319	1.415	1.425	1.504	1.466	1.599	1.472	1.469	1.593	1.436	1.443	1.358	1.448	1.371	1.403	1.481	1.511	1.415	1.251	1.183	1.009	1.030	1.235
640.0	89.57	101.2	89.59	66.48	45.49	45.87	53.65	65.60	76.31	97.66	121.7	128.7	137.6	135.2	102.3	63.94	57.58	83.31	603.7	7711	4096	43.33	12.69	9.535	7.451	6.354	5.793	5.121	4.674	4.539	4.221	3.807	3.570	3.270	3.186	2.934	2.763	2.670	2.291	2.296	2.251	2.103	2.134	2.013	2.055	1.837	2.085	1.967	1.749	1.648	1.431	1.481	1.333	1.318	1.219	1.518	1.524	1.469	1.381	1.461	1.351	1.345	1.521	1.500	1.474	1.379	1.362	1.380	1.391	1.393	1.159	1.360	1.300	1.152	0.958	0.957	0.951
645.0	89.03	109.0	89.78	64.00	42.49	42.45	51.87	63.47	73.86	92.86	115.4	125.4	131.8	124.7	106.0	64.66	54.57	47.10	155.1	3249	8905	347.9	14.25	9.787	7.848	6.510	5.820	5.358	4.808	4.424	4.243	3.801	3.416	3.571	3.175	2.812	2.691	2.531	2.333	2.168	2.073	2.277	2.249	2.040	1.956	1.767	1.959	1.948	1.765	1.602	1.560	1.389	1.310	1.287	1.294	1.430	1.379	1.372	1.392	1.451	1.250	1.392	1.340	1.405	1.344	1.369	1.326	1.361	1.432	1.378	1.152	1.234	1.284	1.314	1.142	1.043	0.864
650.0	96.94	99.18	93.61	69.42	46.31	44.80	46.22	57.04	69.64	86.84	107.9	120.5	121.2	112.7	104.5	62.91	51.91	35.75	51.21	894.2	8897	2546	19.32	10.56	8.300	6.789	5.978	5.195	4.895	4.568	4.575	3.737	3.512	3.581	3.132	2.940	2.837	2.687	2.379	2.064	2.146	2.364	2.399	2.046	2.020	1.730	1.881	1.741	1.793	1.630	1.536	1.402	1.420	1.281	1.290	1.419	1.469	1.397	1.251	1.396	1.289	1.440	1.380	1.337	1.235	1.150	1.331	1.354	1.403	1.229	1.077	1.114	1.179	1.150	1.114	0.958	0.796
