Sample:	'1
File name:	Default_20230105_160151.FD3
Run date:	'15:55:30, 01/05/2023
Operator:	dsjg
Comment:	'

Instrument
Model:	F-2700 FL Spectrophotometer
Serial number:	2198-001
ROM Version:	4J14000 07

Instrument parameters
Measurement type:	3-D scan
Data mode:	Fluorescence
EX  Start WL:	220.0 nm
EX  End WL:	600.0 nm
EX Sampling interval:	5.0 nm
EM  Start WL:	230.0 nm
EM  End WL:	650.0 nm
EM Sampling interval:	5.0 nm
Scan speed:	12000 nm/min
EX Slit:	5.0 nm
EM Slit:	5.0 nm
PMT Voltage:	700 V
Response:	Auto 
Corrected spectra:	Off
Contour interval:	50.000

Peak integration
Integration method:	Rectangular
Sensitivity:	1
Threshold:	1.000

Peaks
No.	ApexEX/EM(nm)	Height(Data)
1	225.0/345.0	803.4
2	225.0/565.0	35.41
3	235.0/370.0	648.0
4	235.0/385.0	635.1
5	245.0/535.0	111.8
6	250.0/545.0	91.97
7	265.0/585.0	42.34
8	270.0/300.0	331.3
9	270.0/595.0	34.97
10	275.0/305.0	376.6
11	275.0/605.0	29.55
12	280.0/310.0	336.1
13	280.0/620.0	24.69
14	285.0/315.0	337.1
15	285.0/630.0	17.89
16	290.0/325.0	338.5
17	300.0/335.0	268.4
18	305.0/345.0	256.0
19	310.0/350.0	235.0
20	315.0/355.0	233.9
21	320.0/360.0	245.7
22	325.0/370.0	247.0
23	330.0/375.0	247.9
24	335.0/380.0	256.5
25	430.0/505.0	25.93
26	445.0/525.0	15.31
27	460.0/545.0	8.656

Data points
	220.0	225.0	230.0	235.0	240.0	245.0	250.0	255.0	260.0	265.0	270.0	275.0	280.0	285.0	290.0	295.0	300.0	305.0	310.0	315.0	320.0	325.0	330.0	335.0	340.0	345.0	350.0	355.0	360.0	365.0	370.0	375.0	380.0	385.0	390.0	395.0	400.0	405.0	410.0	415.0	420.0	425.0	430.0	435.0	440.0	445.0	450.0	455.0	460.0	465.0	470.0	475.0	480.0	485.0	490.0	495.0	500.0	505.0	510.0	515.0	520.0	525.0	530.0	535.0	540.0	545.0	550.0	555.0	560.0	565.0	570.0	575.0	580.0	585.0	590.0	595.0	600.0
230.0	94.03	 2089	 3747	703.1	18.46	4.451	3.152	2.836	2.243	2.245	2.115	1.886	1.699	1.444	1.355	1.146	1.150	1.062	1.097	1.076	1.048	1.058	1.041	1.094	1.004	1.020	0.933	0.943	0.947	0.942	0.897	0.826	0.787	0.778	0.732	0.728	0.719	0.598	0.559	0.534	0.562	0.725	0.736	0.566	0.421	0.372	1.140	6.869	15.77	14.30	5.710	0.978	0.267	0.200	0.185	0.175	0.159	0.150	0.153	0.124	0.111	0.094	0.097	0.076	0.053	0.075	0.080	0.073	0.053	0.048	0.050	0.020	0.040	0.027	0.022	0.028	0.014
235.0	91.90	586.7	 2547	 3426	508.6	24.60	4.764	4.297	2.649	3.015	2.436	2.197	1.969	1.448	1.433	1.360	1.299	1.227	0.943	1.095	1.075	0.987	1.063	1.076	1.188	0.943	0.987	0.917	1.010	0.964	0.989	0.798	0.818	0.730	0.747	0.740	0.629	0.566	0.545	0.489	0.543	0.537	0.614	0.710	0.659	0.601	0.568	1.912	4.992	9.667	14.15	16.73	8.483	1.496	0.248	0.214	0.160	0.202	0.161	0.153	0.095	0.104	0.114	0.084	0.093	0.042	0.098	0.045	0.057	0.055	0.049	0.019	0.028	0.056	0.034	0.039	0.016
240.0	146.2	179.9	824.6	 3203	 3578	381.4	12.86	4.884	4.389	3.549	2.789	2.669	2.119	1.817	1.295	1.381	1.353	1.124	1.193	1.067	1.051	1.019	1.106	0.944	1.079	1.149	1.055	0.960	1.048	0.979	0.937	0.889	0.854	0.708	0.761	0.685	0.576	0.649	0.527	0.582	0.476	0.555	0.520	0.567	0.725	0.797	0.676	0.746	1.353	2.759	6.194	16.54	23.76	17.43	6.145	0.724	0.199	0.214	0.135	0.107	0.113	0.117	0.128	0.108	0.095	0.106	0.065	0.066	0.048	0.045	0.034	0.048	0.034	0.027	0.055	0.043	0.026
245.0	105.5	161.8	218.7	 1250	 4286	 3260	274.5	7.906	4.867	4.427	3.939	3.062	2.598	2.039	1.593	1.722	1.682	1.295	1.475	1.182	1.267	1.102	1.095	1.222	1.163	1.156	1.020	0.998	1.002	0.984	0.939	0.972	0.910	0.772	0.725	0.597	0.628	0.679	0.543	0.573	0.517	0.469	0.502	0.461	0.488	0.795	0.819	0.758	0.671	0.871	1.636	5.227	13.68	25.03	24.96	14.82	3.455	0.331	0.188	0.160	0.143	0.144	0.150	0.102	0.095	0.094	0.080	0.084	0.058	0.036	0.058	0.040	0.030	0.039	0.034	0.050	0.018
250.0	41.08	124.7	163.8	329.8	 1521	 3919	 4274	 1174	55.20	5.987	4.714	4.125	2.998	2.740	2.009	1.989	1.669	1.643	1.485	1.426	1.505	1.245	1.227	1.128	1.107	1.156	1.049	1.057	1.069	1.078	0.965	0.887	0.878	0.767	0.733	0.659	0.610	0.572	0.497	0.609	0.542	0.478	0.506	0.490	0.407	0.513	0.565	0.749	0.867	0.830	0.775	1.422	3.495	7.985	14.34	22.57	26.29	24.06	10.96	3.583	0.331	0.140	0.149	0.110	0.130	0.095	0.102	0.093	0.071	0.066	0.079	0.041	0.049	0.032	0.022	0.042	0.035
255.0	19.37	39.24	129.0	200.6	378.2	 1062	 4036	 6956	 1682	57.29	8.395	5.441	3.791	3.397	2.225	2.088	1.885	1.634	1.698	1.580	1.404	1.265	1.334	1.197	1.260	1.201	1.209	1.145	1.203	1.078	1.042	0.884	0.885	0.730	0.759	0.751	0.615	0.458	0.535	0.531	0.552	0.581	0.479	0.649	0.556	0.486	0.410	0.523	0.524	0.699	0.860	1.082	1.150	1.997	3.454	5.563	10.46	23.56	41.11	28.15	17.18	3.631	0.205	0.161	0.159	0.113	0.127	0.116	0.074	0.084	0.066	0.045	0.033	0.021	0.028	0.051	0.038
260.0	11.52	17.27	55.77	172.7	194.3	265.0	 1355	 6124	 7267	 1320	30.60	8.097	5.751	3.972	3.085	2.710	2.481	1.946	1.729	1.734	1.529	1.511	1.462	1.282	1.340	1.280	1.382	1.211	1.070	1.064	1.338	0.921	1.033	0.887	0.722	0.685	0.695	0.577	0.612	0.599	0.585	0.591	0.494	0.542	0.478	0.449	0.396	0.424	0.375	0.411	0.597	1.016	1.255	1.061	1.097	1.498	2.598	6.687	19.21	36.91	53.99	27.33	12.74	1.514	0.167	0.151	0.144	0.131	0.067	0.080	0.091	0.049	0.070	0.072	0.057	0.063	0.077
265.0	13.83	12.30	23.21	86.85	188.3	138.4	328.8	 2255	 7873	 7233	218.3	14.39	7.300	5.040	3.802	3.260	2.900	2.179	2.139	1.894	1.736	1.548	1.553	1.319	1.478	1.369	1.462	1.414	1.232	1.175	1.183	1.046	1.067	0.903	0.741	0.709	0.689	0.615	0.543	0.612	0.545	0.555	0.553	0.525	0.503	0.424	0.411	0.367	0.382	0.296	0.383	0.614	0.960	1.242	1.062	0.703	0.854	1.725	4.696	11.99	32.06	55.14	61.40	24.10	6.946	0.472	0.183	0.163	0.111	0.149	0.111	0.059	0.060	0.080	0.050	0.091	0.056
270.0	19.25	16.39	16.46	31.62	95.28	170.1	169.8	543.5	 2620	 6883	 9944	 3249	58.93	8.340	5.933	4.431	3.603	2.920	2.780	2.315	2.092	1.798	1.777	1.591	1.658	1.560	1.585	1.404	1.297	1.246	1.133	1.160	1.086	0.960	0.812	0.808	0.690	0.735	0.587	0.609	0.579	0.534	0.591	0.548	0.554	0.533	0.458	0.447	0.418	0.359	0.334	0.398	0.491	0.638	0.860	1.077	1.094	0.922	1.350	2.921	7.909	17.14	32.67	47.48	57.37	44.35	15.45	6.357	0.470	0.184	0.127	0.087	0.115	0.097	0.144	0.083	0.115
275.0	39.34	32.87	22.31	17.99	32.63	86.26	196.7	233.0	611.6	 1754	 6830	9999.9	 5057	75.01	9.872	6.580	4.922	4.066	3.276	3.002	2.536	1.940	2.086	1.842	1.691	1.792	1.659	1.519	1.451	1.318	1.212	1.265	1.088	0.985	0.976	0.933	0.775	0.768	0.687	0.668	0.556	0.474	0.609	0.603	0.611	0.625	0.555	0.547	0.446	0.376	0.364	0.336	0.363	0.409	0.403	0.616	1.050	1.382	1.339	1.145	2.008	4.071	7.574	11.31	19.73	40.22	70.72	75.36	24.37	5.550	0.339	0.179	0.142	0.125	0.180	0.171	0.119
280.0	68.59	55.63	35.52	19.42	18.75	35.87	128.2	231.0	214.7	426.1	 2000	 7603	9999.9	 1054	43.26	9.423	6.433	4.861	4.214	3.777	3.153	2.330	2.189	2.274	1.835	1.887	1.614	1.592	1.457	1.434	1.349	1.445	1.094	1.033	1.062	1.038	0.934	0.922	0.799	0.759	0.600	0.612	0.706	0.545	0.669	0.668	0.621	0.596	0.564	0.449	0.417	0.388	0.335	0.391	0.314	0.369	0.455	0.919	1.411	1.369	1.092	1.224	1.918	2.847	4.807	10.94	28.90	62.23	85.83	31.19	16.99	1.804	0.287	0.177	0.156	0.123	0.160
285.0	90.42	74.70	48.95	28.14	18.66	24.39	59.84	182.1	221.7	160.8	502.8	 2502	 9070	 8790	789.9	18.58	8.242	6.454	5.159	4.058	3.412	2.721	2.522	2.088	2.053	1.940	1.681	1.696	1.655	1.462	1.583	1.443	1.236	1.156	1.183	1.123	1.057	1.086	0.956	0.846	0.751	0.776	0.640	0.659	0.756	0.751	0.702	0.661	0.643	0.519	0.495	0.441	0.377	0.366	0.332	0.364	0.432	0.501	0.792	1.362	1.659	1.241	0.850	0.992	1.390	2.834	7.111	18.10	42.10	71.44	89.14	27.77	9.983	0.443	0.260	0.166	0.177
290.0	118.8	113.5	71.27	43.31	26.86	28.48	38.33	91.62	199.5	232.3	220.5	638.3	 2761	 7078	 8690	 3088	43.60	9.829	7.301	5.431	4.282	3.606	2.987	2.587	2.337	2.217	2.236	1.865	1.754	1.716	1.671	1.544	1.322	1.203	1.248	1.293	1.307	1.302	1.200	1.033	0.838	0.882	0.772	0.808	0.845	0.781	0.856	0.807	0.696	0.575	0.560	0.455	0.414	0.419	0.421	0.368	0.451	0.409	0.488	0.706	1.059	1.366	1.503	1.380	1.028	1.136	2.055	4.537	10.24	20.71	39.99	55.29	71.79	58.26	16.67	7.340	0.482
295.0	150.7	145.9	90.07	56.45	39.80	36.62	41.41	66.69	113.5	235.2	308.1	267.3	699.2	 1758	 4715	9999.9	 4759	52.75	10.64	7.784	5.783	4.622	3.903	3.276	2.928	2.728	2.330	2.039	2.207	1.900	1.755	1.652	1.517	1.331	1.455	1.582	1.507	1.477	1.351	1.230	0.921	0.946	0.808	0.962	0.913	0.822	0.926	0.890	0.761	0.713	0.609	0.571	0.472	0.434	0.446	0.382	0.489	0.369	0.494	0.480	0.675	0.728	1.083	1.648	1.989	1.585	1.115	1.652	2.805	5.138	9.398	13.15	21.72	40.37	82.62	101.2	25.73
300.0	163.0	161.5	110.1	72.70	46.21	42.89	49.72	67.02	92.17	171.0	331.3	301.7	263.7	467.5	 1339	 6495	9999.9	 3592	35.66	10.68	7.907	5.802	4.778	3.936	3.591	3.291	2.549	2.409	2.392	2.078	1.855	1.711	1.552	1.468	1.435	1.592	1.601	1.542	1.428	1.300	1.036	0.988	0.885	0.983	1.060	0.987	0.939	0.860	0.898	0.764	0.626	0.687	0.608	0.481	0.525	0.530	0.555	0.508	0.463	0.499	0.625	0.597	0.862	1.053	1.572	2.244	1.842	1.279	1.280	1.710	2.595	3.458	5.323	10.68	30.12	71.42	108.3
305.0	180.3	183.4	126.6	81.34	57.26	47.69	58.82	70.27	92.79	135.7	255.7	376.6	213.1	195.8	362.6	 1976	 8690	9999.9	555.1	21.89	10.75	7.818	5.836	4.727	3.989	3.484	3.024	2.756	2.299	2.411	1.908	1.805	1.771	1.585	1.464	1.566	1.652	1.670	1.350	1.332	1.237	0.980	0.934	1.036	0.984	1.072	0.910	0.934	0.896	0.745	0.677	0.772	0.633	0.623	0.588	0.608	0.583	0.531	0.589	0.623	0.664	0.642	0.826	0.870	1.057	1.590	2.277	2.068	1.471	1.118	1.205	1.360	1.729	2.802	7.381	19.81	47.72
310.0	182.1	188.9	145.9	92.47	67.83	61.21	70.38	87.33	105.3	140.9	196.9	294.3	336.1	217.4	159.5	493.6	 2431	 7853	9999.9	 5925	35.72	11.21	8.332	6.303	4.901	4.170	3.619	3.197	2.849	2.611	2.340	2.171	1.857	1.662	1.639	1.692	1.669	1.701	1.499	1.319	1.225	1.134	1.089	1.050	1.004	1.073	1.003	1.099	1.006	0.731	0.693	0.741	0.686	0.714	0.613	0.641	0.689	0.619	0.692	0.636	0.714	0.743	0.879	0.918	1.025	1.294	1.411	1.818	2.065	1.861	1.445	1.060	1.017	1.186	2.137	4.841	11.42
315.0	217.3	226.7	178.6	108.6	81.61	74.76	82.03	105.8	121.5	155.4	193.4	229.0	288.7	337.1	184.7	173.4	585.3	 1863	 5039	9999.9	 3757	44.13	12.03	9.148	6.597	5.318	4.376	3.910	3.338	2.992	2.659	2.481	2.168	1.871	1.721	1.726	1.680	1.856	1.616	1.339	1.272	1.111	1.218	1.109	1.011	1.226	1.013	1.194	1.146	0.947	0.728	0.692	0.843	0.718	0.694	0.650	0.732	0.674	0.698	0.793	0.737	0.874	1.003	1.031	1.204	1.274	1.278	1.350	1.390	1.706	2.112	1.875	1.302	0.888	0.973	1.543	2.944
320.0	295.0	335.9	264.1	150.4	98.43	81.67	104.0	124.9	144.4	180.2	220.4	232.9	257.4	329.7	293.3	133.5	185.3	456.5	 1336	 7015	9999.9	 2944	31.77	11.90	9.055	6.475	5.238	4.376	3.649	3.482	2.755	2.622	2.408	2.033	1.872	1.808	1.899	1.749	1.628	1.442	1.382	1.414	1.281	1.306	1.232	1.433	1.412	1.505	1.469	1.192	0.946	0.818	0.873	0.758	0.770	0.648	0.816	0.922	0.795	0.962	0.993	0.997	1.125	1.153	1.163	1.361	1.322	1.295	1.461	1.555	1.715	2.263	2.082	1.330	0.869	0.866	1.168
325.0	387.3	515.5	436.9	235.0	118.1	99.34	115.9	143.0	177.0	210.8	253.7	277.3	276.9	290.3	338.5	220.3	116.0	154.9	340.4	 1970	 9906	9999.9	444.6	22.94	11.54	8.260	6.289	5.036	4.251	3.931	3.300	2.872	2.378	2.034	1.918	1.950	1.852	1.893	1.735	1.652	1.412	1.544	1.510	1.338	1.454	1.878	1.862	2.201	2.066	1.603	1.274	1.084	0.858	0.780	0.752	0.852	0.815	0.994	0.949	0.989	1.070	1.085	1.274	1.499	1.340	1.626	1.602	1.515	1.546	1.616	1.600	1.868	2.119	2.254	1.544	1.059	0.869
330.0	470.2	603.0	563.2	330.5	167.5	129.2	140.8	167.7	200.8	239.8	284.4	311.4	310.2	288.7	282.6	287.5	192.1	103.7	127.6	483.9	 2634	 8740	9999.9	 6731	34.08	12.06	8.669	6.659	5.511	4.760	3.928	3.330	2.617	2.418	2.225	2.029	2.005	1.946	1.790	1.737	1.601	1.639	1.593	1.548	1.825	2.018	2.168	2.420	2.420	2.152	1.535	1.410	1.128	0.921	0.955	0.901	0.984	1.070	1.080	1.087	1.159	1.279	1.354	1.555	1.527	1.846	1.827	1.717	1.744	1.781	1.701	1.656	1.653	1.927	2.048	1.841	1.373
335.0	545.5	712.6	675.7	422.6	230.8	169.9	174.3	192.7	229.5	270.5	319.8	348.0	345.4	320.4	280.2	245.7	268.4	172.1	95.45	160.5	629.9	 2041	 5426	9999.9	 3281	41.14	12.69	9.771	7.256	5.958	4.708	4.080	3.380	2.804	2.559	2.291	2.120	2.136	1.941	1.826	1.718	1.717	1.835	1.742	1.953	2.212	2.349	2.687	2.860	2.659	1.922	1.553	1.481	1.108	1.033	1.008	1.188	1.177	1.301	1.320	1.253	1.525	1.515	1.509	1.639	1.944	1.820	1.899	1.723	2.043	1.978	1.945	1.798	1.637	1.702	1.649	1.923
340.0	584.3	794.9	759.2	480.6	282.1	203.7	209.3	227.0	254.3	295.5	346.8	375.3	374.1	351.8	301.9	238.7	238.9	253.7	129.0	100.3	194.8	501.3	 1387	 8031	9999.9	 2752	32.99	12.19	9.150	6.829	5.540	4.700	3.816	2.934	2.867	2.575	2.288	2.314	2.116	1.873	1.851	1.845	1.890	1.771	2.184	2.495	2.583	2.973	3.176	2.843	2.171	1.920	1.679	1.404	1.439	1.181	1.250	1.449	1.454	1.520	1.413	1.565	1.581	1.554	1.863	1.981	1.992	2.189	2.086	2.188	2.162	2.148	2.025	1.790	1.579	1.441	1.487
345.0	571.6	803.4	761.4	537.3	324.7	243.8	241.5	253.7	267.9	303.5	354.1	385.4	389.4	369.0	322.3	247.3	211.9	256.0	204.9	105.9	107.5	165.7	354.9	 2191	9999.9	9999.9	393.3	24.50	11.87	8.734	6.595	5.245	4.053	3.268	3.073	2.699	2.518	2.364	2.202	1.985	1.949	1.817	1.797	1.981	2.195	2.482	2.699	2.907	3.160	2.907	2.398	2.146	1.917	1.614	1.557	1.363	1.551	1.576	1.524	1.408	1.687	1.549	1.875	1.759	1.921	2.005	2.153	2.311	2.084	2.122	2.260	2.088	2.140	1.969	1.636	1.453	1.378
350.0	553.1	754.1	734.8	569.4	384.8	302.7	280.5	286.4	289.8	320.7	363.8	389.8	395.2	376.8	337.5	266.4	219.0	210.5	235.0	187.5	116.8	107.9	136.3	535.6	 2754	9999.9	9999.9	 6733	32.04	12.00	9.095	6.699	4.981	3.729	3.426	2.983	2.717	2.463	2.321	2.173	1.918	1.932	1.921	2.015	2.131	2.458	2.594	3.028	3.144	2.845	2.364	2.315	2.052	1.777	1.678	1.542	1.633	1.721	1.690	1.565	1.713	1.709	1.924	1.810	2.004	2.137	2.133	2.226	2.141	2.125	2.255	2.186	2.046	1.944	1.763	1.611	1.573
355.0	528.2	718.6	725.9	604.9	440.9	362.2	345.9	334.1	324.0	347.6	376.3	406.5	402.8	392.3	357.0	287.9	243.0	213.0	206.2	233.9	194.9	120.5	106.4	180.1	661.6	 2313	 5730	9999.9	 3008	41.02	12.83	8.747	6.550	4.794	3.885	3.456	3.009	2.668	2.404	2.146	2.159	2.003	2.056	2.063	1.955	2.385	2.415	3.005	3.071	2.769	2.355	2.391	2.259	2.085	1.844	1.952	1.890	2.012	1.766	1.734	1.907	1.859	1.892	1.967	2.009	2.160	2.239	2.208	2.373	2.244	2.232	2.240	2.091	2.023	1.906	1.756	1.661
360.0	524.1	680.1	711.5	624.9	491.2	404.4	387.3	365.5	349.8	363.8	393.4	415.7	412.9	397.9	369.1	307.7	263.3	229.3	205.1	213.1	245.7	168.2	117.0	113.4	206.7	560.6	 1442	 8338	9999.9	 2660	33.77	11.46	8.123	6.015	4.601	3.678	3.340	2.884	2.572	2.352	2.132	2.031	2.098	2.141	1.997	2.193	2.361	2.727	3.061	2.659	2.333	2.513	2.507	2.184	2.140	2.064	2.144	2.083	2.018	1.867	1.935	1.990	1.902	1.980	2.072	2.141	2.359	2.177	2.355	2.224	2.494	2.323	2.219	2.174	2.043	1.782	1.874
365.0	478.3	642.0	683.5	646.4	515.9	440.1	414.1	392.2	375.1	382.1	403.9	416.3	416.2	404.7	373.3	322.9	281.0	247.6	220.2	208.9	243.8	233.4	144.2	112.5	116.4	178.7	366.3	 2262	9999.9	9999.9	369.3	24.26	10.04	7.535	5.498	4.316	3.469	3.371	2.813	2.475	2.110	2.102	2.044	2.170	2.204	2.187	2.398	2.654	2.935	2.672	2.399	2.553	2.537	2.282	2.268	2.251	2.081	2.291	2.286	2.079	2.146	2.202	2.100	2.175	2.257	2.217	2.300	2.378	2.491	2.340	2.305	2.329	2.351	2.218	2.090	1.975	1.947
370.0	477.3	603.7	639.6	648.0	536.6	494.0	458.8	427.5	401.4	400.8	422.4	426.4	419.7	409.1	384.2	336.5	301.4	272.2	248.2	229.8	225.8	247.0	218.7	148.8	117.1	111.1	136.4	548.0	 2786	9999.9	9999.9	 6820	28.83	10.50	7.334	5.512	4.430	3.695	3.134	2.865	2.411	2.406	2.227	2.260	2.245	2.253	2.364	2.651	2.799	2.446	2.339	2.726	2.643	2.442	2.448	2.350	2.352	2.284	2.385	2.260	2.243	2.305	2.230	2.289	2.280	2.283	2.356	2.297	2.409	2.322	2.289	2.343	2.360	2.271	2.161	2.097	2.108
375.0	446.6	580.9	624.1	635.1	561.5	522.2	484.3	465.4	428.1	423.1	434.3	435.3	425.3	415.7	388.4	351.2	320.7	298.2	275.4	256.1	240.6	235.4	247.9	223.0	148.7	117.3	101.1	175.0	660.8	 2305	 6299	9999.9	 2598	36.24	9.954	7.162	5.699	4.419	3.549	3.146	2.659	2.561	2.343	2.423	2.125	2.344	2.230	2.676	2.616	2.420	2.308	2.638	2.807	2.641	2.604	2.547	2.598	2.441	2.461	2.323	2.252	2.371	2.251	2.499	2.382	2.426	2.379	2.291	2.494	2.291	2.275	2.282	2.351	2.369	2.354	2.354	2.041
380.0	452.0	547.2	603.4	631.3	580.5	540.9	513.5	481.2	447.6	437.5	451.4	446.2	432.6	414.3	394.1	356.7	333.5	313.1	296.2	274.3	254.0	241.8	239.9	256.5	195.5	133.9	107.0	103.8	194.9	551.1	 1566	 8384	9999.9	 2317	28.35	8.796	6.725	5.089	4.024	3.564	2.858	2.855	2.570	2.422	2.220	2.249	2.210	2.466	2.646	2.434	2.363	2.803	2.712	2.606	2.662	2.543	2.671	2.586	2.611	2.330	2.537	2.382	2.349	2.483	2.381	2.521	2.511	2.573	2.583	2.413	2.353	2.352	2.409	2.273	2.464	2.186	2.012
385.0	437.1	538.2	572.4	635.1	589.4	553.6	523.0	486.8	458.1	443.1	453.2	448.4	434.2	417.8	395.5	362.4	340.9	324.2	307.7	289.4	270.2	254.7	239.7	248.8	244.6	165.0	121.2	97.79	100.5	165.9	384.4	 2273	9999.9	9999.9	303.3	18.47	7.950	6.200	4.741	3.714	3.305	2.862	2.514	2.389	2.322	2.329	2.247	2.510	2.529	2.498	2.326	2.641	2.789	2.540	2.791	2.630	2.719	2.616	2.590	2.399	2.494	2.470	2.441	2.515	2.521	2.615	2.352	2.373	2.494	2.269	2.396	2.621	2.449	2.415	2.340	2.300	2.197
390.0	439.9	526.7	566.3	618.6	588.4	566.6	537.6	505.2	466.4	453.1	459.5	451.8	439.9	420.7	397.8	366.8	348.6	332.2	318.3	303.8	290.4	271.2	253.0	241.2	246.6	222.1	157.1	115.2	94.00	91.56	126.5	539.9	 2744	 9495	9999.9	 5278	23.30	8.415	6.077	4.668	3.741	3.122	2.718	2.626	2.545	2.640	2.425	2.594	2.629	2.499	2.248	2.587	2.680	2.679	2.784	2.735	2.814	2.723	2.607	2.564	2.447	2.446	2.413	2.440	2.476	2.472	2.407	2.432	2.459	2.290	2.412	2.577	2.556	2.465	2.311	2.305	2.291
395.0	422.3	503.1	548.7	615.2	577.9	562.6	546.4	505.6	473.9	459.6	463.8	453.7	437.2	416.6	398.4	366.7	348.7	336.6	325.4	314.2	299.9	283.4	266.7	251.0	234.7	235.2	212.7	144.2	108.0	87.26	79.56	157.7	639.3	 2171	 5349	9999.9	 2144	30.47	8.117	6.019	4.524	3.690	2.872	2.843	2.716	2.833	2.612	2.476	2.593	2.490	2.271	2.584	2.612	2.843	2.780	2.844	2.875	2.892	2.714	2.584	2.555	2.481	2.409	2.444	2.319	2.414	2.558	2.518	2.564	2.460	2.584	2.353	2.443	2.417	2.276	2.379	2.403
400.0	418.0	479.8	539.8	585.2	574.5	571.0	545.1	514.7	478.2	474.7	460.5	447.8	431.3	415.5	391.7	361.7	347.5	337.5	327.3	317.0	306.4	290.6	275.2	257.5	238.0	224.9	229.6	183.5	124.5	95.45	76.01	78.71	174.8	509.0	 1314	 7386	9999.9	 1953	24.35	7.390	5.622	4.503	3.504	3.054	2.828	2.586	2.615	2.626	2.613	2.343	2.254	2.481	2.716	2.644	2.738	2.938	2.844	2.879	2.750	2.700	2.544	2.390	2.320	2.397	2.467	2.641	2.652	2.537	2.426	2.439	2.522	2.278	2.350	2.419	2.338	2.420	2.547
405.0	409.7	474.3	513.0	565.7	572.0	564.8	545.5	506.7	478.1	468.9	459.1	444.1	423.7	407.4	387.5	355.6	344.0	336.8	327.0	316.1	305.9	293.6	280.4	262.1	241.8	223.3	216.6	212.7	150.3	105.9	82.27	67.19	76.45	140.8	315.9	 1960	 9265	9999.9	 1520	17.02	6.404	5.230	4.083	3.498	2.991	2.714	2.715	2.739	2.606	2.443	2.309	2.531	2.643	2.751	2.619	2.888	2.873	2.837	2.783	2.765	2.457	2.440	2.287	2.514	2.604	2.453	2.560	2.479	2.361	2.249	2.358	2.291	2.280	2.261	2.289	2.419	2.492
410.0	416.6	455.4	497.3	564.8	554.1	541.1	536.8	509.1	477.8	462.1	449.5	439.1	416.0	396.5	375.6	347.3	333.8	326.8	320.0	309.2	300.0	291.0	279.2	262.9	245.0	225.2	207.2	204.1	187.0	135.8	96.01	73.76	60.87	64.11	95.48	458.1	 2404	 7642	9999.9	 4086	20.88	6.723	5.004	3.979	3.363	3.024	2.736	2.664	2.656	2.401	2.257	2.432	2.596	2.702	2.772	2.738	2.791	2.722	2.643	2.696	2.446	2.467	2.427	2.372	2.541	2.305	2.342	2.322	2.304	2.315	2.346	2.394	2.235	2.262	2.295	2.241	2.424
415.0	392.9	452.7	467.7	537.0	545.4	517.4	528.6	505.1	480.2	460.5	451.4	432.7	407.0	381.2	362.3	336.1	320.0	312.8	308.0	301.9	291.9	285.5	274.9	260.7	246.9	231.5	207.8	191.5	186.6	175.3	118.2	84.40	66.45	52.82	51.40	124.7	553.6	 1744	 4823	9999.9	 1987	27.47	6.550	4.497	3.923	3.447	2.857	2.730	2.641	2.337	2.174	2.433	2.627	2.648	2.688	2.603	2.749	2.752	2.545	2.531	2.522	2.542	2.317	2.485	2.533	2.394	2.223	2.251	2.322	2.168	2.297	2.269	2.220	2.009	2.166	2.091	2.124
420.0	384.8	432.9	466.3	525.6	515.8	516.2	514.3	492.6	472.7	456.3	447.5	421.6	397.9	374.7	347.8	321.3	310.1	301.5	300.0	292.8	286.0	279.6	268.5	258.1	246.5	230.2	209.7	190.5	176.3	180.8	146.1	96.76	72.61	56.12	44.95	54.00	143.6	404.9	 1163	 5988	9999.9	 1780	20.90	5.925	4.377	4.014	3.023	2.726	2.610	2.544	2.124	2.441	2.559	2.556	2.582	2.673	2.659	2.771	2.537	2.539	2.578	2.492	2.362	2.260	2.289	2.203	2.299	2.283	2.274	2.091	2.134	2.105	2.073	1.934	2.064	2.152	2.103
425.0	370.9	405.0	449.3	506.5	504.5	505.0	504.1	492.3	468.9	453.6	444.1	412.4	383.7	358.1	334.0	312.1	300.4	295.1	291.0	280.7	277.0	273.0	264.2	255.9	243.5	230.4	212.2	193.8	175.9	168.9	164.2	116.8	79.41	60.69	46.48	41.13	54.39	108.0	274.9	 1546	 7643	9999.9	 1298	14.23	5.291	4.448	3.350	3.010	2.600	2.484	2.141	2.393	2.499	2.461	2.599	2.567	2.524	2.586	2.708	2.617	2.475	2.232	2.370	2.319	2.436	2.273	2.180	2.192	2.051	2.296	2.142	2.169	2.219	2.168	2.031	1.967	2.046
430.0	399.1	404.7	424.2	478.8	479.8	488.0	497.8	480.0	467.5	448.7	438.2	409.1	375.4	347.9	323.2	301.8	290.0	282.0	276.8	272.3	267.9	264.0	259.3	250.2	241.0	230.4	214.4	197.0	179.7	163.8	157.2	140.9	101.3	71.23	54.47	43.38	39.31	44.63	77.56	359.0	 1985	 6348	 8654	 3238	18.36	5.611	4.139	3.621	2.922	2.502	2.260	2.600	2.445	2.441	2.419	2.526	2.598	2.532	2.584	2.550	2.532	2.375	2.433	2.471	2.403	2.219	2.244	2.131	2.038	2.144	2.034	2.013	1.959	2.074	1.980	1.981	1.930
435.0	746.6	389.0	409.2	449.9	456.6	467.3	477.8	473.2	463.3	442.2	428.1	396.8	361.7	334.3	312.7	287.7	278.5	273.4	265.0	261.4	257.6	257.5	252.7	244.6	237.8	230.1	213.7	199.4	184.7	168.5	150.0	142.3	127.9	89.45	64.21	49.85	40.58	35.02	36.30	94.63	453.9	 1442	 3836	9999.9	 1820	24.45	5.554	4.114	3.485	2.757	2.355	2.629	2.546	2.465	2.448	2.592	2.685	2.443	2.671	2.547	2.652	2.524	2.501	2.338	2.258	2.079	2.088	1.992	1.992	1.900	2.027	2.001	1.889	1.813	1.941	1.951	1.848
440.0	 1275	419.7	388.8	433.7	448.6	459.7	470.1	464.1	452.4	438.4	424.6	390.7	352.4	326.5	303.3	278.4	267.4	260.7	254.9	254.9	252.0	249.7	246.7	239.4	234.0	226.0	214.9	200.2	186.3	170.1	152.4	137.1	133.4	108.8	73.25	56.59	43.19	35.11	28.65	37.59	114.0	332.8	927.0	 5584	9999.9	 1541	16.36	5.036	3.883	3.125	2.565	2.657	2.572	2.516	2.350	2.510	2.506	2.545	2.498	2.368	2.542	2.446	2.389	2.436	2.213	2.131	2.083	2.073	1.928	2.040	1.858	1.876	1.920	1.794	1.786	1.932	1.948
445.0	 1821	591.1	374.8	413.3	436.4	434.4	459.5	453.0	444.3	432.3	418.1	378.5	347.8	320.9	291.7	268.7	260.6	251.1	248.3	245.8	244.2	242.2	238.5	234.6	229.0	221.7	213.7	201.4	188.0	173.1	155.3	136.4	126.5	119.5	85.75	62.03	46.57	37.23	29.22	26.38	39.93	85.65	218.0	 1484	 7676	 9019	209.2	9.802	4.413	3.335	2.752	2.731	2.648	2.541	2.312	2.596	2.679	2.648	2.547	2.393	2.652	2.431	2.385	2.369	2.317	2.127	2.092	2.018	1.992	1.970	1.789	1.833	1.821	1.810	1.802	1.891	1.929
450.0	 1673	 1398	411.4	402.6	415.5	417.1	441.5	436.3	429.7	420.6	401.2	369.3	331.1	302.3	278.5	257.6	244.0	237.3	234.1	230.7	228.9	229.1	226.8	224.4	220.4	213.7	206.4	196.0	185.6	174.7	157.3	137.6	121.3	112.6	100.1	73.35	52.73	41.41	32.13	26.60	25.58	32.07	60.09	341.9	 2014	 6051	 7410	 2478	14.77	4.358	3.214	3.065	2.811	2.549	2.375	2.541	2.608	2.725	2.418	2.491	2.524	2.365	2.364	2.272	2.324	2.001	2.016	1.989	1.969	1.871	1.744	1.865	1.755	1.696	1.648	1.714	1.801
455.0	840.9	 2207	824.2	375.0	373.8	396.5	411.8	419.6	404.6	400.8	385.0	352.0	312.2	286.6	257.7	237.4	225.3	219.6	216.5	211.9	212.7	212.6	211.1	208.5	205.3	202.3	194.2	187.3	179.4	171.7	154.7	137.5	118.3	103.7	96.09	87.27	63.25	44.71	34.93	28.80	24.14	22.04	25.69	86.50	457.4	 1378	 3476	 8451	 1542	17.10	4.023	3.288	3.116	2.593	2.750	2.330	2.458	2.508	2.291	2.386	2.330	2.416	2.290	2.175	2.252	1.832	1.860	1.917	1.856	1.773	1.729	1.676	1.744	1.523	1.468	1.616	1.762
460.0	420.8	 1979	 1559	395.3	351.9	373.9	389.3	399.5	388.7	384.1	365.7	336.3	295.3	273.0	244.0	221.0	213.2	207.0	205.0	200.4	200.7	197.8	199.1	195.9	194.4	189.2	184.0	179.2	172.8	164.2	150.8	136.3	118.7	99.81	87.93	85.78	72.35	49.29	37.17	30.08	24.19	20.71	18.80	29.66	111.3	316.3	838.2	 4759	 7716	 1108	12.11	3.810	3.451	2.858	2.625	2.225	2.534	2.243	2.269	2.387	2.261	2.219	2.191	2.218	2.180	1.702	1.747	1.867	1.698	1.672	1.586	1.552	1.642	1.448	1.445	1.379	1.562
465.0	297.3	 1219	 2212	600.3	349.4	354.8	366.1	372.9	374.0	364.3	349.5	319.9	282.2	258.6	227.8	211.1	198.7	192.9	190.1	188.3	185.9	186.6	188.3	183.7	181.6	178.8	175.0	171.1	163.8	158.1	146.2	131.1	114.1	98.38	83.63	78.75	74.84	54.22	38.65	31.42	25.25	20.57	17.63	17.88	34.55	79.20	195.4	 1249	 6099	 6250	161.0	6.911	3.706	2.995	2.727	2.411	2.449	2.282	2.185	2.383	2.146	2.282	2.154	2.082	2.040	1.816	1.601	1.672	1.609	1.566	1.662	1.415	1.471	1.391	1.361	1.475	1.456
470.0	241.0	516.7	 1905	 1517	376.3	323.6	343.1	350.1	348.7	338.0	324.8	292.1	261.7	235.9	209.5	192.4	182.4	175.0	172.8	169.0	166.2	168.2	168.0	166.2	164.1	162.3	157.9	155.5	150.7	145.4	135.7	122.5	108.1	93.83	79.65	70.12	66.19	59.98	45.14	33.05	25.86	21.33	17.60	16.01	17.81	26.25	51.14	286.6	 1626	 4453	 5057	767.5	13.51	3.808	3.023	2.672	2.519	2.281	2.143	2.182	2.167	2.093	1.976	1.997	1.958	1.775	1.671	1.671	1.610	1.522	1.459	1.367	1.349	1.367	1.331	1.263	1.270
475.0	235.8	288.5	829.0	 2224	631.9	295.4	305.5	313.3	313.5	308.7	294.8	268.7	238.6	212.7	190.6	175.0	163.2	156.3	153.4	149.2	150.2	149.0	150.0	147.6	145.6	144.3	143.3	138.6	136.4	131.2	124.9	113.1	99.26	87.67	75.11	65.39	57.36	53.76	50.05	37.79	26.45	22.15	18.13	15.80	14.28	15.15	18.83	70.48	367.8	 1012	 2273	 5380	 1346	16.96	3.556	2.730	2.681	2.309	2.187	1.938	2.047	1.960	1.858	1.869	1.772	1.628	1.528	1.526	1.499	1.387	1.270	1.216	1.188	1.098	1.048	1.189	1.198
480.0	245.3	225.6	375.8	 1861	 1602	319.7	289.4	295.2	296.1	290.5	275.6	250.7	222.7	199.6	176.6	159.3	151.1	145.1	139.1	138.0	136.7	136.7	135.4	135.3	135.4	132.1	130.9	127.8	127.1	123.5	116.7	105.1	94.66	83.18	72.51	62.63	54.02	47.50	47.89	40.79	28.56	21.96	18.82	15.99	13.78	12.97	11.87	22.34	87.64	231.0	548.1	 2905	 5053	203.4	11.69	3.204	2.663	2.498	2.174	1.832	1.982	1.859	1.680	1.820	1.659	1.615	1.304	1.456	1.514	1.296	1.148	1.240	1.090	1.143	1.147	1.132	1.010
485.0	225.2	229.5	245.3	 1038	 2315	504.3	268.4	273.3	277.9	270.6	261.4	232.9	209.6	186.4	165.7	150.6	141.4	133.8	130.5	127.5	127.9	126.9	126.0	125.8	124.6	123.3	120.9	119.4	117.5	114.7	107.9	97.85	88.80	78.80	68.67	60.21	52.11	44.65	42.61	42.10	32.25	23.18	19.39	16.06	14.28	12.62	10.52	11.86	25.30	56.67	127.8	742.3	 3840	 4426	182.1	5.640	2.981	2.611	2.310	2.022	1.836	1.800	1.719	1.708	1.620	1.474	1.380	1.370	1.330	1.259	1.273	1.125	1.096	1.105	1.032	1.013	1.074
490.0	185.8	223.6	199.8	432.4	 1851	 1653	328.8	254.5	252.9	251.7	242.0	217.9	193.7	168.7	154.2	135.6	127.5	121.0	117.9	115.6	113.7	114.1	113.0	111.7	111.3	109.7	107.8	108.2	105.8	103.6	99.09	90.79	81.68	73.11	64.04	56.11	48.46	41.89	37.45	36.16	35.28	27.13	19.91	16.56	14.41	12.65	10.82	10.12	12.07	18.04	33.26	170.5	996.0	 2935	 3844	780.1	13.10	3.104	2.322	2.135	1.977	1.837	1.748	1.631	1.526	1.419	1.289	1.340	1.270	1.150	1.176	1.097	0.953	1.031	0.937	0.963	0.958
495.0	160.8	207.0	189.4	247.7	762.8	 2368	941.1	230.2	227.0	224.1	218.8	198.9	176.4	154.4	135.7	122.4	112.6	109.9	104.8	101.0	100.1	99.58	99.23	96.18	98.56	97.02	96.19	95.00	93.97	92.64	88.68	82.72	74.45	65.31	58.38	51.35	45.26	39.27	34.13	31.33	31.14	30.56	23.10	16.77	14.39	12.81	11.31	9.606	9.083	9.347	12.20	42.39	225.9	668.9	 1980	 4578	 1303	16.70	2.949	2.341	1.966	1.938	1.792	1.511	1.407	1.285	1.182	1.321	1.062	1.025	1.135	0.871	0.918	0.875	0.842	0.853	0.902
500.0	130.1	169.6	194.2	192.9	326.9	 1849	 1925	279.0	211.2	207.2	204.5	180.4	163.5	140.8	126.0	111.2	103.1	98.11	94.61	92.03	90.96	89.12	89.41	87.54	87.75	86.40	86.40	86.27	85.01	84.09	80.77	75.98	68.16	61.88	54.40	48.10	41.93	37.10	31.82	29.12	27.04	28.61	25.75	17.73	14.23	12.77	11.39	9.717	8.628	7.794	7.783	13.72	54.32	153.3	483.8	 2535	 4482	222.7	10.54	2.687	2.049	1.941	1.672	1.564	1.314	1.266	1.092	1.075	1.006	1.095	1.015	0.916	0.841	0.878	0.786	0.806	0.810
505.0	114.9	135.0	187.3	177.1	197.4	961.1	 2598	634.0	197.2	190.1	187.2	168.8	146.6	128.6	115.2	101.3	93.22	90.00	85.77	83.46	83.37	80.78	80.81	78.90	79.48	78.13	78.08	78.52	76.86	76.04	73.47	68.35	61.93	55.65	49.95	43.33	39.31	34.73	30.75	27.36	24.17	24.49	25.93	20.65	14.71	12.55	11.21	9.549	8.351	7.466	6.722	7.567	15.95	37.91	112.2	659.7	 3293	 3650	185.1	4.456	2.125	1.855	1.632	1.586	1.303	1.230	1.166	1.033	0.958	0.941	0.868	0.865	0.784	0.792	0.770	0.795	0.772
510.0	101.5	109.8	162.1	169.7	156.2	360.7	 1867	 1893	248.1	170.9	166.7	149.3	131.5	116.5	102.1	90.44	82.89	76.83	74.33	72.70	72.09	70.02	69.53	69.52	68.43	68.26	67.72	66.97	67.60	66.56	64.36	59.98	54.32	49.25	44.11	39.56	35.34	31.04	27.66	25.02	22.45	20.63	21.54	21.49	16.94	12.61	10.75	9.377	8.274	7.296	6.413	6.114	7.398	12.15	28.55	150.8	851.8	 2396	 2420	776.3	12.18	2.245	1.718	1.544	1.278	1.131	1.093	0.938	0.950	0.836	0.811	0.786	0.660	0.746	0.650	0.715	0.646
515.0	89.49	95.50	118.9	160.4	138.5	178.9	681.4	 2414	 1033	155.6	144.6	130.0	115.7	101.7	87.63	78.30	71.67	65.78	64.69	61.96	60.20	60.66	59.21	57.86	58.07	58.00	57.39	57.93	57.55	58.26	55.47	52.17	47.55	42.99	39.33	35.09	31.31	27.56	25.41	22.20	20.35	18.62	17.14	18.57	18.28	13.93	10.61	9.225	7.877	7.116	6.445	5.822	5.385	6.075	9.772	36.64	192.7	543.0	 1237	 3251	 1159	15.17	2.052	1.537	1.447	1.115	1.025	0.890	0.844	0.825	0.771	0.741	0.680	0.617	0.590	0.643	0.591
520.0	83.76	83.90	99.04	144.2	140.3	129.5	260.4	 1686	 2055	218.9	130.9	117.2	105.0	91.21	80.33	71.31	65.49	58.99	58.66	55.95	53.74	53.17	53.20	51.66	51.94	51.07	51.36	50.91	51.56	51.32	49.82	46.41	42.93	38.84	35.32	31.75	28.74	25.52	23.55	20.35	18.69	16.73	15.59	15.81	16.94	15.25	10.62	9.134	7.620	6.600	6.014	5.463	4.924	4.729	5.364	10.99	45.70	123.9	300.4	 1789	 3154	221.6	8.002	1.715	1.354	1.285	1.050	1.005	0.835	0.694	0.745	0.644	0.669	0.540	0.590	0.559	0.583
525.0	72.53	78.59	84.86	124.1	134.2	111.7	147.9	798.8	 2584	707.0	121.0	109.3	95.16	83.22	73.08	65.44	58.94	55.26	52.78	50.59	47.33	47.98	47.53	45.78	46.80	46.31	46.83	46.38	46.33	46.36	45.13	41.84	38.32	35.41	31.73	29.58	26.21	23.59	21.44	18.92	17.15	15.54	14.14	13.35	14.51	15.31	12.18	8.888	7.376	6.467	5.679	5.188	4.907	4.397	4.242	5.159	12.77	29.98	69.72	461.3	 2203	 2490	173.9	3.230	1.527	1.250	1.024	0.908	0.750	0.742	0.661	0.599	0.562	0.540	0.577	0.457	0.527
530.0	59.55	68.67	74.93	96.74	121.5	108.1	107.8	277.0	 1668	 1987	192.3	96.07	83.99	72.71	63.67	56.75	51.84	47.05	45.13	44.02	41.63	41.64	41.32	39.97	40.08	40.20	40.69	39.77	40.18	39.47	38.65	35.92	33.07	30.47	28.09	25.38	23.03	20.69	19.02	16.95	15.53	14.17	12.87	11.92	11.57	13.07	12.70	9.858	7.239	5.996	5.467	4.915	4.365	4.138	3.873	3.681	5.291	8.881	17.69	105.0	563.2	 1615	 1900	657.4	10.78	1.392	1.011	0.940	0.746	0.762	0.659	0.540	0.511	0.544	0.481	0.431	0.438
535.0	51.20	61.57	60.21	75.53	97.14	111.8	91.22	128.9	557.5	 2166	 1267	89.68	72.83	63.88	55.65	48.77	44.60	40.32	39.03	38.26	36.23	35.25	35.66	34.68	34.29	34.95	34.85	34.03	34.32	34.23	32.62	31.26	28.40	25.95	24.27	21.68	20.11	18.30	16.44	15.17	13.53	12.90	11.21	10.33	10.04	9.755	10.98	10.66	7.761	5.772	4.941	4.670	3.969	3.762	3.495	3.243	3.384	4.058	5.710	25.07	127.1	365.6	879.7	 2258	900.7	13.19	1.223	0.952	0.833	0.704	0.632	0.543	0.452	0.448	0.351	0.415	0.463
540.0	45.68	52.16	56.05	60.89	78.32	103.9	89.59	91.03	193.4	 1355	 2283	176.2	65.83	56.21	49.69	43.94	40.00	36.71	35.29	33.11	32.12	31.37	30.92	30.33	30.44	30.58	30.17	30.68	29.88	31.16	29.24	27.69	25.62	23.19	21.55	19.81	17.85	16.33	14.71	13.46	12.37	11.66	10.39	9.479	9.167	8.394	8.638	9.846	8.433	5.959	4.980	4.402	3.642	3.521	3.212	3.273	2.648	2.755	2.887	7.106	29.92	83.12	210.1	 1203	 2204	216.7	6.001	1.005	0.747	0.656	0.610	0.496	0.401	0.377	0.400	0.374	0.447
545.0	41.88	49.82	52.80	56.93	60.36	88.33	91.97	73.77	102.1	591.1	 2422	844.0	60.97	51.02	45.48	39.42	34.96	32.69	30.89	30.25	29.17	28.02	26.82	27.31	27.56	27.27	27.16	26.80	27.02	27.25	26.54	25.29	22.93	20.73	19.24	17.52	15.94	14.92	13.80	12.59	11.35	10.12	9.597	8.916	8.600	7.516	7.260	8.587	8.656	6.599	4.660	4.125	3.535	3.153	3.027	2.971	2.711	2.444	2.290	3.021	7.956	19.93	48.47	306.4	 1511	 1722	165.8	2.089	0.827	0.707	0.632	0.479	0.354	0.392	0.390	0.373	0.336
550.0	37.76	42.97	46.43	49.29	50.78	64.01	86.47	70.64	72.19	193.5	 1307	 1896	271.0	44.56	38.91	33.56	30.58	28.12	27.01	25.21	25.03	24.21	23.33	23.12	23.46	22.80	22.87	23.03	23.20	22.95	22.75	20.81	19.67	17.94	16.69	15.09	14.09	12.99	12.20	10.81	9.786	9.041	8.360	7.875	7.411	6.461	6.423	6.518	7.047	7.155	5.179	3.923	3.253	2.913	2.766	2.514	2.401	2.318	2.040	1.897	2.998	5.613	12.05	69.72	383.4	 1101	 1386	492.9	10.35	0.825	0.656	0.561	0.432	0.433	0.365	0.328	0.299
555.0	35.58	35.25	36.10	43.80	39.26	48.13	67.67	70.69	57.11	84.71	392.6	 1695	 1175	47.06	33.40	28.71	25.20	23.27	22.30	20.98	20.58	20.12	19.41	19.23	18.71	19.02	18.78	19.52	19.27	19.59	18.71	17.82	16.76	14.93	13.84	12.68	11.93	10.67	10.24	9.181	8.503	7.620	7.398	6.516	6.604	5.772	5.377	5.348	5.395	6.060	5.490	4.128	2.995	2.436	2.457	2.177	1.973	1.940	1.952	1.671	1.760	2.341	3.539	16.50	86.34	248.5	587.3	 1505	236.9	12.45	0.803	0.577	0.508	0.408	0.320	0.289	0.225
560.0	34.32	31.15	31.64	36.71	35.13	41.01	54.47	67.69	52.05	56.84	128.0	953.8	 1997	127.1	29.88	24.79	22.35	20.60	19.27	18.92	17.55	17.62	17.24	16.66	16.16	16.58	16.29	16.83	16.36	17.03	16.42	15.18	14.17	12.89	11.95	11.11	10.25	9.200	8.654	7.886	7.286	6.727	6.368	6.105	5.900	5.303	4.702	4.582	4.151	4.592	5.226	4.449	3.060	2.350	2.305	1.982	2.005	1.680	1.656	1.536	1.279	1.418	1.734	4.445	20.13	56.36	138.5	759.5	 1350	208.9	5.155	0.625	0.446	0.439	0.299	0.306	0.229
565.0	30.67	35.41	29.46	32.35	31.40	35.55	39.46	62.83	52.76	46.08	61.95	376.9	 1887	805.8	26.72	21.11	19.68	18.34	17.20	15.62	15.56	15.30	14.77	14.52	13.80	14.21	13.86	13.46	14.04	14.46	13.59	13.33	12.05	11.23	10.34	9.184	8.707	8.039	7.557	7.052	6.352	6.039	5.627	5.320	4.933	4.616	4.049	3.941	3.528	3.683	4.329	4.273	3.244	2.151	2.046	1.935	1.675	1.490	1.405	1.508	1.274	1.115	1.187	1.701	5.309	13.42	31.91	188.3	891.9	 1122	31.17	1.522	0.447	0.406	0.311	0.243	0.219
570.0	22.75	30.13	25.74	27.61	24.39	28.87	31.01	47.12	52.56	39.10	40.35	115.0	907.3	 1653	262.0	18.22	16.08	14.60	13.68	13.10	12.57	11.99	11.80	11.49	11.40	11.09	11.10	11.06	11.27	11.38	10.75	10.52	9.780	8.727	8.442	7.417	7.255	6.534	6.135	5.573	5.084	4.805	4.495	4.284	4.007	3.700	3.298	3.282	2.860	2.826	2.962	3.341	3.144	2.254	1.727	1.622	1.407	1.293	1.171	1.193	1.144	1.086	0.939	1.001	1.829	3.603	7.843	42.70	221.4	649.2	781.1	132.8	9.012	0.441	0.328	0.223	0.212
575.0	21.82	23.46	21.15	20.77	19.18	21.22	24.43	30.00	44.89	38.95	31.26	46.47	252.2	 1215	969.1	24.95	12.58	11.54	10.80	9.962	9.439	9.184	9.389	8.912	8.732	8.491	8.599	8.367	8.725	8.650	8.287	8.205	7.596	6.720	6.485	6.004	5.789	4.965	4.773	4.330	4.049	3.817	3.554	3.391	3.014	3.026	2.689	2.606	2.217	2.147	2.132	2.109	2.564	2.482	1.577	1.304	1.148	1.017	1.048	0.840	0.879	0.929	0.857	0.713	0.872	1.320	2.257	10.04	49.83	146.1	310.3	746.3	217.7	9.735	0.425	0.262	0.208
580.0	23.11	22.16	21.54	17.40	16.41	16.96	19.04	22.37	34.95	42.08	27.11	30.03	73.56	603.8	 1669	96.71	11.58	9.729	9.210	8.339	7.851	8.090	7.579	7.494	7.484	7.194	7.255	7.031	6.898	7.126	6.714	6.719	6.373	5.721	5.527	4.774	4.517	4.361	4.023	3.650	3.397	3.016	2.977	2.870	2.598	2.476	2.292	2.101	1.860	1.734	1.680	1.640	1.895	2.337	1.585	1.164	0.984	0.899	0.874	0.890	0.773	0.719	0.804	0.660	0.701	0.733	1.004	2.664	11.55	33.05	72.71	361.4	706.8	168.4	2.662	0.307	0.204
585.0	19.45	19.63	19.09	14.62	14.51	15.19	17.34	17.64	27.31	42.34	26.80	24.45	31.97	224.1	 1410	712.5	11.38	8.751	7.876	7.574	6.899	6.591	6.763	6.536	6.064	6.025	6.458	5.982	6.173	5.975	5.861	5.640	5.232	4.673	4.458	3.954	3.773	3.655	3.597	3.175	3.052	2.750	2.588	2.428	2.501	2.143	2.023	1.839	1.641	1.548	1.425	1.437	1.406	1.878	1.612	1.212	0.893	0.842	0.778	0.822	0.685	0.649	0.680	0.665	0.599	0.555	0.577	1.003	2.952	7.847	16.77	88.83	436.2	583.8	28.72	0.792	0.295
590.0	18.57	17.83	14.95	14.57	12.11	13.00	13.98	15.30	20.38	33.90	33.27	20.82	21.38	64.43	606.4	 1396	234.6	7.700	6.772	6.229	5.841	5.499	5.327	5.272	4.968	4.966	4.974	4.896	5.056	4.994	4.835	4.575	4.180	3.794	3.654	3.481	3.121	3.058	2.803	2.659	2.597	2.302	2.010	1.990	1.822	1.786	1.640	1.530	1.381	1.263	1.186	1.117	1.037	1.202	1.477	1.337	0.955	0.738	0.681	0.662	0.555	0.581	0.549	0.561	0.624	0.475	0.426	0.527	1.001	2.060	4.078	20.21	107.3	313.8	316.4	123.9	7.297
595.0	17.65	14.68	12.60	11.87	10.54	10.98	11.44	13.08	15.69	22.93	34.97	22.54	16.22	25.10	158.9	913.3	 1070	15.60	5.540	5.043	4.921	4.402	4.199	4.074	3.990	4.061	3.782	3.772	3.870	4.020	3.977	3.798	3.419	3.134	2.945	2.741	2.598	2.558	2.159	2.114	1.995	1.862	1.712	1.528	1.494	1.357	1.388	1.211	1.090	0.974	1.003	0.885	0.726	0.801	1.065	1.237	1.074	0.756	0.641	0.528	0.486	0.461	0.418	0.408	0.505	0.473	0.343	0.375	0.514	0.727	1.175	4.701	24.13	70.53	134.0	394.1	182.4
600.0	19.05	16.05	14.15	9.568	10.12	9.624	9.619	11.57	13.05	18.33	30.15	25.63	14.57	14.84	43.37	406.7	 1487	78.28	5.066	4.640	4.262	3.754	3.769	3.634	3.373	3.522	3.700	3.244	3.415	3.350	3.413	3.106	2.887	2.771	2.474	2.374	2.146	2.139	1.929	1.762	1.675	1.674	1.575	1.295	1.383	1.194	1.117	1.084	1.002	0.856	0.806	0.745	0.693	0.675	0.758	1.053	1.133	0.783	0.560	0.453	0.431	0.457	0.318	0.370	0.414	0.436	0.421	0.371	0.326	0.405	0.516	1.222	5.614	15.99	31.41	183.1	390.2
605.0	14.42	15.95	11.30	9.550	8.751	8.829	9.306	10.32	12.31	13.83	24.93	29.55	13.83	12.03	16.53	137.6	 1155	602.3	5.971	4.154	3.846	3.529	3.068	3.203	3.077	3.198	3.210	2.945	3.125	3.017	2.806	2.855	2.522	2.558	2.126	2.159	1.845	1.898	1.678	1.635	1.538	1.394	1.254	1.205	1.233	1.116	1.093	1.019	0.793	0.734	0.689	0.629	0.614	0.570	0.611	0.736	0.989	0.781	0.590	0.360	0.421	0.355	0.395	0.372	0.364	0.351	0.415	0.397	0.262	0.327	0.328	0.424	1.454	3.735	7.221	44.61	226.2
610.0	12.03	13.57	11.28	9.410	8.165	7.522	8.289	9.410	10.26	12.89	17.41	27.95	17.19	11.21	9.975	36.91	457.5	 1226	217.6	4.273	3.395	3.309	2.855	2.913	2.763	2.729	2.486	2.578	2.678	2.534	2.469	2.386	2.090	2.129	1.912	1.932	1.675	1.659	1.457	1.292	1.271	1.228	1.065	1.045	1.001	1.025	0.951	0.896	0.773	0.667	0.618	0.574	0.509	0.468	0.474	0.498	0.725	0.773	0.606	0.436	0.360	0.334	0.367	0.290	0.281	0.300	0.350	0.344	0.288	0.274	0.235	0.250	0.455	0.981	1.765	10.15	55.19
615.0	14.16	12.05	9.505	8.854	5.475	5.884	7.527	7.905	9.553	10.61	14.06	20.57	22.26	11.06	7.701	12.69	115.3	753.9	998.8	13.95	3.083	2.910	2.468	2.462	2.315	2.385	1.994	2.173	2.213	2.051	2.152	2.156	1.863	1.758	1.657	1.456	1.435	1.376	1.306	1.172	0.944	0.946	0.902	0.880	0.836	0.884	0.780	0.779	0.697	0.601	0.527	0.468	0.450	0.391	0.382	0.387	0.451	0.616	0.654	0.490	0.377	0.305	0.308	0.304	0.290	0.238	0.245	0.320	0.243	0.251	0.187	0.142	0.236	0.351	0.515	2.409	12.40
620.0	14.62	12.09	9.507	7.292	5.794	5.680	6.095	7.175	9.097	9.796	12.18	17.15	24.69	12.72	7.358	7.026	29.66	304.7	 1334	67.33	2.907	2.599	2.175	2.206	1.933	1.895	1.880	1.911	1.925	1.712	1.877	1.832	1.579	1.416	1.298	1.238	1.210	1.210	1.110	1.120	0.915	0.868	0.797	0.766	0.793	0.707	0.821	0.684	0.548	0.540	0.488	0.484	0.460	0.362	0.393	0.356	0.340	0.460	0.590	0.504	0.366	0.286	0.276	0.259	0.211	0.254	0.252	0.197	0.270	0.242	0.211	0.149	0.156	0.171	0.251	0.655	2.871
625.0	12.77	8.332	9.230	6.329	6.303	4.906	6.249	7.049	7.560	10.54	10.73	12.67	21.69	15.59	6.761	5.391	9.779	95.48	994.6	518.4	4.358	2.531	2.231	2.074	1.780	1.784	1.798	1.680	1.824	1.734	1.439	1.600	1.452	1.345	1.233	1.132	1.250	0.945	0.989	0.990	0.854	0.793	0.819	0.685	0.753	0.629	0.666	0.630	0.547	0.466	0.426	0.371	0.356	0.304	0.348	0.292	0.328	0.325	0.420	0.506	0.390	0.257	0.227	0.188	0.220	0.209	0.183	0.209	0.255	0.264	0.214	0.170	0.150	0.108	0.138	0.213	0.736
630.0	11.77	9.472	8.948	6.817	5.926	4.550	5.971	6.445	7.378	9.191	10.14	11.29	15.46	17.89	8.157	5.157	5.564	25.21	362.6	 1071	195.0	2.853	2.103	1.884	1.634	1.610	1.574	1.509	1.423	1.581	1.388	1.370	1.402	1.269	1.094	1.051	0.985	0.893	0.872	0.798	0.787	0.710	0.740	0.609	0.604	0.580	0.610	0.480	0.449	0.427	0.370	0.355	0.308	0.323	0.293	0.254	0.266	0.255	0.292	0.368	0.426	0.318	0.265	0.175	0.189	0.152	0.203	0.197	0.199	0.209	0.242	0.182	0.136	0.105	0.111	0.111	0.245
635.0	11.93	13.02	8.942	7.884	5.476	5.132	4.974	6.167	7.623	9.098	9.289	11.08	11.91	17.28	12.26	5.175	4.452	8.704	88.00	600.6	883.5	11.80	2.040	1.849	1.452	1.339	1.472	1.368	1.272	1.334	1.265	1.201	1.175	0.949	1.106	0.908	0.944	0.808	0.777	0.713	0.610	0.630	0.656	0.514	0.513	0.521	0.519	0.463	0.455	0.387	0.374	0.297	0.246	0.253	0.321	0.269	0.217	0.193	0.209	0.251	0.326	0.287	0.296	0.182	0.170	0.178	0.221	0.135	0.170	0.192	0.158	0.189	0.168	0.113	0.093	0.075	0.110
640.0	12.83	13.13	10.49	7.135	5.241	4.408	5.767	5.581	7.338	8.653	10.47	11.20	10.79	14.38	14.72	5.906	3.809	5.109	22.35	222.1	 1145	59.49	2.396	1.850	1.426	1.406	1.510	1.294	1.350	1.254	1.088	1.109	1.065	0.982	0.971	0.836	0.881	0.755	0.778	0.674	0.648	0.606	0.599	0.568	0.458	0.481	0.487	0.414	0.409	0.338	0.332	0.275	0.290	0.256	0.246	0.262	0.239	0.196	0.155	0.242	0.311	0.241	0.303	0.200	0.173	0.154	0.196	0.119	0.150	0.186	0.139	0.147	0.201	0.121	0.096	0.077	0.067
645.0	15.34	17.83	15.50	8.762	4.288	4.712	5.601	6.250	7.308	9.051	10.41	10.99	11.73	11.17	15.33	7.584	4.301	4.219	7.333	64.57	822.2	468.9	3.817	1.912	1.598	1.368	1.474	1.255	1.189	1.264	1.228	1.041	1.039	1.009	0.848	0.863	0.823	0.762	0.660	0.765	0.599	0.618	0.646	0.572	0.416	0.470	0.416	0.419	0.332	0.356	0.317	0.217	0.272	0.207	0.229	0.260	0.250	0.185	0.211	0.196	0.219	0.250	0.298	0.255	0.141	0.152	0.194	0.121	0.142	0.172	0.092	0.108	0.226	0.163	0.105	0.042	0.044
650.0	16.21	19.05	17.77	11.57	6.484	5.012	6.083	6.482	7.292	9.290	10.18	11.60	11.22	11.06	14.64	9.849	4.559	3.677	3.895	17.74	361.4	990.8	37.83	2.112	1.622	1.603	1.334	1.212	1.123	1.171	1.261	1.068	0.998	0.914	0.835	0.795	0.727	0.737	0.692	0.643	0.541	0.544	0.599	0.561	0.446	0.472	0.358	0.417	0.352	0.316	0.286	0.263	0.231	0.217	0.199	0.203	0.234	0.160	0.196	0.147	0.130	0.226	0.269	0.227	0.180	0.142	0.177	0.130	0.170	0.150	0.115	0.147	0.154	0.134	0.117	0.095	0.056
