Sample:	'1
File name:	Default_20230302_142917.FD3
Run date:	'14:22:56, 03/02/2023
Operator:	user
Comment:	'

Instrument
Model:	F-2700 FL Spectrophotometer
Serial number:	2190-003
ROM Version:	4J14000 07

Instrument parameters
Measurement type:	3-D scan
Data mode:	Fluorescence
EX  Start WL:	220.0 nm
EX  End WL:	600.0 nm
EX Sampling interval:	5.0 nm
EM  Start WL:	230.0 nm
EM  End WL:	650.0 nm
EM Sampling interval:	5.0 nm
Scan speed:	12000 nm/min
EX Slit:	5.0 nm
EM Slit:	5.0 nm
PMT Voltage:	700 V
Response:	Auto 
Corrected spectra:	Off
Contour interval:	50.000

Peak integration
Integration method:	Rectangular
Sensitivity:	1
Threshold:	1.000

Peaks
No.	ApexEX/EM(nm)	Height(Data)
1	225.0/260.0	118.7
2	225.0/300.0	263.0
3	225.0/325.0	290.0
4	225.0/600.0	137.9
5	230.0/275.0	123.8
6	230.0/305.0	298.6
7	230.0/540.0	120.9
8	230.0/555.0	117.8
9	230.0/590.0	96.14
10	230.0/610.0	72.54
11	230.0/640.0	91.27
12	235.0/400.0	 1888
13	235.0/520.0	199.0
14	235.0/545.0	116.4
15	235.0/565.0	103.4
16	235.0/580.0	98.65
17	235.0/615.0	65.27
18	240.0/390.0	 1745
19	240.0/555.0	85.63
20	240.0/595.0	75.01
21	240.0/635.0	71.33
22	245.0/530.0	157.6
23	245.0/620.0	59.80
24	250.0/545.0	118.2
25	255.0/555.0	120.9
26	260.0/565.0	155.3
27	260.0/635.0	68.64
28	265.0/580.0	212.6
29	270.0/590.0	228.1
30	270.0/625.0	103.6
31	275.0/235.0	15.72
32	275.0/300.0	 2346
33	280.0/250.0	19.45
34	285.0/245.0	19.59
35	290.0/640.0	46.23
36	295.0/405.0	 4606
37	300.0/255.0	12.79
38	300.0/335.0	381.0
39	305.0/275.0	15.54
40	305.0/340.0	395.4
41	310.0/345.0	350.6
42	315.0/250.0	5.474
43	320.0/255.0	5.257
44	330.0/240.0	6.979
45	330.0/595.0	10.32
46	335.0/275.0	5.739
47	335.0/620.0	6.622
48	345.0/240.0	4.338
49	350.0/250.0	3.424
50	350.0/315.0	9.357
51	355.0/255.0	3.244
52	355.0/285.0	5.569
53	355.0/405.0	253.5
54	355.0/620.0	6.198
55	360.0/310.0	5.715
56	365.0/265.0	3.948
57	365.0/415.0	216.8
58	365.0/595.0	7.624
59	365.0/620.0	4.915
60	370.0/260.0	4.420
61	370.0/295.0	3.882
62	370.0/425.0	212.5
63	370.0/605.0	6.293
64	375.0/640.0	4.639
65	385.0/260.0	3.258
66	390.0/285.0	3.113
67	400.0/245.0	2.891
68	415.0/250.0	2.754
69	415.0/300.0	2.775
70	415.0/485.0	58.98
71	415.0/625.0	3.243
72	430.0/355.0	2.941
73	440.0/315.0	3.076
74	445.0/525.0	19.08
75	460.0/300.0	2.441
76	460.0/545.0	11.42
77	475.0/400.0	5.671
78	475.0/565.0	4.949
79	480.0/405.0	5.351
80	485.0/580.0	3.464
81	485.0/640.0	2.016
82	495.0/360.0	4.344
83	505.0/275.0	2.614
84	505.0/345.0	3.902
85	510.0/355.0	4.044
86	515.0/360.0	3.929
87	540.0/295.0	6.880
88	550.0/480.0	3.366
89	555.0/525.0	3.260
90	560.0/340.0	3.306
91	560.0/615.0	2.163
92	575.0/320.0	3.263
93	580.0/325.0	3.012

Data points
	220.0	225.0	230.0	235.0	240.0	245.0	250.0	255.0	260.0	265.0	270.0	275.0	280.0	285.0	290.0	295.0	300.0	305.0	310.0	315.0	320.0	325.0	330.0	335.0	340.0	345.0	350.0	355.0	360.0	365.0	370.0	375.0	380.0	385.0	390.0	395.0	400.0	405.0	410.0	415.0	420.0	425.0	430.0	435.0	440.0	445.0	450.0	455.0	460.0	465.0	470.0	475.0	480.0	485.0	490.0	495.0	500.0	505.0	510.0	515.0	520.0	525.0	530.0	535.0	540.0	545.0	550.0	555.0	560.0	565.0	570.0	575.0	580.0	585.0	590.0	595.0	600.0
230.0	79.32	192.4	 1511	 1450	150.9	41.88	31.41	20.45	17.51	25.92	11.65	14.68	13.36	9.324	9.049	7.905	9.028	5.962	4.965	4.779	4.485	2.564	4.159	3.387	2.988	2.294	2.794	2.581	3.513	2.061	2.561	2.053	1.467	1.832	2.040	2.624	1.616	1.913	2.108	2.040	1.546	1.761	1.614	1.978	1.398	1.723	1.381	2.182	4.311	4.548	2.909	1.146	0.989	1.371	0.656	1.158	0.952	1.050	0.955	1.384	1.111	1.058	0.911	0.936	1.027	0.740	0.652	0.703	1.108	1.001	0.774	0.861	0.648	1.020	0.595	1.131	0.621
235.0	70.67	106.6	644.3	 2719	 2193	264.0	36.65	33.76	14.11	13.06	15.38	15.72	2.315	10.31	7.899	7.365	7.864	6.130	7.502	4.955	2.570	5.991	5.795	3.008	3.286	3.312	2.871	1.665	2.702	2.688	3.389	2.012	1.794	1.361	2.562	1.709	1.627	1.788	2.253	1.553	2.166	1.662	2.099	1.729	1.037	1.131	1.724	2.162	2.457	3.621	7.088	8.428	4.587	1.651	0.945	0.845	0.505	1.466	0.871	0.952	1.614	0.730	1.281	0.803	0.790	1.451	0.969	1.585	1.330	0.192	0.254	1.425	0.763	0.596	0.599	-0.147	0.886
240.0	71.53	101.9	195.4	 1559	 4476	 2046	154.2	22.95	21.19	11.48	17.34	9.507	12.80	16.66	15.31	9.783	8.499	8.698	8.248	5.317	3.849	3.730	6.979	1.233	3.412	4.338	3.196	2.877	3.128	1.117	2.329	2.557	2.478	1.044	1.988	1.895	1.146	1.908	2.027	1.612	2.320	1.791	2.176	1.880	1.222	1.752	1.225	1.958	1.388	1.419	3.131	9.670	12.29	9.298	4.150	1.442	1.003	1.117	0.931	1.261	1.275	0.901	1.156	0.373	0.395	1.215	0.855	0.832	1.824	0.078	1.025	0.459	1.104	0.315	0.747	0.592	0.205
245.0	15.13	31.00	89.09	470.5	 2989	 5941	 1621	82.50	28.16	19.45	21.44	9.397	12.34	19.59	14.59	11.32	12.62	5.484	3.769	4.913	4.087	5.175	4.347	2.382	3.003	4.329	3.061	2.273	1.554	0.902	3.622	2.098	1.907	1.354	1.626	2.266	2.891	1.516	1.298	1.546	1.533	1.200	0.755	0.657	2.040	2.458	2.204	2.089	1.305	1.009	1.592	3.649	8.232	15.76	14.75	8.553	2.422	0.912	1.615	1.405	0.473	1.334	1.380	0.682	0.455	0.372	1.010	0.252	1.379	0.768	1.076	0.759	0.828	0.413	0.173	1.779	0.433
250.0	71.80	59.90	121.1	185.5	809.8	 3272	 6011	 3905	483.9	31.70	21.65	13.36	19.45	15.06	13.38	6.327	9.763	5.708	4.408	5.474	3.491	2.924	4.280	2.247	3.129	3.109	3.424	3.184	2.019	2.317	2.758	1.563	2.660	2.485	2.024	2.269	2.253	2.023	2.373	2.754	1.563	1.593	1.743	1.575	1.744	1.744	1.003	1.357	1.197	1.064	1.136	2.234	3.094	5.625	8.830	14.49	17.12	14.83	8.274	1.896	0.886	1.304	1.017	0.480	0.992	0.734	1.109	0.536	0.842	0.975	0.960	0.518	0.800	1.084	0.588	0.757	0.820
255.0	97.22	15.01	134.9	218.9	299.2	781.8	 2359	 7849	 6511	604.7	24.44	17.86	12.97	15.68	14.27	7.761	12.79	8.417	8.998	3.824	5.257	4.226	3.288	3.855	3.280	3.970	2.209	3.244	1.894	2.141	2.295	2.476	1.965	2.393	2.675	1.852	1.267	1.401	1.687	1.866	1.767	1.497	1.603	0.785	1.392	1.619	1.446	1.407	1.658	1.123	1.002	2.085	1.745	2.871	2.944	4.137	6.736	15.18	25.78	23.93	10.17	2.266	0.931	0.522	0.877	1.426	1.480	0.924	1.125	1.285	0.935	1.016	0.923	0.717	0.863	0.943	1.296
260.0	102.6	118.7	39.74	141.6	236.1	244.8	586.0	 3748	9999.9	 5935	325.0	27.58	22.58	10.37	12.95	10.21	7.852	7.663	7.572	7.756	2.203	3.503	3.201	3.359	4.621	3.807	2.958	2.486	2.117	1.615	4.420	1.570	1.371	3.258	2.569	1.551	1.597	1.348	0.613	1.633	1.682	0.800	2.254	1.888	2.360	1.982	1.298	1.678	1.065	1.097	0.841	1.718	1.685	1.652	1.559	1.617	1.736	4.891	11.78	25.19	30.42	19.36	6.187	0.844	0.597	1.283	1.079	0.810	0.918	0.645	1.025	0.676	0.886	0.843	1.632	0.456	0.910
265.0	127.0	82.06	71.65	99.50	179.6	230.6	193.6	972.1	 5505	9999.9	 1387	117.9	22.73	15.85	17.80	10.70	11.56	11.00	7.948	7.410	3.855	4.850	4.717	3.870	3.861	4.099	2.667	1.905	3.568	3.948	3.341	2.706	0.688	2.723	1.407	2.502	1.384	1.794	1.505	1.646	1.730	1.419	0.958	2.607	2.040	1.338	1.877	1.743	1.365	0.791	1.286	1.324	1.658	1.415	1.690	1.659	2.046	1.519	3.646	8.613	19.25	31.18	32.59	15.54	2.948	1.153	0.791	0.466	0.769	0.702	0.751	0.481	0.935	1.415	1.066	1.082	0.704
270.0	107.7	77.65	89.45	79.12	89.64	214.8	254.3	300.0	 1406	 5125	 9708	 5158	418.3	30.44	21.55	14.18	12.11	11.79	7.766	6.279	3.579	3.586	4.112	3.967	3.887	4.233	3.895	2.516	1.964	3.189	2.692	2.750	2.416	1.164	1.568	2.217	1.127	1.799	1.479	0.983	2.091	1.503	1.051	2.100	1.931	1.318	1.816	1.761	1.422	1.086	1.258	0.996	1.319	1.502	1.747	1.989	1.549	1.270	1.795	3.178	5.490	10.49	18.43	27.36	30.56	23.62	10.49	2.273	0.723	0.874	1.193	0.778	1.259	0.907	1.170	0.586	0.547
275.0	122.1	98.79	123.8	85.14	55.48	86.56	275.6	384.9	471.7	 1333	 3679	9999.9	 7539	492.6	24.18	14.60	10.63	15.54	11.00	7.763	3.725	4.084	3.231	5.739	4.507	3.812	4.003	4.908	2.699	2.594	3.006	2.913	3.500	2.709	2.093	2.035	2.320	1.598	2.148	1.385	1.552	1.502	1.219	2.128	2.028	1.394	2.148	2.115	1.869	1.099	1.045	1.004	1.737	0.809	2.190	1.895	1.672	2.614	1.511	2.280	2.520	3.591	5.213	7.762	12.78	28.25	43.92	35.69	11.26	1.692	0.873	0.846	0.635	0.772	1.603	0.377	1.381
280.0	149.4	81.21	101.0	87.97	98.35	91.07	189.7	507.5	556.1	720.8	 1369	 5232	9999.9	 5849	293.9	20.03	18.08	13.24	8.578	8.566	2.928	3.895	4.728	4.074	4.013	3.054	2.892	4.654	4.201	2.015	2.072	3.336	3.329	2.802	2.948	2.447	2.016	2.143	1.554	1.595	1.630	1.569	1.496	1.839	2.135	1.387	2.029	2.235	1.809	1.076	1.104	1.004	1.807	1.246	1.614	0.910	1.229	1.893	2.132	2.607	2.232	2.517	3.254	3.584	4.903	9.757	22.47	43.23	49.12	27.61	6.709	0.970	0.446	1.457	0.564	0.446	0.658
285.0	183.1	171.5	115.8	113.6	78.47	131.3	208.5	496.7	916.2	 1004	 1199	 2101	 7067	9999.9	 4204	135.1	23.46	16.14	11.05	9.464	5.215	7.800	5.716	3.002	3.684	3.595	4.448	5.569	3.737	3.019	2.448	2.707	2.879	1.396	3.113	2.458	2.493	1.832	1.762	1.484	1.408	1.525	1.086	2.460	1.408	1.709	1.287	1.754	2.084	1.244	1.829	1.944	1.638	1.773	1.817	0.734	1.772	1.582	2.297	2.601	2.194	2.890	3.120	2.971	3.915	4.880	7.562	16.00	35.26	52.00	43.29	16.52	2.557	1.085	0.962	1.060	1.484
290.0	141.9	192.9	148.8	125.6	105.6	161.3	278.4	566.8	 1073	 1591	 1752	 1806	 2509	 6091	9999.9	 8441	236.3	22.29	14.28	10.91	7.199	6.619	6.742	5.303	4.417	4.479	4.334	4.261	3.322	3.810	3.645	3.035	2.854	2.300	3.057	1.703	2.232	1.838	2.174	1.567	1.942	1.579	0.940	1.795	1.542	1.394	1.389	2.091	1.916	1.569	1.529	1.561	1.352	1.742	0.961	1.382	2.495	2.166	2.414	2.153	2.944	3.711	4.342	4.292	5.185	4.440	4.945	6.439	10.25	17.75	30.53	39.46	41.89	28.98	12.43	2.265	0.997
295.0	215.1	239.9	192.9	174.4	163.0	206.7	343.2	666.5	 1100	 1732	 2292	 2083	 1483	 1642	 3532	9999.9	9999.9	303.4	20.57	14.12	12.07	9.026	8.003	7.878	5.048	4.503	3.888	3.785	4.035	2.164	3.882	3.551	2.393	1.632	2.724	1.993	2.507	1.602	2.551	1.145	2.385	1.635	1.310	2.163	1.612	1.457	1.429	2.016	2.415	1.523	1.283	1.283	1.911	2.000	1.234	1.469	2.475	2.508	2.723	3.244	3.447	4.844	5.698	5.721	6.880	5.594	4.749	4.019	4.296	5.430	7.985	10.62	18.74	44.08	61.29	45.44	13.89
300.0	204.3	263.0	207.2	180.9	145.8	228.4	368.2	680.0	 1102	 1696	 2315	 2346	 1336	678.6	932.3	 4786	9999.9	 3288	198.2	20.28	12.29	7.837	9.733	7.115	5.249	5.473	4.237	3.392	4.481	4.434	2.700	1.973	2.970	2.278	1.592	1.340	2.062	2.099	2.317	2.775	1.892	1.618	1.129	2.117	2.181	2.078	1.830	1.917	2.441	1.684	1.699	0.861	1.749	1.446	1.314	2.362	2.708	2.884	3.210	3.285	3.511	4.476	4.145	5.551	6.549	6.317	5.116	4.129	2.268	2.715	2.700	3.719	5.779	13.87	34.20	66.35	65.53
305.0	215.1	244.3	298.6	202.3	152.4	231.3	358.1	671.7	 1082	 1577	 2088	 2308	 1462	511.4	361.0	 1227	 6459	9999.9	 2666	109.6	16.39	10.37	10.52	8.211	6.789	5.651	4.579	3.429	5.074	4.431	3.460	3.358	3.681	2.245	2.857	1.812	1.793	2.116	2.357	1.402	1.887	1.376	0.632	1.795	1.246	1.679	0.987	1.647	1.113	1.918	1.625	2.098	1.251	1.556	2.101	2.391	2.742	2.869	2.786	2.936	3.399	4.775	4.674	5.352	4.985	5.568	5.704	4.649	2.803	2.516	2.196	1.557	2.358	4.174	9.668	25.40	53.07
310.0	146.0	210.5	257.2	187.3	188.7	233.2	340.0	607.1	955.5	 1375	 1729	 1821	 1427	662.4	282.4	378.8	 1612	 5888	9999.9	 7454	156.8	19.47	13.17	9.701	7.509	5.896	6.931	4.239	5.715	4.868	3.578	2.821	3.296	2.878	3.435	2.515	2.403	2.232	2.179	1.878	1.797	1.905	1.856	1.997	2.071	2.022	1.156	1.577	1.606	1.773	1.669	2.029	1.948	1.876	1.767	2.376	1.942	2.758	2.346	3.402	3.490	3.655	4.134	4.633	4.841	4.952	4.576	3.882	2.901	2.831	2.511	2.152	1.549	1.760	2.802	6.840	13.49
315.0	171.7	252.3	231.3	201.6	180.3	221.0	305.7	539.0	807.5	 1103	 1374	 1405	 1058	764.1	448.9	223.5	445.1	 1377	 3400	9999.9	9999.9	212.3	17.19	14.00	8.784	7.210	9.357	5.165	4.530	5.162	5.350	3.012	2.931	3.063	3.504	3.033	2.095	1.785	2.235	2.189	2.296	1.673	2.433	1.697	3.076	2.247	1.243	1.716	1.806	1.526	1.693	2.222	2.009	1.834	1.410	1.967	1.888	2.596	2.728	2.443	3.041	3.970	2.774	3.761	4.180	4.108	3.785	3.661	2.662	2.859	3.065	2.652	1.311	1.748	1.160	3.044	4.274
320.0	162.0	268.5	164.5	245.8	206.7	247.8	296.0	449.1	692.5	938.3	 1164	 1162	874.5	601.2	618.7	286.5	203.9	377.4	818.8	 4490	9999.9	 7863	149.6	16.72	12.96	9.973	6.532	4.930	3.987	6.348	4.777	3.258	2.354	2.905	3.334	2.750	2.549	2.325	2.082	2.169	1.811	2.130	1.823	2.723	2.478	1.356	1.348	1.604	1.603	1.128	1.760	1.674	1.540	2.144	1.508	1.754	1.759	2.220	2.233	2.409	2.773	3.542	2.840	2.826	3.639	3.195	2.704	3.351	2.245	2.066	2.611	3.263	1.531	2.200	1.370	1.421	1.633
325.0	137.7	290.0	233.9	261.7	261.9	301.6	302.0	473.4	616.2	815.4	 1001	 1014	773.1	488.2	545.9	448.4	186.9	164.1	240.5	 1095	 6116	9999.9	 1893	93.98	16.84	10.14	10.19	6.827	5.467	5.515	5.662	3.680	3.867	3.359	3.020	2.570	3.222	2.917	1.140	2.962	1.571	2.492	2.276	1.672	1.824	2.265	1.843	1.586	1.019	1.502	1.468	1.907	1.357	2.561	2.451	1.822	2.066	1.624	2.489	2.470	2.341	3.385	3.341	3.535	3.754	3.344	2.862	3.061	2.582	1.738	1.923	1.996	3.012	2.394	2.270	2.320	1.541
330.0	185.5	235.7	276.7	359.4	361.8	410.8	407.6	500.9	595.2	725.7	833.2	831.0	668.7	456.6	405.2	442.7	352.5	162.7	125.1	303.1	 1492	 5550	9999.9	 6928	122.5	17.39	11.31	8.449	7.444	6.577	6.810	4.621	4.241	3.650	2.527	3.261	2.572	2.720	2.158	2.578	2.142	2.481	2.476	2.236	1.177	1.871	2.014	2.233	1.597	1.479	1.695	1.653	1.257	2.536	2.526	1.727	2.774	2.552	2.374	2.561	2.440	2.525	2.735	3.429	3.018	2.813	3.014	2.861	2.497	2.268	1.885	1.345	2.696	1.819	1.896	2.351	1.333
335.0	164.2	191.3	340.3	451.2	558.9	574.5	567.7	568.3	603.2	698.6	729.4	704.9	612.4	437.8	369.4	320.0	381.0	319.8	143.9	140.4	389.5	 1284	 3356	9999.9	9999.9	167.6	16.63	12.42	10.50	5.730	5.845	5.605	4.909	4.507	2.857	3.217	3.053	2.680	2.299	2.720	1.565	2.614	1.600	2.725	1.924	1.989	1.997	2.364	1.626	1.904	2.034	1.901	2.183	1.710	2.381	2.685	2.762	2.600	2.646	2.445	2.898	2.411	3.241	3.226	2.533	2.528	2.471	2.547	3.267	3.035	2.220	0.916	1.581	1.533	2.179	2.576	1.960
340.0	63.94	255.6	380.6	539.4	678.0	714.8	738.6	698.8	634.6	677.6	685.4	647.1	569.5	436.4	369.4	311.5	293.5	395.4	238.7	121.4	153.1	340.9	799.3	 4528	9999.9	 7916	122.1	15.46	11.39	9.632	7.650	6.458	4.778	4.654	4.402	2.852	3.770	2.946	3.006	2.592	2.234	2.359	2.284	1.774	1.766	2.248	2.201	2.154	1.835	2.279	2.286	2.364	2.406	2.042	2.998	2.460	3.288	3.190	2.915	3.551	3.080	2.525	2.865	3.818	2.868	2.145	1.718	1.718	3.306	2.717	2.518	1.242	1.714	1.321	2.090	1.638	1.657
345.0	148.7	219.5	456.2	643.8	744.4	888.9	829.2	787.7	717.9	694.9	652.2	593.4	534.0	461.4	392.7	314.5	263.4	328.2	350.6	179.8	110.1	138.2	224.4	 1098	 6367	9999.9	 1513	81.56	14.94	11.57	8.637	8.026	5.771	5.039	5.736	3.324	1.952	3.053	3.069	2.634	2.691	2.295	2.606	2.240	1.937	2.201	2.784	1.868	2.376	1.776	2.367	3.141	2.174	2.593	2.456	2.687	3.165	3.902	3.093	3.199	2.620	3.107	2.066	2.937	2.941	2.402	2.824	1.772	1.859	2.622	2.015	1.689	1.856	1.847	1.983	1.475	1.853
350.0	165.0	248.1	496.4	731.5	914.2	 1043	985.6	871.8	747.7	708.0	616.7	568.8	506.9	474.3	423.2	359.6	304.3	291.1	332.5	314.6	174.3	111.1	116.8	297.0	 1561	 5840	9999.9	 6040	517.8	17.46	11.14	8.784	7.539	5.254	4.748	2.981	3.175	3.138	2.791	2.524	2.334	1.976	1.855	2.106	2.144	2.246	2.074	2.299	2.457	1.996	2.404	3.049	2.860	3.893	3.310	2.997	3.758	3.619	3.539	3.416	2.523	2.934	2.743	2.817	2.450	2.413	2.804	2.864	2.397	2.628	2.068	2.636	2.383	1.782	1.773	2.219	2.609
355.0	119.7	286.1	530.7	860.5	 1017	 1155	 1117	965.9	828.6	726.6	618.8	540.3	538.1	533.1	524.9	466.7	398.7	358.6	321.1	336.4	311.0	162.2	115.0	136.5	403.1	 1342	 3593	9999.9	 9356	143.8	15.71	12.51	7.548	7.297	6.560	3.923	2.834	3.724	2.495	3.018	2.805	1.791	2.941	2.232	2.402	2.550	2.126	1.854	2.864	2.245	2.254	2.893	3.492	3.815	3.503	3.581	3.287	2.943	4.044	3.843	2.323	2.963	2.554	2.877	2.073	2.643	3.015	2.541	2.500	2.503	3.535	2.782	2.775	1.661	2.468	2.695	2.244
360.0	187.3	272.1	565.5	 1004	 1112	 1266	 1138	993.5	831.6	727.1	622.7	599.7	604.9	641.9	655.0	598.6	518.8	481.9	391.8	335.5	360.9	260.3	136.7	111.5	154.5	347.1	855.9	 4926	9999.9	 7182	103.1	13.47	9.421	6.634	5.190	4.200	3.777	3.763	3.371	2.685	3.390	1.638	2.731	2.080	2.092	2.602	2.209	2.798	2.739	2.966	2.473	3.402	4.101	3.812	4.070	4.344	2.874	3.453	2.519	3.929	3.392	3.024	2.598	3.309	2.362	2.640	2.646	2.900	2.783	1.748	3.463	2.249	2.888	2.833	2.424	2.863	3.250
365.0	198.3	336.9	626.6	944.3	 1256	 1277	 1202	 1039	874.1	758.9	642.5	653.5	719.3	826.1	876.8	842.7	762.1	671.0	530.6	392.9	349.7	345.4	202.5	130.5	110.7	138.6	239.5	 1205	 6848	9999.9	 1325	63.45	13.38	8.944	5.285	4.537	5.539	3.870	3.694	2.897	3.284	1.821	2.446	2.634	2.400	1.959	1.955	2.919	2.349	2.768	2.592	3.194	3.890	3.958	3.974	4.255	3.319	3.841	2.955	3.191	3.351	2.827	3.124	3.258	2.705	2.867	2.492	2.292	3.183	2.698	3.285	3.172	4.112	3.261	2.448	4.165	3.244
370.0	240.1	428.4	736.7	 1114	 1350	 1268	 1187	 1018	874.0	799.6	758.1	804.6	971.8	 1197	 1314	 1352	 1240	 1061	807.6	572.8	405.6	342.1	313.8	194.4	130.8	110.8	113.1	315.7	 1689	 6331	9999.9	 5302	83.70	12.75	8.634	6.560	5.512	4.497	3.830	3.799	3.312	1.974	2.451	2.538	2.528	2.597	2.330	2.557	2.773	2.340	2.995	3.681	3.643	4.393	3.954	3.700	3.597	3.604	3.576	2.970	2.909	3.216	2.824	3.195	2.802	3.437	2.947	3.153	3.976	3.964	4.329	4.055	4.707	4.580	4.792	5.465	4.783
375.0	264.3	396.1	824.4	 1239	 1524	 1359	 1158	978.8	846.5	852.2	922.0	 1043	 1375	 1727	 1947	 2027	 1881	 1608	 1192	795.6	524.7	360.1	329.3	313.2	191.4	126.5	105.4	129.4	422.7	 1449	 3951	9999.9	 7787	109.5	11.90	8.664	6.222	5.756	5.235	4.021	2.927	2.988	2.329	3.026	3.581	1.694	2.184	3.406	2.958	2.477	3.260	4.836	3.830	4.308	3.796	3.210	3.598	3.841	4.074	2.766	3.087	3.398	2.830	3.747	3.817	4.656	3.553	3.934	4.789	5.074	5.071	5.415	5.833	5.990	7.024	7.286	6.733
380.0	284.2	486.1	 1001	 1479	 1604	 1402	 1174	956.2	850.1	900.6	 1016	 1255	 1729	 2196	 2495	 2600	 2410	 2069	 1530	 1003	633.4	409.9	323.0	335.8	270.7	157.8	116.6	100.9	148.8	367.5	941.7	 5591	9999.9	 5838	73.61	9.853	8.552	6.632	5.452	3.992	3.351	3.009	1.651	3.239	3.246	2.568	2.796	3.211	2.970	3.105	3.983	5.107	4.147	4.749	3.519	3.734	4.339	3.566	3.659	2.878	3.161	2.749	2.933	3.673	3.333	4.683	3.893	3.893	5.736	6.068	6.052	7.476	7.198	7.931	7.801	8.872	8.537
385.0	268.7	550.1	 1025	 1569	 1696	 1367	 1164	942.9	855.7	960.7	 1134	 1439	 2007	 2614	 3028	 3155	 2975	 2471	 1835	 1196	723.0	464.7	338.2	305.0	323.3	211.5	133.7	106.3	96.98	131.6	250.2	 1396	 7628	9999.9	 1021	38.51	9.735	6.870	5.376	4.611	3.778	3.437	2.903	2.533	3.411	3.032	2.586	3.641	3.681	3.117	4.512	5.184	4.124	4.710	3.653	3.644	4.208	3.552	3.735	3.035	2.966	3.856	2.922	3.154	3.532	4.223	4.246	5.250	6.690	7.004	7.390	8.586	8.605	9.768	8.567	9.817	10.04
390.0	271.6	557.8	 1125	 1676	 1745	 1346	 1059	917.8	878.7	995.7	 1234	 1669	 2375	 3084	 3634	 3778	 3569	 2993	 2177	 1396	840.2	521.9	372.5	299.9	293.9	280.1	193.5	127.8	101.3	91.01	105.2	352.2	 1919	 6652	9999.9	 3948	61.71	10.30	7.691	7.154	4.876	3.886	3.600	3.012	3.781	3.508	3.134	3.646	3.511	3.216	4.231	5.266	4.257	4.321	2.772	3.819	3.550	3.351	3.184	3.296	3.566	3.082	3.643	2.964	4.438	4.547	5.093	5.926	7.182	7.708	8.348	9.529	10.66	11.22	11.06	11.67	11.84
395.0	323.4	671.8	 1189	 1871	 1738	 1359	 1008	873.0	839.6	 1009	 1317	 1858	 2616	 3477	 4093	 4265	 4019	 3365	 2447	 1531	924.2	573.1	403.2	319.4	274.5	261.9	263.3	173.3	120.2	95.36	86.11	127.5	463.0	 1516	 4269	9999.9	 5968	80.45	10.10	8.269	6.291	4.317	4.353	4.206	3.521	2.593	3.877	4.147	4.256	3.858	4.184	5.277	5.001	4.760	3.404	3.445	3.864	3.208	2.866	3.334	2.871	2.155	3.279	3.513	5.421	4.585	6.006	6.390	7.368	8.228	9.414	10.96	12.22	11.99	12.83	13.05	13.19
400.0	291.0	623.7	 1261	 1888	 1739	 1275	953.9	813.0	829.2	982.1	 1338	 1933	 2774	 3627	 4301	 4496	 4229	 3508	 2557	 1613	964.7	602.0	412.0	326.1	269.9	243.0	261.8	227.7	143.5	107.8	87.43	83.48	144.7	369.3	 1016	 5944	9999.9	 4323	55.21	9.169	6.524	4.750	5.111	3.871	3.663	2.730	3.685	3.742	3.731	3.917	4.652	5.671	5.008	5.109	3.537	3.960	3.297	2.795	3.020	3.202	2.621	2.891	3.586	3.603	3.664	5.532	5.534	6.413	8.973	9.303	10.39	10.90	12.36	13.55	12.75	13.78	14.88
405.0	338.6	628.8	 1317	 1832	 1721	 1201	933.0	769.8	800.2	 1001	 1374	 1954	 2815	 3676	 4325	 4606	 4282	 3547	 2579	 1636	977.0	594.2	410.7	334.5	277.0	240.3	232.8	253.5	182.7	121.6	99.88	79.94	81.76	117.3	254.5	 1512	 7480	9999.9	843.6	32.71	8.057	6.200	6.255	3.426	4.185	3.647	3.785	3.801	4.264	4.321	4.326	5.275	5.351	4.937	3.220	4.050	3.431	3.648	2.511	2.866	2.652	3.017	4.014	3.631	3.947	4.668	5.994	6.582	8.611	8.686	10.35	11.44	12.52	13.13	13.51	14.15	13.64
410.0	298.6	594.5	 1196	 1763	 1715	 1128	818.1	732.8	764.3	952.7	 1325	 1923	 2737	 3551	 4227	 4450	 4154	 3472	 2496	 1595	949.5	592.1	407.4	333.8	280.9	246.6	220.6	229.2	227.9	166.3	116.9	91.24	76.17	66.44	87.98	360.7	 1908	 6434	 8125	 3487	52.62	8.436	6.522	5.100	3.951	3.469	4.244	3.603	4.191	4.450	4.163	5.059	4.469	4.395	3.237	3.266	3.592	3.424	2.774	3.336	3.425	2.220	4.172	3.724	4.323	4.438	4.824	6.976	7.951	8.881	10.83	11.82	11.87	12.15	13.02	13.86	13.49
415.0	327.9	569.1	 1173	 1652	 1619	 1044	703.4	686.7	726.9	869.9	 1277	 1844	 2574	 3343	 3977	 4147	 3901	 3244	 2355	 1512	900.0	559.7	404.0	325.6	279.4	246.8	220.3	204.9	211.0	216.8	154.6	105.2	81.34	63.95	56.71	109.0	444.9	 1462	 3759	9999.9	 5155	73.52	7.919	5.688	4.285	4.495	3.539	4.385	4.808	3.984	4.790	4.801	4.146	4.102	3.498	2.982	3.007	3.095	3.537	2.943	3.544	3.106	3.643	2.552	3.430	4.476	5.351	6.175	6.474	8.701	9.841	11.69	11.19	12.08	12.13	12.14	12.40
420.0	255.9	529.1	 1053	 1587	 1412	954.9	691.5	635.5	669.1	819.7	 1157	 1702	 2419	 3104	 3684	 3849	 3635	 3018	 2208	 1401	848.2	530.1	390.5	318.6	280.6	245.4	223.2	202.0	194.2	213.6	191.5	121.1	89.28	70.24	53.51	55.29	124.6	344.9	903.8	 5364	9999.9	 3734	45.58	6.043	5.868	5.686	4.373	4.494	4.480	4.313	4.199	4.946	4.735	3.244	3.253	2.772	2.668	3.382	2.695	2.820	2.935	3.246	3.102	2.940	3.443	4.134	4.529	5.786	7.119	7.840	8.896	11.33	9.859	11.22	11.61	11.93	11.36
425.0	230.3	554.2	956.4	 1416	 1383	881.8	632.0	592.0	622.5	805.1	 1105	 1605	 2240	 2887	 3370	 3548	 3312	 2809	 2025	 1307	784.0	500.8	366.5	310.0	268.1	242.0	225.0	203.2	188.7	192.2	212.5	156.9	99.33	77.00	56.61	48.37	55.09	97.53	218.2	 1357	 6700	9999.9	768.8	21.73	6.455	6.057	4.482	3.995	4.890	3.874	3.642	4.676	4.028	4.423	2.932	3.159	3.047	2.712	3.064	3.222	3.278	2.781	2.780	3.687	3.794	4.003	4.633	5.828	6.528	7.301	7.957	9.375	9.330	10.18	10.54	11.57	10.63
430.0	222.4	456.6	899.5	 1318	 1214	787.3	606.0	533.7	598.0	728.6	 1013	 1460	 1988	 2555	 2978	 3127	 2913	 2483	 1792	 1162	712.7	453.9	341.8	296.6	261.5	241.0	225.9	206.6	193.3	181.5	189.2	183.9	131.2	89.51	66.84	52.60	45.89	46.94	68.56	318.4	 1694	 5679	 7268	 3005	46.52	7.194	5.504	4.843	4.247	3.875	3.936	4.630	4.108	4.070	3.274	3.419	2.331	2.772	2.710	1.878	2.665	2.762	2.944	3.792	3.297	4.405	4.205	5.147	5.464	6.219	7.190	8.636	8.656	9.530	9.183	10.63	9.357
435.0	300.7	422.6	802.2	 1136	 1128	713.4	561.5	521.9	569.7	668.4	933.1	 1292	 1756	 2207	 2570	 2710	 2562	 2148	 1555	 1009	639.0	417.1	318.5	281.4	255.6	233.4	224.5	210.5	195.3	187.7	178.3	172.3	168.4	116.9	78.90	59.56	48.55	40.73	38.58	88.48	391.0	 1284	 3414	 9833	 4539	62.41	6.866	5.684	4.111	3.871	4.130	4.617	4.428	3.653	3.313	3.362	2.176	2.549	2.790	2.485	3.090	2.469	2.370	3.492	3.323	4.197	3.668	5.212	5.785	5.888	6.907	7.904	7.888	8.474	7.694	9.586	8.356
440.0	304.0	389.9	701.9	 1022	 1077	684.2	538.1	455.0	535.7	645.6	869.1	 1162	 1549	 2018	 2273	 2426	 2266	 1886	 1389	912.0	573.9	388.9	298.5	261.5	247.2	232.8	215.7	212.4	198.5	188.7	172.4	158.7	168.3	140.9	92.23	66.12	52.93	42.70	34.28	39.84	103.3	300.3	818.9	 5390	9999.9	 3339	39.24	7.188	5.550	4.164	4.658	4.504	4.487	4.483	2.929	3.210	3.587	2.485	2.299	2.452	2.395	2.304	2.034	2.948	3.410	4.392	3.948	4.782	4.617	5.440	6.233	6.396	7.061	7.487	6.494	7.854	8.040
445.0	318.7	435.0	674.0	926.0	956.5	635.7	500.4	459.9	518.0	619.4	796.9	 1041	 1405	 1798	 2017	 2139	 2018	 1674	 1242	807.0	526.2	361.3	283.1	246.9	236.6	223.4	217.4	208.2	200.9	188.4	176.0	159.3	152.5	151.2	109.0	72.49	57.50	45.90	34.85	31.85	41.78	81.31	196.9	 1389	 6818	9999.9	621.4	22.23	6.178	4.757	4.207	4.170	3.836	3.713	3.322	3.534	2.694	2.673	2.119	2.247	1.877	2.364	2.643	2.399	2.947	3.393	3.085	4.354	4.727	4.894	5.311	5.637	5.931	6.604	7.006	7.551	7.402
450.0	277.0	507.4	643.8	802.9	786.8	576.4	447.6	451.5	484.8	535.9	722.6	923.5	 1197	 1510	 1712	 1779	 1672	 1409	 1046	699.0	455.2	320.1	257.1	226.4	221.6	211.4	206.9	200.4	195.2	188.8	176.8	157.4	143.0	135.9	128.9	93.49	62.85	49.54	41.34	32.82	30.63	35.81	59.43	322.4	 1738	 6245	 8666	 2697	38.46	6.830	4.999	5.091	4.642	4.070	3.660	3.305	2.977	2.999	2.298	2.606	2.161	2.420	3.058	2.621	2.798	3.166	3.221	3.538	4.200	4.142	4.914	4.856	6.134	5.409	6.786	6.193	5.634
455.0	215.8	466.1	902.1	702.6	674.1	509.0	420.2	388.7	441.9	502.7	638.2	801.2	 1018	 1282	 1426	 1463	 1389	 1154	859.3	580.5	394.5	279.8	233.6	206.5	204.2	194.8	196.9	192.5	188.4	183.7	168.6	154.9	135.7	120.8	117.9	111.7	82.44	56.48	44.17	36.98	30.59	27.87	28.43	85.40	398.7	 1418	 3832	 9989	 3790	45.46	7.112	5.210	4.738	4.031	3.609	2.881	2.845	2.851	2.714	2.856	2.321	2.119	2.292	2.824	2.851	2.697	3.186	3.555	3.951	4.269	4.107	4.172	4.597	4.888	5.208	5.029	4.741
460.0	138.8	367.0	 1207	756.5	560.0	463.8	389.1	361.9	402.9	461.2	567.0	721.3	862.7	 1114	 1205	 1249	 1151	984.6	744.1	504.5	347.2	255.1	210.7	201.9	189.0	182.0	185.3	182.1	177.4	176.5	165.3	153.1	130.9	114.1	104.7	106.2	93.83	61.89	47.66	38.60	31.60	27.38	23.14	32.67	100.8	327.3	919.0	 5545	9999.9	 2650	33.58	6.553	5.542	4.187	3.911	3.605	3.239	2.701	2.482	3.208	2.927	2.479	2.237	2.917	2.495	2.903	3.219	3.869	3.667	3.989	4.249	4.232	4.767	5.320	4.534	4.635	5.502
465.0	179.2	224.8	 1136	 1278	518.4	411.6	356.6	364.2	373.5	420.8	531.6	625.0	757.3	949.1	 1045	 1067	983.9	841.7	651.0	441.4	305.8	233.8	199.0	182.0	180.3	174.9	170.2	170.7	166.8	164.6	160.2	147.4	131.5	110.2	99.03	96.31	97.91	71.62	48.61	39.75	33.37	27.81	23.07	22.04	34.24	83.90	216.1	 1430	 7035	 9104	514.9	19.27	7.160	4.979	4.494	3.398	2.919	3.218	2.166	2.894	2.211	2.686	2.771	3.055	2.843	2.464	2.807	3.363	3.475	3.799	3.470	3.785	3.878	4.793	4.136	5.042	4.808
470.0	128.4	201.0	633.2	 1962	981.7	373.7	339.4	326.3	339.9	387.8	456.7	536.8	655.1	758.4	852.6	877.2	810.5	692.3	526.0	365.2	259.1	198.7	173.3	162.2	156.2	155.5	153.9	155.3	152.3	153.6	145.5	134.7	122.8	104.9	93.75	82.42	82.88	78.86	58.29	42.74	33.49	28.09	23.30	19.29	19.69	30.12	58.45	328.5	 1794	 5619	 7168	 2458	36.37	7.302	5.320	3.844	3.472	3.557	2.497	2.599	2.438	2.872	2.208	2.760	2.711	2.712	2.374	2.646	2.664	2.998	3.125	3.187	3.943	3.989	3.422	4.155	3.395
475.0	118.6	158.6	349.9	 1479	 2206	405.5	308.4	317.9	291.4	336.2	405.0	437.8	552.4	611.1	679.1	698.6	661.2	550.0	422.2	298.8	217.3	169.5	146.1	147.0	140.9	136.8	138.4	140.5	140.5	137.8	137.0	126.1	111.8	96.22	88.89	75.95	66.85	69.33	66.45	48.64	33.79	28.04	23.12	19.18	16.98	16.74	22.18	80.68	407.6	 1269	 3086	 7683	 3222	50.82	6.348	4.266	4.381	4.182	2.368	3.092	2.524	3.023	2.951	2.301	1.829	1.969	1.905	2.918	2.542	2.292	2.600	2.926	3.201	3.766	3.148	2.715	3.273
480.0	142.6	177.4	255.2	778.3	 2684	960.3	286.3	306.6	257.4	303.2	349.4	417.1	487.5	546.2	612.3	589.2	548.4	457.2	367.8	260.7	193.4	153.4	133.5	132.5	129.2	127.1	134.2	128.4	127.9	126.1	122.3	119.3	106.6	92.92	86.16	73.00	63.48	61.53	62.41	55.08	36.66	27.08	23.16	19.51	16.29	14.70	14.89	26.05	98.43	289.4	735.5	 4165	 8044	 2505	32.33	5.069	4.194	3.283	3.499	2.739	2.514	2.976	2.867	2.223	2.325	2.583	3.366	2.163	2.372	2.366	2.309	2.811	3.403	3.236	2.857	2.466	3.436
485.0	105.7	191.3	254.9	416.0	 2182	 2074	289.4	268.3	252.1	286.4	318.2	373.3	430.9	470.8	518.1	507.8	477.2	388.7	318.9	235.8	170.2	138.9	120.7	118.6	122.7	117.5	119.6	119.5	120.9	122.3	115.2	111.2	102.9	89.13	81.37	68.76	60.70	56.32	54.69	58.98	42.79	27.96	23.45	20.64	17.13	13.83	12.30	14.10	29.47	70.90	170.9	 1075	 5428	 7653	544.7	16.82	5.785	3.946	3.550	3.316	2.968	2.476	2.112	2.273	2.178	2.588	2.920	1.964	1.818	1.812	2.062	2.386	2.652	3.044	2.733	2.735	3.390
490.0	104.5	139.9	222.4	271.5	961.5	 2772	 1074	229.4	238.3	257.1	280.8	320.7	357.0	386.3	426.9	425.2	389.4	328.3	264.6	199.3	152.5	121.5	108.5	105.2	109.2	105.3	108.2	106.9	110.7	109.4	109.0	103.1	94.72	86.38	74.71	66.89	58.77	52.07	46.70	47.53	46.02	35.08	24.94	19.54	15.77	13.21	11.55	11.34	13.34	22.21	43.76	245.8	 1374	 4461	 5518	 2426	39.63	5.511	4.161	3.520	3.544	2.648	2.539	2.151	2.226	2.115	2.569	2.194	1.700	2.318	2.515	2.442	2.497	1.911	2.618	2.816	2.651
495.0	118.7	176.1	161.0	219.3	380.7	 1639	 2701	381.4	206.2	232.0	241.2	290.4	300.4	320.4	365.2	342.5	314.3	276.1	213.6	159.4	127.8	102.7	97.36	96.73	95.15	92.65	94.84	96.34	98.16	97.62	96.53	92.27	83.98	77.17	70.44	61.65	54.25	49.47	43.03	39.18	40.74	38.47	27.69	19.85	15.33	12.72	12.52	10.42	9.753	10.31	15.35	60.06	310.8	 1008	 2567	 7487	 3543	53.03	5.657	4.440	3.972	2.429	2.638	2.369	1.865	2.112	2.260	2.286	2.289	2.179	2.467	2.384	2.323	2.406	2.359	2.232	1.854
500.0	128.4	165.6	209.4	228.3	278.7	712.5	 3143	 1097	197.9	221.9	234.3	245.3	259.4	289.2	308.1	286.3	274.6	233.6	181.2	137.3	111.1	92.03	87.75	87.47	84.70	85.26	84.80	89.30	86.91	87.63	90.33	83.44	77.66	69.57	63.41	56.64	51.67	45.45	39.94	34.55	32.95	37.07	30.90	21.04	15.96	13.12	11.48	9.339	8.826	8.089	8.840	18.24	73.71	230.1	612.4	 3927	 8211	 2584	34.66	4.518	3.687	2.560	3.226	2.884	2.837	2.160	2.572	1.771	1.927	2.129	1.535	2.049	1.640	2.418	1.823	2.440	2.377
505.0	133.8	162.1	173.4	203.6	230.0	324.4	 2169	 2098	238.5	194.5	199.4	214.7	224.6	247.3	259.8	246.2	230.4	193.3	156.0	126.4	100.6	87.21	81.27	78.47	77.29	76.08	76.80	81.48	84.80	80.97	83.71	75.66	70.55	66.15	58.68	52.90	50.31	42.72	36.16	33.39	28.59	32.38	31.97	23.77	16.79	13.24	11.17	10.36	8.725	7.990	7.171	9.448	21.04	56.71	142.5	987.4	 5299	 7757	590.5	15.74	3.910	3.268	3.317	2.656	3.071	2.302	2.250	1.227	2.200	1.866	2.291	2.181	1.274	2.573	1.711	2.110	2.196
510.0	97.64	114.6	158.9	193.9	198.4	202.0	822.8	 2881	 1137	184.6	198.9	185.2	192.9	213.3	215.1	208.0	189.6	157.2	133.9	104.4	84.26	76.36	68.65	66.81	65.31	67.51	67.80	70.22	72.91	71.37	71.68	65.70	62.94	58.53	52.42	48.78	43.27	39.58	33.60	30.81	26.63	25.21	26.04	25.27	20.08	12.85	11.29	10.00	8.265	7.659	6.872	6.338	8.652	17.40	36.22	225.5	 1329	 4344	 5419	 2364	37.17	4.792	3.587	2.713	2.963	2.218	2.185	2.274	1.736	1.492	2.101	1.955	2.255	1.900	2.251	1.683	1.511
515.0	219.0	88.92	129.8	191.9	202.2	163.4	266.1	 1510	 2948	406.4	149.3	167.8	175.3	171.1	173.4	172.1	158.8	128.9	108.3	91.30	70.86	64.17	57.91	54.97	57.34	56.63	60.63	61.15	60.23	61.32	62.90	58.48	54.21	51.03	46.04	42.67	38.46	34.78	30.72	27.69	23.88	22.51	19.00	21.90	20.71	15.00	10.59	9.181	8.087	6.530	6.334	5.349	5.595	7.748	11.43	54.45	300.7	978.7	 2337	 6690	 3284	49.43	4.312	3.783	2.260	2.776	1.707	1.829	2.063	1.295	1.981	1.031	2.018	1.478	1.202	1.075	1.315
520.0	133.2	70.92	128.9	199.0	164.3	147.1	144.1	563.5	 3107	 1254	148.7	141.1	148.3	158.3	154.9	145.5	141.4	109.7	90.66	77.08	61.36	55.44	53.37	52.33	51.69	52.92	51.72	55.11	54.38	55.98	53.65	54.06	50.62	45.70	41.64	39.10	34.43	30.52	29.12	25.19	20.18	19.85	16.80	17.59	20.53	18.68	11.08	9.086	7.746	6.803	6.046	5.069	5.265	4.869	5.995	15.52	71.82	222.4	554.9	 3386	 6803	650.3	31.15	4.478	3.366	2.843	2.060	1.848	2.197	1.945	2.220	1.033	2.052	1.828	2.365	1.361	1.524
525.0	63.72	69.73	128.3	118.1	171.4	146.9	134.7	241.5	 1950	 2690	237.8	130.3	134.8	135.5	135.9	117.3	119.5	93.29	76.58	66.31	55.09	51.41	45.41	47.10	46.22	46.71	49.06	47.84	49.19	52.31	45.29	47.39	42.79	43.85	36.49	34.39	31.94	27.88	27.46	22.83	18.85	19.98	15.62	14.01	16.41	19.08	13.49	8.672	7.076	6.269	5.142	5.164	5.567	4.097	4.942	7.134	19.78	53.02	127.7	838.7	 4100	 5276	562.1	12.24	3.184	2.385	1.787	3.260	2.350	1.990	1.725	1.139	1.395	2.250	2.129	1.867	2.211
530.0	46.47	71.73	74.15	97.15	130.3	157.6	124.4	127.2	674.8	 2793	 1382	124.1	117.4	115.1	113.9	98.55	96.83	80.77	67.78	56.47	48.49	44.02	41.22	40.21	39.00	41.02	40.96	41.01	42.76	42.09	43.83	41.29	39.86	36.42	32.22	29.00	27.75	23.56	22.46	20.60	18.09	16.80	14.42	13.15	11.99	15.28	14.82	10.62	6.995	5.878	4.668	5.251	4.368	4.463	4.116	4.984	7.779	15.00	32.06	190.8	 1012	 3105	 4504	 1875	34.61	3.448	2.980	3.054	1.719	1.781	1.565	1.668	2.393	1.382	1.899	1.613	1.848
535.0	41.44	66.01	71.86	76.18	107.4	148.4	107.6	107.5	232.7	 1223	 2979	380.7	95.06	90.97	88.21	78.36	80.44	69.25	57.41	44.94	43.49	35.04	34.53	37.05	34.59	34.13	33.37	34.32	36.79	38.00	36.10	36.40	34.78	31.09	26.78	25.61	22.92	21.01	19.61	17.80	15.67	14.71	11.97	10.76	9.379	11.47	13.42	11.87	7.859	6.308	5.062	4.148	3.821	3.659	3.973	3.902	5.083	6.263	10.32	45.37	228.6	698.1	 1787	 5031	 2553	44.81	2.968	2.067	2.017	1.157	1.554	1.575	1.087	1.497	1.432	1.460	1.153
540.0	89.44	58.60	120.9	102.3	77.62	105.7	116.6	98.12	131.1	401.4	 2816	 1132	90.39	79.99	78.27	70.35	71.39	55.77	47.97	43.10	38.09	33.02	32.82	33.55	31.23	31.48	29.74	30.87	30.69	32.53	32.59	31.38	30.54	27.19	24.25	22.68	20.85	18.75	17.39	15.78	15.99	13.12	11.83	9.871	7.916	8.735	11.22	11.64	9.540	6.278	4.614	3.637	3.995	3.820	4.371	3.720	3.891	3.829	4.807	12.74	53.63	158.6	418.4	 2418	 5199	641.3	24.22	3.876	2.531	1.944	1.646	1.288	1.180	1.631	2.118	1.316	0.701
545.0	129.3	78.49	94.97	116.4	68.65	72.90	118.2	80.47	90.28	153.6	 1649	 2598	186.2	72.07	68.65	62.22	58.27	53.41	42.16	36.29	30.16	29.72	32.47	27.28	30.10	27.66	27.72	27.52	29.44	28.18	29.61	27.42	25.72	25.37	23.01	19.96	19.00	16.86	16.62	14.05	14.49	11.40	10.60	8.320	8.287	7.118	8.379	9.661	11.42	6.722	4.663	3.738	3.888	4.414	3.779	2.985	3.924	2.964	4.063	5.366	13.89	38.21	96.16	597.3	 3146	 4394	511.1	7.719	2.400	2.402	1.415	1.589	1.655	1.683	1.951	1.164	1.337
550.0	97.37	66.00	84.90	84.11	68.81	54.20	101.5	106.3	83.20	97.60	525.8	 2540	 1229	76.24	58.92	52.21	48.92	45.44	37.55	30.70	25.96	24.78	23.87	23.02	24.34	22.18	23.66	23.10	23.83	23.14	24.10	23.53	20.84	21.86	19.44	17.59	16.49	14.51	12.96	12.07	11.12	9.869	9.321	7.272	7.768	6.774	6.708	6.615	8.831	8.221	5.565	3.957	3.259	3.585	3.522	3.236	2.811	3.509	3.560	3.300	5.585	11.06	23.73	136.5	776.8	 2461	 3400	 1276	30.04	3.032	1.789	1.678	1.678	1.552	1.687	1.226	1.112
555.0	76.16	51.41	117.8	64.46	85.63	57.44	72.36	120.9	92.76	96.11	215.4	 1050	 2641	338.0	54.35	43.38	46.31	34.97	29.31	26.20	23.86	18.43	18.64	20.40	21.75	19.63	21.33	18.25	19.05	20.27	21.26	19.39	17.88	18.12	15.29	15.08	13.68	11.40	11.05	9.501	8.986	9.332	8.067	7.241	6.395	6.529	5.836	5.347	6.102	6.896	6.230	3.744	3.011	2.769	2.258	3.091	2.125	2.883	2.796	3.206	2.731	5.052	7.925	33.34	175.7	554.9	 1388	 3627	668.3	36.18	2.011	2.319	1.033	1.597	1.407	1.306	1.360
560.0	90.66	55.00	106.9	50.31	58.67	62.00	80.37	106.8	138.4	119.6	153.3	371.6	 2443	839.7	52.67	40.35	41.00	27.90	24.12	20.96	22.13	17.73	18.24	16.90	18.69	16.53	20.62	15.63	15.11	17.56	16.00	16.82	15.85	15.82	12.68	12.51	11.96	10.75	9.894	9.331	7.914	8.294	7.241	6.710	5.892	5.435	5.482	4.332	4.989	4.975	5.742	4.639	2.953	2.093	2.557	2.971	2.926	3.192	2.234	2.860	1.835	3.326	3.256	9.537	40.59	126.0	329.3	 1851	 3289	571.8	12.65	2.265	1.684	1.346	1.627	1.541	0.695
565.0	50.56	45.39	73.78	103.4	49.18	32.89	69.01	95.52	155.3	130.1	156.6	198.1	 1382	 2149	122.3	33.94	31.80	23.43	24.29	15.40	17.95	15.47	13.62	15.86	14.90	13.91	15.03	14.92	14.62	14.15	15.32	15.24	13.80	13.20	10.62	11.69	11.34	9.387	8.155	7.991	7.518	6.769	5.784	5.493	4.306	4.541	4.361	4.258	4.550	3.607	4.874	4.949	3.276	2.335	2.361	2.008	2.121	2.830	2.059	2.269	1.811	3.212	3.143	4.619	10.71	30.41	75.81	466.9	 2210	 2804	82.11	3.586	2.315	2.345	1.154	1.101	1.115
570.0	120.4	74.38	85.15	70.74	55.61	46.07	55.84	81.35	143.0	154.9	172.2	170.7	464.3	 2066	 1006	36.07	24.61	21.99	19.46	15.81	14.91	13.91	13.11	13.23	11.41	11.81	12.91	12.47	11.15	11.89	11.93	11.77	10.53	9.696	8.176	9.705	8.331	7.845	6.958	6.573	6.305	5.844	5.162	5.286	4.083	4.088	3.318	4.218	3.536	3.085	3.168	4.207	4.091	2.700	1.927	2.068	2.125	2.093	2.274	2.090	1.945	2.625	2.942	2.376	4.288	8.533	19.31	106.8	559.0	 1655	 2066	372.1	23.87	1.998	1.611	1.536	1.161
575.0	134.4	63.44	107.9	84.15	72.50	58.97	51.51	71.97	137.0	199.7	197.3	181.6	193.2	807.8	 2143	260.9	24.92	17.89	15.88	13.92	12.46	11.60	8.709	11.26	9.990	10.51	10.20	9.920	10.42	7.604	9.205	10.60	8.218	7.995	8.759	9.138	6.336	6.879	5.567	5.170	5.312	5.092	4.040	4.593	3.491	3.634	3.903	3.089	3.348	2.355	2.393	3.100	3.958	2.784	2.213	2.883	1.984	1.775	1.992	1.881	1.996	2.892	2.544	1.727	2.454	3.075	6.063	25.13	125.9	373.9	910.2	 2201	600.2	22.31	1.370	1.686	1.486
580.0	59.70	70.77	34.29	98.65	58.14	64.61	51.47	102.5	119.5	212.6	210.6	204.8	141.4	250.7	 1873	948.1	20.64	16.95	12.59	12.53	10.94	11.33	7.909	9.303	8.839	8.232	8.896	8.866	9.569	7.492	8.063	9.456	6.971	6.521	7.911	6.701	5.202	5.092	4.862	4.722	5.576	5.539	4.572	4.081	3.412	3.208	3.058	2.523	2.514	1.865	1.394	2.715	3.305	3.464	3.038	2.732	2.373	1.554	1.742	1.500	2.131	1.856	2.407	1.796	2.133	2.133	4.248	7.342	28.78	85.06	218.4	 1214	 2094	448.4	7.511	1.226	1.501
585.0	73.44	94.86	72.63	76.00	68.12	43.72	46.28	76.87	115.1	203.5	213.7	185.9	137.9	101.5	 1003	 1724	79.73	14.79	13.18	10.73	11.65	9.099	7.989	8.848	7.656	8.323	7.063	8.429	8.938	6.414	7.636	7.830	5.804	5.885	6.321	5.377	5.448	4.454	5.353	4.083	3.858	4.383	3.021	4.693	3.294	2.276	2.514	2.149	2.404	2.144	1.521	1.905	2.254	2.865	2.950	2.749	2.721	1.776	1.093	2.031	2.077	1.967	2.292	2.637	1.887	2.138	2.310	2.463	7.766	20.62	50.50	314.7	 1469	 1768	76.42	2.489	1.092
590.0	94.21	87.20	96.14	54.53	64.07	54.81	54.32	61.36	114.8	171.4	228.1	180.9	115.8	60.53	291.8	 1557	713.1	17.86	10.15	10.12	8.942	9.125	8.094	8.395	6.882	7.326	6.215	6.958	7.264	6.912	6.964	6.210	6.172	5.691	5.581	4.550	4.583	4.538	4.589	3.044	3.624	4.114	2.826	3.358	2.629	2.747	2.311	2.038	2.670	1.976	2.096	1.622	2.029	2.452	2.406	2.935	2.266	1.656	1.080	2.019	2.101	1.718	2.483	1.960	1.867	1.843	2.085	1.385	2.823	5.619	12.74	71.69	376.6	 1111	 1345	348.2	17.98
595.0	78.61	117.0	69.78	46.15	75.01	38.86	51.51	66.95	106.3	161.3	212.9	171.1	110.1	49.92	84.97	584.9	 1538	168.3	10.90	10.40	8.064	6.149	10.32	6.754	7.604	6.574	4.253	5.231	5.710	7.624	4.532	5.101	5.278	4.951	4.693	4.241	3.627	3.629	4.253	3.471	3.075	2.823	2.498	3.081	1.927	2.908	2.020	2.514	1.916	1.533	2.139	1.805	1.443	2.183	1.965	2.128	2.437	2.181	2.259	1.987	0.946	2.146	2.448	1.629	2.372	2.089	2.046	0.726	2.088	2.821	4.570	17.25	85.55	252.1	627.3	 1470	494.0
600.0	88.83	137.9	73.59	59.23	68.26	25.99	40.31	69.28	89.92	144.1	186.4	181.5	100.0	43.40	36.04	162.5	 1338	417.0	11.51	11.71	6.963	6.918	8.626	6.136	6.713	7.458	6.147	5.451	4.396	5.290	5.129	5.039	4.014	4.494	5.061	3.454	3.527	3.808	3.370	2.237	2.811	2.835	2.767	2.549	2.359	2.231	1.923	2.235	1.982	1.659	1.753	2.024	1.781	1.555	1.240	2.372	2.876	2.846	1.959	1.412	1.737	2.013	2.274	2.013	1.804	1.375	2.181	1.783	1.348	1.504	1.496	5.246	19.58	57.86	154.0	851.0	 1354
605.0	103.9	54.39	69.60	59.36	25.38	41.40	64.02	63.34	92.59	107.9	167.0	167.9	95.16	38.13	26.82	50.84	712.3	 1168	53.51	8.765	9.102	6.055	6.433	6.988	7.638	5.627	5.933	3.353	4.313	5.521	6.293	5.605	4.813	4.400	4.098	3.936	2.939	3.499	2.914	3.220	2.309	2.795	2.561	2.596	1.867	1.894	2.469	1.438	1.648	1.901	1.289	0.678	2.239	1.569	1.293	1.913	2.662	2.024	1.166	1.510	1.881	1.476	1.513	1.622	1.163	1.856	1.666	0.892	1.915	1.947	1.037	2.112	5.243	14.13	34.88	225.6	977.9
610.0	115.3	30.49	72.54	61.52	37.24	37.70	47.96	66.79	83.91	104.7	134.5	144.0	103.8	39.38	27.73	24.17	201.1	 1105	527.5	12.55	6.638	6.605	7.377	5.112	6.478	4.700	4.242	4.833	5.098	4.374	4.184	4.484	3.745	3.264	3.144	3.447	3.107	2.983	2.322	2.626	2.095	2.503	2.072	2.207	1.880	1.799	2.307	1.055	1.530	1.343	0.983	1.061	1.586	1.329	1.122	1.394	2.491	1.477	1.779	1.706	1.881	1.037	2.060	1.609	1.472	1.234	1.379	1.435	0.981	1.398	1.028	1.357	2.244	4.249	8.370	51.57	255.6
615.0	90.06	40.67	59.28	65.27	36.14	38.51	39.55	45.54	77.84	95.70	105.0	109.2	101.2	46.17	25.54	15.86	55.51	412.3	 1154	124.5	7.573	5.983	6.100	4.466	5.155	4.067	4.520	5.186	3.812	3.860	2.687	4.835	4.469	3.595	3.133	3.059	2.622	2.361	2.718	1.689	1.656	2.286	1.562	1.225	1.488	2.007	1.427	1.634	1.633	1.617	1.537	1.330	1.797	1.001	0.832	1.893	1.833	1.721	1.403	1.996	1.765	1.135	1.780	1.665	1.174	1.142	1.419	1.650	2.163	1.503	1.250	0.713	1.291	1.595	2.808	12.84	58.16
620.0	129.4	46.91	56.44	48.02	47.65	59.80	27.47	50.76	74.59	99.05	101.5	95.90	93.11	51.57	24.17	16.52	21.77	110.7	 1065	321.9	8.711	3.373	4.999	6.622	6.263	4.594	4.955	6.198	3.606	4.915	1.617	3.030	4.219	3.368	2.896	2.514	2.764	1.982	2.023	2.943	2.224	1.759	1.341	1.823	1.922	1.875	1.095	1.303	1.949	1.519	1.757	0.749	0.841	1.224	0.993	1.670	0.665	1.204	1.613	1.768	1.245	0.944	0.972	1.594	1.286	0.975	0.876	1.807	1.831	1.609	1.280	0.811	1.243	1.393	1.706	3.881	13.75
625.0	157.2	86.06	86.02	47.42	50.53	46.90	20.61	40.35	64.32	70.06	103.6	87.82	76.64	59.96	23.03	15.85	17.11	32.55	578.1	948.0	36.27	5.768	4.416	5.403	5.641	4.429	3.066	5.364	2.109	4.474	1.700	2.911	4.465	3.093	2.588	3.465	2.230	2.067	1.826	3.243	2.322	1.996	1.222	1.324	2.096	1.971	1.450	1.027	1.419	1.171	1.428	1.016	1.171	0.917	1.222	1.126	1.143	1.136	1.212	1.264	1.292	1.320	0.990	1.100	1.540	0.703	1.095	1.481	0.987	1.743	1.100	1.619	0.678	0.440	1.350	1.577	3.938
630.0	98.63	58.60	55.74	28.88	35.84	40.41	39.39	37.69	56.91	62.45	100.8	79.17	58.78	54.99	26.81	14.57	16.23	14.92	161.8	936.7	425.0	8.171	4.865	4.830	4.274	3.460	4.001	4.315	2.598	2.993	2.482	3.144	4.271	2.310	2.057	2.865	1.914	1.875	1.547	2.479	1.526	1.931	1.834	1.533	1.883	1.320	1.409	1.569	1.368	1.132	0.785	1.771	1.581	0.918	1.138	1.008	1.190	1.429	1.300	1.272	1.225	1.702	1.378	0.801	0.995	0.903	1.023	1.222	1.406	1.005	1.308	0.938	1.030	0.888	1.265	1.326	1.586
635.0	95.60	65.43	42.88	30.81	71.33	12.22	35.30	47.06	68.64	59.23	71.93	74.38	52.69	45.11	34.25	13.20	11.95	10.06	46.60	361.0	982.5	90.46	6.136	3.034	4.033	3.346	2.608	3.879	2.721	2.968	2.618	4.175	2.906	1.912	2.605	2.942	2.209	2.203	2.278	2.057	1.251	1.846	1.838	2.046	1.337	1.578	1.350	1.044	1.383	1.075	1.206	1.862	1.053	0.997	1.486	1.158	1.729	1.156	1.358	0.869	1.825	1.521	0.833	1.079	0.853	1.569	1.129	0.923	0.855	0.549	0.874	0.916	0.507	1.437	1.232	0.547	1.419
640.0	49.71	56.03	91.27	65.65	58.18	27.33	38.81	44.38	46.93	58.06	62.49	66.06	43.79	36.30	46.23	20.03	11.85	9.464	18.55	99.56	915.1	260.8	6.998	2.793	3.624	4.023	1.416	1.479	1.068	3.122	2.326	4.639	3.231	2.712	2.934	3.033	2.129	1.536	1.446	2.288	1.178	1.245	1.029	1.182	1.034	1.312	1.387	1.446	0.964	0.611	0.577	1.566	1.283	2.016	1.119	0.821	1.353	1.060	0.969	0.832	1.484	1.078	0.563	1.195	0.982	1.264	1.572	0.880	0.626	1.006	0.985	1.015	1.530	1.277	1.211	0.652	1.102
645.0	80.50	108.1	52.31	56.20	31.26	43.45	48.28	48.09	28.17	59.88	59.20	57.05	45.80	27.46	37.33	28.82	15.66	9.127	8.715	28.60	505.7	776.4	24.48	5.111	5.306	4.231	2.718	2.296	3.383	3.322	2.453	2.428	3.488	1.915	2.368	2.060	2.540	1.970	1.821	0.917	0.694	1.823	1.390	0.738	1.499	1.333	0.929	1.055	1.556	1.195	1.034	1.489	1.115	0.889	1.663	0.786	0.565	1.113	0.391	1.331	1.408	1.258	0.488	0.966	0.909	1.623	1.285	1.305	1.274	0.511	1.365	0.327	1.162	1.236	1.035	0.771	1.693
650.0	106.1	106.9	57.91	19.04	24.36	39.98	33.82	43.01	31.40	59.15	55.31	52.05	42.38	30.43	24.34	32.86	15.18	10.08	9.227	11.39	163.5	937.1	163.3	3.501	3.839	3.444	3.103	3.234	2.989	3.634	3.894	3.337	3.842	1.540	2.387	1.746	2.602	1.717	1.180	1.532	0.754	1.740	1.392	1.400	1.368	0.615	1.062	1.251	1.172	1.588	0.953	1.234	1.917	0.842	1.460	0.975	1.191	0.934	0.644	1.286	1.587	0.955	1.146	0.791	0.996	0.507	0.811	0.967	0.606	1.401	0.940	0.413	1.096	0.870	0.995	1.242	1.291
