Sample:	'1
File name:	t2025041601一分干北支流.FD3
Run date:	'15:33:15, 04/17/2025
Operator:	Administrator
Comment:	'

Instrument
Model:	F-2700 FL Spectrophotometer
Serial number:	23B8-004
ROM Version:	4J14000 07

Instrument parameters
Measurement type:	3-D scan
Data mode:	Fluorescence
EX  Start WL:	220.0 nm
EX  End WL:	600.0 nm
EX Sampling interval:	5.0 nm
EM  Start WL:	230.0 nm
EM  End WL:	650.0 nm
EM Sampling interval:	5.0 nm
Scan speed:	12000 nm/min
EX Slit:	5.0 nm
EM Slit:	5.0 nm
PMT Voltage:	700 V
Response:	Auto 
Corrected spectra:	Off
Contour interval:	50.000

Peak integration
Integration method:	Rectangular
Sensitivity:	1
Threshold:	1.000

Peaks
No.	ApexEX/EM(nm)	Height(Data)
1	225.0/340.0	621.9
2	235.0/510.0	217.5
3	240.0/525.0	193.0
4	245.0/535.0	169.3
5	250.0/550.0	140.7
6	255.0/560.0	123.2
7	260.0/575.0	103.5
8	265.0/585.0	90.74
9	270.0/300.0	764.9
10	270.0/600.0	76.60
11	275.0/305.0	730.9
12	275.0/375.0	290.6
13	275.0/610.0	64.89
14	280.0/310.0	645.5
15	280.0/340.0	347.7
16	280.0/625.0	55.60
17	285.0/320.0	638.3
18	285.0/635.0	42.30
19	290.0/325.0	584.4
20	295.0/330.0	439.0
21	300.0/335.0	407.3
22	305.0/345.0	355.1
23	310.0/350.0	288.4
24	315.0/355.0	273.7
25	320.0/360.0	261.0
26	325.0/370.0	230.5
27	330.0/375.0	225.9
28	335.0/380.0	228.9
29	340.0/385.0	206.4
30	345.0/395.0	184.8
31	350.0/400.0	189.6
32	355.0/405.0	172.7
33	365.0/420.0	152.0
34	370.0/425.0	137.2
35	380.0/440.0	103.2
36	385.0/445.0	92.47
37	400.0/465.0	61.07
38	415.0/485.0	38.60
39	430.0/505.0	26.01
40	455.0/540.0	12.26
41	545.0/300.0	6.363
42	580.0/320.0	6.248
43	585.0/325.0	6.132

Data points
	220.0	225.0	230.0	235.0	240.0	245.0	250.0	255.0	260.0	265.0	270.0	275.0	280.0	285.0	290.0	295.0	300.0	305.0	310.0	315.0	320.0	325.0	330.0	335.0	340.0	345.0	350.0	355.0	360.0	365.0	370.0	375.0	380.0	385.0	390.0	395.0	400.0	405.0	410.0	415.0	420.0	425.0	430.0	435.0	440.0	445.0	450.0	455.0	460.0	465.0	470.0	475.0	480.0	485.0	490.0	495.0	500.0	505.0	510.0	515.0	520.0	525.0	530.0	535.0	540.0	545.0	550.0	555.0	560.0	565.0	570.0	575.0	580.0	585.0	590.0	595.0	600.0
230.0	158.7	5559	9999.9	5597	183.8	31.03	24.44	20.98	17.95	17.22	17.05	16.57	15.07	13.67	12.35	10.94	10.09	9.675	8.879	8.594	7.824	7.180	6.576	6.252	5.912	5.490	5.162	4.866	4.868	4.560	4.437	4.431	4.243	4.010	3.810	3.325	3.204	2.950	2.785	2.654	2.535	2.440	2.507	2.428	2.237	2.329	6.391	29.80	57.42	45.48	16.62	4.184	1.749	1.605	1.636	1.522	1.516	1.395	1.351	1.245	1.217	1.173	1.165	1.172	1.111	1.068	1.034	1.015	0.956	0.925	0.905	0.847	0.831	0.835	0.834	0.759	0.813
235.0	169.3	1505	8994	9999.9	4342	263.7	32.65	25.96	22.98	20.92	18.77	17.68	18.01	13.92	13.24	11.65	10.52	9.624	9.503	8.701	7.782	7.170	7.086	6.367	5.987	5.863	5.383	5.054	5.075	4.584	4.550	4.600	3.880	3.890	3.840	3.443	3.378	3.048	2.969	2.748	2.487	2.337	2.392	2.588	2.565	2.436	3.027	8.834	22.52	42.70	67.34	71.50	20.75	7.163	1.813	1.522	1.554	1.449	1.387	1.433	1.248	1.168	1.221	1.178	1.130	1.063	1.041	1.056	0.943	0.908	0.913	0.903	0.823	0.871	0.808	0.779	0.740
240.0	219.0	476.5	2811	9999.9	9999.9	3341	153.8	34.84	28.54	25.31	21.53	20.63	19.32	16.69	14.09	12.24	10.80	10.57	9.667	9.114	8.233	8.070	7.181	6.767	6.379	6.042	5.851	5.481	4.777	4.777	4.647	4.566	4.197	4.044	4.021	3.549	3.415	3.060	3.066	2.802	2.585	2.546	2.527	2.568	2.697	2.767	2.485	3.619	6.563	13.49	37.88	92.85	110.5	28.45	17.51	4.168	1.785	1.547	1.411	1.345	1.338	1.373	1.165	1.253	1.160	1.117	1.105	1.157	0.947	0.939	0.893	0.828	0.861	0.949	0.857	0.774	0.780
245.0	198.6	348.6	749.4	4369	9999.9	9999.9	2464	77.11	39.59	31.62	27.15	23.29	21.93	17.87	16.58	13.19	11.32	11.17	10.04	10.09	8.285	8.225	7.493	7.301	6.715	6.356	5.647	5.598	5.186	4.934	4.941	4.645	4.114	3.922	4.089	3.833	3.537	3.226	3.173	2.790	2.496	2.643	2.605	2.616	2.498	2.732	2.938	2.553	3.104	4.554	10.12	32.16	82.93	137.3	138.7	27.31	13.70	2.496	1.644	1.534	1.501	1.328	1.368	1.335	1.222	1.143	1.287	1.211	1.021	0.920	0.986	0.888	0.963	0.913	0.871	0.852	0.958
250.0	143.8	242.8	408.1	1131	5083	9999.9	9999.9	8375	151.2	48.59	37.79	31.70	25.83	21.39	17.44	15.74	13.45	12.34	11.11	10.71	8.545	8.503	7.646	7.670	7.027	6.764	6.218	6.027	5.653	5.503	5.080	4.779	4.230	4.102	3.990	3.722	3.531	3.477	3.300	2.788	2.707	2.784	2.779	2.626	2.498	2.553	2.536	2.585	2.831	2.995	3.839	8.797	21.14	47.74	92.63	135.3	179.4	122.6	75.66	10.87	2.569	1.689	1.552	1.525	1.362	1.403	1.298	1.291	1.103	1.007	1.064	0.966	0.973	0.928	0.896	0.935	0.919
255.0	144.1	148.5	277.8	545.3	1269	3254	9999.9	9999.9	9999.9	184.0	62.25	44.64	35.20	27.67	22.28	18.06	16.45	13.64	12.62	11.66	10.07	9.225	8.354	7.864	7.835	7.365	6.740	6.366	5.944	5.746	5.554	5.207	4.672	4.268	4.164	3.899	3.630	3.538	3.467	3.251	3.028	2.889	2.773	2.852	2.560	2.366	2.326	2.308	2.336	2.694	3.100	4.178	6.394	12.15	22.33	34.05	75.58	176.6	309.9	216.1	28.77	13.94	2.399	1.829	1.691	1.546	1.424	1.401	1.166	1.239	1.104	1.183	1.046	1.010	1.022	0.961	1.025
260.0	148.9	126.0	156.3	368.1	553.5	851.5	5281	9999.9	9999.9	1941	139.3	66.13	47.81	35.24	26.62	21.31	18.63	15.80	15.10	13.20	11.38	10.25	8.704	8.189	7.838	7.756	7.676	6.562	6.424	5.977	6.157	5.844	4.892	4.505	4.385	4.140	3.554	3.614	3.695	3.264	3.155	3.019	2.879	2.951	2.848	2.564	2.497	2.285	2.245	2.194	2.643	3.572	4.052	4.665	6.610	9.348	19.12	50.63	152.9	305.0	386.1	201.8	24.94	9.072	2.043	1.843	1.587	1.498	1.387	1.362	1.250	1.162	1.115	1.124	1.067	1.090	1.009
265.0	167.8	124.8	118.8	221.2	462.7	404.8	1339	9999.9	9999.9	9999.9	1534	108.5	64.55	45.72	32.82	26.00	21.20	17.73	15.77	13.97	11.97	11.28	10.08	9.227	8.665	8.347	7.546	7.265	6.873	6.784	6.363	5.968	5.354	4.885	4.706	4.286	3.806	3.751	3.526	3.279	3.337	3.201	3.054	3.128	2.720	2.763	2.683	2.463	2.397	2.034	2.170	2.664	3.622	3.906	3.891	4.030	6.027	13.17	37.69	99.18	254.5	443.5	461.7	177.8	19.51	4.007	1.994	1.797	1.685	1.549	1.436	1.356	1.282	1.210	1.258	1.210	1.160
270.0	198.9	148.8	124.8	134.7	272.4	450.7	555.4	2485	9999.9	9999.9	9999.9	6199	131.7	75.63	49.75	37.07	28.12	23.30	19.32	16.35	14.35	12.57	11.59	10.33	9.721	9.158	8.356	8.078	7.826	7.243	7.172	6.553	6.273	5.560	4.981	4.621	4.218	4.000	3.806	3.591	3.465	3.387	3.292	3.256	3.130	3.043	2.953	2.671	2.504	2.199	2.107	2.307	2.558	3.086	3.704	3.989	4.229	5.111	10.49	24.25	61.80	137.8	266.6	397.2	372.9	356.9	118.9	14.05	4.640	2.016	1.818	1.658	1.610	1.418	1.418	1.394	1.389
275.0	221.5	184.1	136.8	120.2	148.1	266.0	572.8	816.0	2390	4956	9999.9	9999.9	8624	142.5	85.05	54.82	41.02	30.57	24.79	21.33	17.12	15.30	13.10	12.37	11.37	10.14	9.254	9.334	8.524	7.928	7.414	7.077	6.917	6.394	5.264	5.033	4.534	4.524	4.285	3.912	3.805	3.790	3.614	3.595	3.340	3.336	2.929	3.008	2.626	2.451	2.310	2.375	2.322	2.515	2.779	3.285	4.240	5.284	5.283	7.608	15.92	32.90	61.57	94.11	139.2	375.4	703.2	708.6	193.8	19.74	3.761	2.535	2.158	2.023	1.857	1.670	1.681
280.0	259.4	205.1	151.3	131.7	123.3	155.8	407.8	651.8	724.2	1306	8962	9999.9	9999.9	1103	123.9	78.90	53.75	40.11	30.46	24.90	20.36	17.41	14.83	13.75	12.40	11.43	10.35	9.628	9.154	8.750	8.497	7.611	7.124	6.783	5.836	5.614	5.053	4.729	4.491	4.109	3.884	3.737	3.987	3.727	3.713	3.470	3.168	3.194	2.767	2.662	2.232	2.666	2.414	2.401	2.513	2.666	3.217	4.180	5.376	5.428	5.945	9.407	15.86	23.31	33.93	96.44	277.6	633.5	866.6	257.3	30.97	14.12	3.011	2.526	2.466	2.026	1.919
285.0	294.7	232.7	180.9	143.3	123.5	120.7	218.8	580.5	438.9	464.9	2300	9999.9	9999.9	9999.9	844.0	110.6	73.58	51.43	38.48	30.51	23.93	20.21	16.80	15.12	13.58	12.44	11.07	10.29	10.15	9.589	8.808	8.114	7.602	7.433	6.392	6.253	5.322	4.954	4.449	4.285	4.202	4.227	4.112	3.896	3.951	3.792	3.593	3.428	3.107	2.846	2.384	2.721	2.351	2.755	2.588	2.683	2.583	3.156	4.104	5.636	5.398	5.156	5.796	7.629	9.925	23.98	65.58	172.2	417.4	733.7	900.3	237.4	25.16	7.776	2.928	2.481	2.311
290.0	325.5	274.8	208.9	158.9	124.3	120.1	141.8	287.3	541.6	493.6	704.4	2636	9999.9	9999.9	9999.9	3456	234.1	79.22	54.83	41.30	31.59	25.39	21.46	17.93	16.30	14.43	12.81	11.89	11.43	10.87	9.621	9.075	8.004	7.881	7.052	6.616	6.156	5.715	5.049	4.759	4.489	4.292	4.213	4.025	4.085	3.992	3.643	3.551	3.186	2.885	2.740	2.957	2.737	2.933	2.601	2.772	2.816	2.859	3.091	3.674	4.330	5.214	5.504	5.129	4.661	7.686	17.20	40.92	97.57	198.4	398.9	556.1	722.9	611.0	399.2	18.22	8.434
295.0	352.6	306.7	239.2	175.7	139.8	124.3	124.6	162.7	277.4	627.2	603.2	789.4	2456	5510	9999.9	9999.9	5070	213.8	82.37	59.79	42.62	33.70	26.87	22.48	19.11	17.34	14.81	13.49	12.87	12.24	11.10	9.491	8.861	8.431	7.639	7.257	6.723	6.386	5.519	5.314	4.795	4.688	4.528	4.214	4.504	4.293	4.005	3.944	3.391	3.092	2.888	3.048	2.927	3.078	2.766	2.981	2.981	3.105	2.949	3.175	3.061	3.440	4.197	5.789	5.832	5.058	6.469	11.56	24.37	46.81	91.55	127.9	192.9	392.0	884.3	1066	262.7
300.0	392.6	337.0	264.7	191.2	147.9	135.1	131.4	143.8	185.3	399.3	764.9	512.0	754.2	1485	9420	9999.9	9999.9	3743	139.4	78.89	56.04	42.60	32.99	27.44	21.63	19.27	16.80	15.52	13.69	12.95	12.32	10.65	9.169	9.105	7.774	7.752	6.882	6.472	5.939	5.460	5.235	4.922	4.711	4.501	4.421	4.057	4.471	4.253	3.762	2.985	3.019	3.143	3.312	3.209	2.972	3.002	3.156	2.924	2.883	3.107	2.958	2.966	3.228	4.338	5.788	6.363	5.669	5.354	8.205	13.14	23.02	31.35	46.01	94.23	268.6	656.1	1072
305.0	413.4	358.7	282.4	211.2	159.7	146.1	148.4	153.1	186.1	270.3	603.3	730.9	438.4	549.6	2424	9999.9	9999.9	9999.9	564.8	114.6	72.23	53.79	40.05	32.63	25.99	22.14	19.23	17.45	15.21	14.18	13.34	11.73	9.675	9.592	8.409	7.890	6.974	7.061	6.366	6.123	5.288	5.108	4.819	4.651	4.542	4.459	4.450	4.593	4.127	3.495	3.028	3.515	3.409	3.447	3.022	2.996	3.289	3.116	3.265	3.052	3.277	3.121	3.185	3.696	4.263	5.370	6.423	5.900	5.171	5.877	7.727	9.804	13.14	24.10	63.52	160.6	393.6
310.0	443.1	391.6	311.3	227.8	179.2	157.1	165.2	168.3	197.2	244.1	369.3	639.4	645.5	396.6	743.1	2599	9999.9	9999.9	9999.9	9999.9	205.2	79.49	56.87	42.72	33.11	26.82	23.09	20.25	17.71	16.32	14.86	13.06	11.38	10.46	9.748	8.546	7.792	7.783	6.749	6.539	6.005	5.568	5.316	5.080	4.901	4.809	4.418	4.661	4.042	3.826	3.245	3.715	3.538	3.525	3.303	3.279	3.412	3.403	3.430	3.180	3.618	3.348	3.441	3.583	3.781	4.020	4.558	5.274	5.861	5.912	5.524	5.318	5.861	8.402	16.97	38.85	91.22
315.0	459.2	420.8	338.7	250.6	196.2	166.3	174.7	184.0	209.7	252.4	304.1	398.8	599.6	608.1	387.0	748.1	2415	4896	9999.9	9999.9	3940	212.2	83.92	59.63	44.29	34.91	28.54	24.36	21.32	18.98	16.99	14.69	13.07	12.27	10.63	9.452	8.502	8.474	7.193	7.166	6.590	6.165	6.000	5.426	5.396	5.088	4.800	4.879	4.552	3.995	3.724	3.894	3.764	3.586	3.743	3.922	3.835	3.640	3.600	3.462	3.709	3.379	3.634	3.650	3.626	3.715	3.901	4.139	4.465	5.077	6.023	5.937	5.039	4.770	6.609	11.27	23.10
320.0	489.6	469.2	394.2	275.7	200.7	173.3	182.3	196.2	221.1	256.8	300.3	342.7	424.5	638.3	455.8	337.8	700.6	1288	8463	9999.9	9999.9	3202	141.7	79.65	57.03	42.28	34.21	27.43	24.31	20.53	18.90	16.15	13.72	12.81	11.12	10.19	9.278	8.713	7.758	7.124	6.761	6.839	6.295	6.113	5.618	5.429	5.292	5.131	4.570	4.191	3.845	4.042	3.837	3.791	3.785	3.656	3.900	3.900	3.815	3.816	3.805	3.716	3.844	3.975	3.860	3.769	3.983	4.052	3.951	4.338	4.759	5.932	6.248	4.980	4.624	5.254	7.763
325.0	537.7	532.3	454.7	316.8	213.1	183.6	186.9	202.5	227.9	263.9	306.8	339.8	364.5	462.6	584.4	314.1	304.3	434.2	2114	9999.9	9999.9	9999.9	469.0	114.0	77.37	53.06	40.34	32.12	27.22	23.89	20.46	17.57	14.92	13.70	12.12	10.35	9.764	9.015	8.047	7.948	6.959	6.700	6.610	6.406	6.368	5.597	5.332	5.672	5.139	4.227	4.084	4.414	4.128	4.057	4.095	3.851	3.913	3.848	3.879	3.781	3.719	3.953	3.971	3.867	4.085	3.731	4.133	3.875	3.919	3.886	4.162	4.512	5.479	6.132	5.306	4.310	4.463
330.0	549.4	569.8	512.7	371.6	243.7	201.3	198.3	208.8	237.3	269.0	306.0	339.8	343.5	347.9	427.6	439.0	282.1	226.8	594.1	2479	9999.9	9999.9	9999.9	9999.9	199.4	78.19	53.91	41.64	34.25	28.45	23.98	20.58	17.28	15.33	13.24	11.52	10.37	9.642	8.929	8.373	7.713	7.215	6.564	6.620	6.397	6.365	5.828	5.978	5.468	4.500	4.302	4.367	4.350	4.208	4.073	3.835	4.037	3.926	4.014	3.957	4.121	4.078	4.019	4.037	3.947	3.876	4.000	4.001	3.952	3.927	3.989	4.086	4.362	4.500	4.936	5.190	4.924
335.0	554.6	607.5	572.0	424.8	291.1	221.9	211.7	223.4	238.6	273.5	311.3	343.7	346.7	326.0	309.5	344.7	407.3	225.6	239.7	663.5	2353	4318	9999.9	9999.9	9999.9	220.7	81.29	57.09	44.87	35.06	28.78	24.14	20.29	17.43	15.23	12.81	11.19	10.79	9.825	8.622	8.330	7.761	6.978	6.875	6.726	6.730	6.420	6.228	5.855	5.156	4.463	4.662	4.689	4.435	4.551	4.324	4.329	4.214	4.272	3.951	4.283	4.205	4.078	4.317	4.201	4.161	4.297	3.989	4.001	4.077	3.899	4.147	3.825	3.889	3.899	4.050	4.779
340.0	562.4	621.9	615.6	456.5	319.4	238.2	218.8	225.4	241.7	274.4	307.9	344.6	347.7	318.3	280.2	259.3	363.5	327.6	177.6	248.7	632.6	1104	7242	9999.9	9999.9	3070	147.2	75.14	55.41	41.98	32.41	26.71	22.49	19.24	16.04	13.83	11.90	11.21	10.16	8.990	8.549	7.836	7.308	7.001	6.815	6.946	6.597	6.350	6.104	5.010	4.896	4.927	4.393	4.701	4.561	4.619	4.422	4.362	4.304	4.144	4.246	4.148	4.319	4.276	4.235	4.233	4.325	4.160	4.076	4.017	4.030	4.043	3.902	3.890	3.767	3.616	4.082
345.0	551.2	601.3	602.8	475.9	327.7	254.5	225.6	224.9	243.6	272.4	299.2	328.0	335.9	305.4	272.3	231.8	254.5	355.1	233.5	157.8	236.7	353.3	1780	9999.9	9999.9	9999.9	431.2	108.0	71.47	52.74	38.86	30.84	25.21	20.54	17.06	14.80	12.94	11.27	10.20	9.257	8.526	8.105	7.446	7.150	6.933	6.615	6.426	6.538	6.176	5.022	4.737	4.901	4.481	4.561	4.425	4.536	4.431	4.327	4.100	4.137	4.048	4.081	4.070	3.981	4.107	3.963	3.996	4.012	4.095	3.995	3.889	3.760	3.627	3.946	3.756	3.592	3.489
350.0	517.6	570.1	561.9	462.2	344.7	275.4	237.0	234.5	244.4	262.5	284.8	309.3	316.6	297.7	259.8	222.5	205.3	243.2	288.4	210.3	151.9	172.2	497.3	2404	9999.9	9999.9	9999.9	9999.9	202.5	74.08	50.80	38.96	29.79	23.37	19.14	15.83	13.90	12.32	10.81	9.643	8.632	8.469	7.630	7.528	7.024	6.679	6.365	6.374	5.763	5.204	4.759	4.834	4.586	4.364	4.354	4.068	4.359	4.095	4.215	3.986	3.933	4.138	3.930	3.971	3.877	3.813	3.976	4.070	3.819	3.814	3.804	3.742	3.604	3.690	3.652	3.471	3.396
355.0	498.3	539.3	536.7	441.1	353.0	286.0	246.7	244.4	249.9	263.9	283.5	303.4	306.5	283.2	254.3	221.3	196.2	187.8	205.7	273.7	194.7	132.0	198.7	627.7	2330	3362	9999.9	9999.9	9999.9	244.4	75.62	50.83	37.45	28.21	21.91	18.06	15.52	13.61	11.47	10.33	9.222	8.943	8.082	7.379	7.204	7.038	6.428	6.657	5.845	5.072	4.842	4.980	4.661	4.410	4.412	4.136	4.425	4.019	4.174	4.094	3.814	4.010	3.911	3.989	3.735	3.964	3.933	3.639	3.775	4.039	3.656	3.711	3.519	3.555	3.646	3.273	3.298
360.0	491.1	508.8	507.8	423.4	361.7	294.6	267.8	258.8	254.3	271.1	279.8	290.0	293.0	277.6	254.6	222.1	197.6	176.3	171.2	222.7	261.0	151.6	133.0	225.9	610.7	861.1	4907	9999.9	9999.9	3129	179.4	69.50	48.93	35.63	26.80	20.33	17.25	14.88	12.59	11.17	9.900	8.862	8.070	7.444	7.362	7.162	6.329	6.265	5.881	5.456	4.637	5.138	4.809	4.602	4.266	4.119	4.602	4.389	4.160	4.048	4.007	4.223	4.365	3.789	3.992	3.892	3.986	3.434	3.872	3.673	3.438	3.467	3.584	3.443	3.484	3.444	3.504
365.0	476.7	476.7	478.6	427.5	363.5	301.3	276.8	267.3	266.1	274.4	281.3	287.3	282.3	270.6	251.1	222.1	200.7	182.5	167.2	175.5	246.7	217.0	129.6	135.7	220.5	283.2	1216	8483	9999.9	9999.9	2743	118.4	62.49	45.10	32.58	23.66	19.20	16.54	14.27	12.07	10.86	9.359	8.565	7.911	7.507	6.983	6.632	6.726	5.981	5.142	4.782	5.230	4.845	4.413	4.344	4.232	4.518	4.367	4.467	4.400	4.248	3.988	3.996	3.777	3.935	3.733	3.854	3.478	3.762	3.653	3.500	3.507	3.193	3.410	3.479	3.542	3.508
370.0	442.4	458.0	468.4	424.7	372.1	324.7	292.7	287.4	278.1	277.2	283.7	287.1	282.0	265.1	248.4	226.6	207.2	189.7	173.5	164.7	185.6	230.5	198.0	132.3	132.4	145.0	357.6	2016	8496	9999.9	9999.9	9999.9	199.2	63.69	43.97	30.91	23.88	19.62	16.17	13.66	12.08	10.43	9.186	8.657	8.052	7.384	6.881	6.815	6.084	5.380	5.067	5.220	4.998	4.663	4.484	4.387	4.503	4.370	4.298	4.463	4.105	4.069	4.021	3.915	3.868	3.815	3.759	3.587	3.591	3.613	3.615	3.543	3.343	3.400	3.546	3.460	3.434
375.0	421.3	438.2	455.6	418.6	386.8	343.6	308.7	294.8	291.8	288.5	289.4	290.6	280.0	266.5	249.2	227.6	212.5	198.0	184.5	171.8	165.7	177.7	225.9	188.8	123.0	109.4	157.2	531.5	1985	2960	9999.9	9999.9	9999.9	242.6	65.18	41.65	31.43	23.76	19.00	15.86	13.70	12.04	10.14	9.287	8.520	7.989	7.312	7.003	5.998	5.119	5.226	5.217	5.164	4.940	4.723	4.577	4.540	4.736	4.439	4.270	4.344	4.370	4.098	3.991	4.014	3.700	3.764	3.673	3.754	3.807	3.636	3.440	3.576	3.508	3.411	3.319	3.480
380.0	436.6	430.4	445.9	417.9	389.9	350.8	326.3	302.3	299.2	296.2	291.4	285.7	281.3	263.1	247.8	232.2	217.0	201.4	190.4	176.9	167.5	161.4	186.9	228.9	154.1	108.3	112.3	194.8	523.5	761.3	4111	9999.9	9999.9	9999.9	176.6	55.53	39.95	29.99	22.20	17.82	15.15	12.44	11.48	9.832	9.031	8.380	7.567	7.092	6.147	5.336	5.156	5.446	5.330	5.222	4.887	4.585	4.633	4.719	4.627	4.333	4.124	4.120	4.206	3.864	4.081	3.890	4.115	3.512	3.785	3.587	3.721	3.650	3.298	3.505	3.438	3.368	3.513
385.0	444.5	427.1	435.6	414.9	381.8	350.8	339.2	316.2	308.4	296.9	291.6	284.7	282.2	261.3	246.8	229.0	216.6	207.3	196.2	180.4	170.1	162.0	161.1	205.8	206.4	125.0	104.6	117.7	190.9	251.5	1022	6417	9999.9	9999.9	2385	111.7	50.05	36.20	26.54	20.14	16.84	13.55	12.18	10.79	9.209	8.592	7.885	7.538	6.693	5.517	5.163	5.597	5.163	5.339	5.010	4.910	4.785	4.713	4.439	4.462	4.311	4.166	4.178	3.989	4.118	3.696	3.856	3.325	3.613	3.502	3.673	3.474	3.643	3.487	3.452	3.608	3.622
390.0	420.4	429.0	433.8	430.9	395.4	362.0	347.8	323.7	315.2	301.3	294.9	287.6	276.7	261.5	242.1	226.2	216.5	207.3	198.2	187.1	177.2	166.0	158.5	163.7	194.4	180.2	120.5	102.4	113.3	128.1	303.1	1527	6580	9999.9	9999.9	9999.9	171.7	52.04	34.70	26.20	19.91	15.99	13.52	11.79	10.47	9.501	8.269	7.676	6.877	5.846	5.463	5.701	5.443	5.272	4.994	5.152	5.024	4.857	4.719	4.563	4.379	4.357	4.100	3.904	4.005	3.898	3.911	3.612	3.612	3.471	3.508	3.592	3.543	3.587	3.500	3.585	3.579
395.0	430.9	415.8	417.0	416.6	403.3	377.9	351.7	337.0	324.8	311.5	299.3	289.2	281.9	261.9	244.7	228.7	220.3	208.5	199.0	190.9	180.3	172.2	161.7	153.1	157.5	184.8	170.7	113.3	98.27	96.60	134.7	407.5	1536	2667	9999.9	9999.9	9999.9	216.6	51.44	35.95	25.85	20.13	16.23	13.46	11.50	10.37	9.022	8.390	7.545	6.037	5.652	6.000	5.745	5.525	5.257	5.202	5.213	5.068	4.924	4.395	4.504	4.418	4.215	3.995	4.051	4.057	4.015	3.796	3.693	3.779	3.558	3.414	3.694	3.690	3.521	3.649	3.592
400.0	409.0	402.3	406.0	414.4	399.5	380.6	358.3	339.8	331.2	324.8	306.4	288.0	273.3	255.8	238.5	228.4	215.6	210.5	200.7	192.1	181.7	173.7	166.6	153.3	146.3	154.5	189.6	141.7	100.0	91.48	94.87	152.9	404.0	666.6	3376	9999.9	9999.9	9999.9	161.8	45.73	31.64	24.28	18.55	14.86	13.11	11.43	9.745	9.043	7.855	6.437	5.629	6.075	5.682	5.435	5.374	5.238	5.213	5.208	5.144	4.718	4.427	4.430	4.062	4.018	4.061	4.135	3.661	3.601	3.787	3.554	3.562	3.614	3.742	3.561	3.539	3.674	3.551
405.0	383.7	402.7	406.0	397.2	384.7	376.8	364.7	344.0	335.1	320.7	303.9	286.3	271.6	256.6	236.5	221.5	210.4	206.1	197.8	190.7	182.0	173.3	163.8	157.5	145.1	138.8	164.9	172.7	116.4	91.44	84.30	92.73	145.8	205.6	824.3	5033	9999.9	9999.9	2154	101.1	38.03	28.55	21.98	16.73	13.92	11.41	10.49	9.459	8.068	6.737	5.803	6.292	5.891	5.604	5.325	5.273	5.316	5.198	5.077	4.785	4.802	4.211	4.105	4.151	4.049	3.941	3.726	3.661	3.755	3.473	3.603	3.453	3.688	3.473	3.525	3.499	3.328
410.0	367.6	385.3	389.8	389.3	380.4	368.0	361.8	347.9	336.0	320.5	305.5	285.1	267.1	249.5	228.8	220.3	206.3	201.4	192.9	185.9	178.9	172.4	163.7	156.8	145.9	137.4	136.5	156.8	153.7	108.7	83.95	77.38	83.01	95.82	234.5	1188	5389	9999.9	9999.9	9413	154.6	40.69	28.48	20.86	16.45	13.43	11.25	10.24	8.682	7.067	6.161	6.315	5.970	5.791	5.401	5.460	5.410	5.317	4.896	5.008	4.597	4.550	4.245	4.144	4.072	4.017	3.592	3.732	3.621	3.579	3.582	3.465	3.623	3.425	3.349	3.334	3.299
415.0	350.1	376.3	386.1	376.2	367.7	363.9	353.9	349.9	336.0	319.2	301.5	282.8	261.5	242.6	225.0	211.3	198.6	196.1	188.8	179.6	174.3	169.0	162.3	152.6	146.9	136.1	131.6	128.5	147.9	145.5	96.00	74.28	68.98	65.73	95.73	309.1	1250	2544	9999.9	9999.9	9999.9	198.5	38.33	27.64	21.05	16.68	13.30	11.02	9.334	7.507	6.709	6.903	6.193	5.990	5.455	5.382	5.304	5.460	5.102	5.012	4.777	4.629	4.301	4.299	4.057	4.117	3.616	3.790	3.531	3.484	3.567	3.412	3.435	3.362	3.279	3.175	3.206
420.0	343.1	370.0	372.7	368.9	361.5	354.3	352.4	345.1	334.6	317.4	303.9	283.1	257.5	236.2	218.1	200.4	193.6	187.6	180.7	175.0	170.7	166.1	157.4	152.0	145.3	134.7	128.2	121.1	125.8	152.0	118.9	79.76	64.90	59.85	61.77	109.0	320.6	619.1	3058	9999.9	9999.9	9999.9	143.0	35.23	25.69	19.82	14.86	12.10	9.940	8.094	7.375	7.235	6.751	6.222	5.773	5.615	5.442	5.488	4.967	5.373	4.796	4.737	4.611	4.431	4.146	3.910	3.827	3.741	3.757	3.468	3.412	3.408	3.585	3.439	3.258	3.253	3.472
425.0	345.2	350.8	372.6	365.1	355.7	347.4	350.0	338.0	333.0	313.8	298.0	279.0	255.5	232.7	211.1	196.0	188.8	180.5	177.4	168.9	163.8	160.3	156.2	149.4	143.3	134.6	127.0	120.2	114.7	130.5	137.2	92.80	66.09	57.22	53.07	61.28	108.1	178.7	735.9	4271	9999.9	9999.9	2028	84.13	32.49	23.86	17.89	13.68	10.46	8.719	7.444	7.478	6.900	6.309	5.935	5.654	5.653	5.527	5.384	5.010	5.016	4.959	4.350	4.426	4.189	3.821	3.885	3.608	3.624	3.531	3.508	3.287	3.636	3.504	3.330	3.223	3.391
430.0	575.9	346.9	352.4	355.1	352.0	343.9	338.2	333.6	328.3	310.9	297.8	281.5	251.7	229.7	205.3	189.0	181.3	173.1	169.4	161.9	158.3	154.0	149.5	146.3	140.8	131.5	124.9	118.3	111.8	111.9	120.8	115.4	79.45	58.42	51.50	48.27	57.94	73.79	200.9	1002	4646	9999.9	9999.9	8769	138.2	32.15	23.02	17.72	13.07	9.992	8.505	8.291	7.492	7.080	6.443	6.317	6.068	5.663	5.461	5.169	4.983	4.696	4.652	4.452	4.360	4.202	4.027	3.636	3.725	3.652	3.383	3.321	3.479	3.374	3.208	3.051	3.126
435.0	1683	392.0	346.7	340.1	337.3	333.3	330.7	330.5	327.6	308.2	296.2	268.3	247.1	223.6	198.2	183.4	172.1	167.0	160.4	155.2	151.0	148.1	145.2	141.2	133.7	130.1	122.3	116.6	111.3	105.7	101.8	109.0	102.2	67.14	52.18	44.96	45.25	47.89	75.86	256.3	1073	2480	9999.9	9999.9	9999.9	177.4	31.47	23.80	16.83	12.61	10.03	9.566	8.165	7.606	6.912	6.966	6.494	6.202	5.764	5.331	5.206	4.763	4.703	4.687	4.350	4.379	3.719	3.687	3.543	3.543	3.388	3.105	3.111	3.139	3.232	3.010	3.088
440.0	2694	768.6	346.2	333.7	329.5	334.6	331.1	331.9	328.2	316.0	290.6	269.5	242.5	215.5	196.0	172.5	166.6	160.2	157.0	152.3	146.3	143.0	140.4	135.9	131.4	126.7	120.6	116.2	109.3	102.1	93.93	93.00	103.2	82.54	55.86	46.12	42.01	40.34	45.97	86.95	271.4	595.8	3067	9999.9	9999.9	9999.9	119.8	30.66	20.76	15.25	11.98	10.49	9.177	7.883	7.452	7.089	7.006	6.599	6.122	5.662	5.351	5.235	4.744	4.730	4.278	4.191	3.811	3.775	3.676	3.466	3.420	3.207	3.219	3.177	3.029	3.345	3.142
445.0	3846	1701	350.5	335.5	322.8	322.8	322.1	321.6	317.7	310.8	286.7	266.1	239.9	214.3	190.0	171.1	163.8	155.2	148.1	145.2	142.0	135.6	135.4	131.9	129.5	124.9	119.3	112.9	108.9	103.1	93.53	86.17	89.51	92.47	65.21	46.84	40.99	37.96	38.00	46.81	89.33	165.6	731.7	4488	9999.9	9999.9	1681	75.00	26.60	17.94	13.92	12.17	9.686	9.023	8.114	7.541	7.376	7.030	6.043	5.869	5.335	5.147	4.851	4.545	4.362	4.118	4.082	3.781	3.672	3.592	3.202	3.150	3.219	3.285	3.083	2.967	3.175
450.0	2626	5665	906.8	319.5	306.7	310.5	310.5	310.1	308.0	301.3	285.4	257.5	229.7	203.8	181.8	163.4	154.2	145.1	140.2	137.3	131.4	128.9	128.3	125.5	122.4	117.5	113.7	108.9	105.7	101.2	92.53	82.32	76.79	82.44	78.46	54.98	42.40	37.61	35.69	36.03	45.97	64.45	195.1	1048	4998	9999.9	9999.9	7754	112.7	26.71	18.02	15.17	12.10	10.06	8.694	8.228	7.727	7.172	6.480	6.201	5.759	5.285	4.917	4.999	4.548	4.166	4.073	3.942	3.891	3.850	3.517	3.336	3.346	3.325	3.284	3.049	3.252
455.0	964.8	6975	5222	435.5	292.6	293.0	298.2	294.4	292.2	284.6	269.8	246.5	218.9	191.9	169.1	152.0	142.1	134.1	129.8	126.0	121.2	120.4	117.8	115.0	113.0	109.4	107.4	103.5	98.87	95.47	88.88	78.83	71.37	66.73	71.84	68.78	47.81	37.13	33.87	31.97	32.60	38.25	68.75	261.5	1148	2525	9999.9	9999.9	9999.9	133.2	24.66	18.73	15.12	12.05	9.640	8.799	8.186	7.409	7.196	6.477	6.002	5.534	5.118	5.066	4.442	4.264	4.205	4.003	3.877	3.700	3.673	3.602	3.338	3.139	3.312	3.130	3.313
460.0	448.7	4764	9460	859.9	289.7	281.6	284.7	282.1	278.9	269.4	259.4	237.9	208.1	186.0	161.9	144.3	134.6	128.6	121.5	118.1	115.0	111.8	110.1	107.1	104.4	104.3	102.0	99.36	95.64	93.34	84.69	78.00	68.20	60.84	60.84	68.30	55.80	39.08	34.11	31.00	29.64	30.80	38.42	83.52	283.8	601.0	2923	9999.9	9999.9	8682	95.68	25.70	17.73	14.38	11.66	10.04	8.612	7.912	7.193	6.645	6.122	5.721	5.321	4.981	4.784	4.501	4.158	3.999	3.829	3.640	3.740	3.655	3.191	3.001	3.118	3.213	3.173
465.0	318.5	2061	9999.9	4450	307.5	268.2	261.2	272.5	269.4	265.8	247.0	227.5	202.3	176.1	154.6	138.3	129.0	119.1	115.7	109.7	107.3	105.5	102.4	102.0	99.98	99.56	94.52	94.66	90.56	87.08	82.05	75.26	66.24	59.24	53.43	58.45	61.07	44.39	33.81	30.93	29.16	27.96	30.04	40.91	87.20	163.9	692.2	4141	9999.9	9999.9	1361	66.69	23.54	17.70	13.87	12.00	10.24	8.643	7.967	6.981	6.551	5.881	5.459	5.397	5.181	4.479	4.301	4.355	3.913	3.615	3.731	3.650	3.261	3.014	3.027	3.209	3.047
470.0	305.9	693.7	6665	9999.9	1633	256.9	246.4	253.2	252.8	247.1	232.2	213.6	191.0	164.7	143.6	125.2	117.9	110.8	106.0	100.2	98.74	95.21	93.32	92.06	91.32	90.08	87.29	85.65	84.07	81.43	76.86	69.53	62.63	55.39	49.90	47.47	52.36	50.08	37.23	30.19	27.37	26.40	26.26	29.14	40.62	59.65	179.7	961.7	4586	9999.9	9999.9	7262	108.5	25.11	17.43	14.34	12.13	10.20	8.535	7.750	6.872	6.367	5.781	5.465	5.270	4.567	4.397	4.083	3.991	3.823	3.589	3.477	3.488	3.200	2.996	3.205	3.063
475.0	303.3	355.2	2003	9999.9	7513	371.3	234.8	228.7	232.9	223.6	216.4	197.1	176.2	150.2	130.7	113.9	107.2	101.5	93.94	90.77	88.41	85.69	83.37	82.97	81.83	79.60	78.09	77.22	76.17	75.21	69.89	64.25	57.57	52.10	45.87	42.36	39.91	44.66	42.39	30.87	25.72	23.62	23.10	22.72	26.15	31.38	59.02	235.0	1046	2407	9999.9	9999.9	9999.9	149.1	23.01	16.19	13.24	11.13	9.228	7.737	6.962	6.382	5.833	5.070	4.668	4.292	4.180	4.090	3.729	3.537	3.358	3.164	3.278	3.000	2.858	2.706	2.808
480.0	272.3	270.9	638.3	7501	9999.9	1440	228.1	222.6	216.3	210.0	207.7	184.0	165.3	140.5	122.5	108.3	98.66	93.99	88.59	84.57	81.14	79.15	76.96	76.02	75.28	73.18	73.42	72.37	71.27	70.93	64.90	60.14	54.34	48.95	43.23	40.35	35.90	36.74	41.95	34.99	25.35	22.31	21.98	20.89	21.02	23.08	29.38	69.99	252.1	560.3	2643	9999.9	9999.9	9362	31.82	21.29	15.97	12.62	10.38	8.567	7.537	6.362	6.088	5.318	4.877	4.530	4.170	4.136	3.663	3.486	3.465	3.215	3.161	2.942	2.808	2.949	2.848
485.0	261.4	283.1	329.5	3182	9999.9	3945	242.1	212.9	209.3	199.1	193.4	178.5	159.8	135.7	117.6	103.2	94.08	88.59	82.75	78.60	76.44	75.09	73.58	72.45	70.87	69.83	68.45	68.52	65.98	66.46	62.95	58.27	52.30	46.96	42.08	38.33	34.90	32.87	36.15	38.60	28.17	21.97	20.74	20.28	19.49	20.03	21.00	31.44	72.77	142.9	614.5	3380	9999.9	9999.9	1577	30.56	20.55	14.92	11.47	9.750	8.065	7.116	6.219	5.753	5.143	4.867	4.433	4.124	3.662	3.518	3.515	3.167	3.090	2.855	2.949	2.723	2.918
490.0	225.4	284.4	249.8	929.3	8633	9999.9	1380	208.8	198.7	191.3	186.3	169.0	149.2	129.2	110.3	97.65	87.18	82.91	76.86	72.83	71.14	68.15	67.21	66.32	64.79	64.27	63.04	62.45	61.75	61.33	57.85	54.48	49.14	44.53	39.80	36.29	32.58	30.07	29.84	33.50	32.72	24.71	20.31	19.40	18.83	18.53	18.14	20.63	29.66	45.88	152.9	779.1	3774	9999.9	9999.9	6928	118.2	22.17	14.89	11.85	9.496	8.005	6.870	6.290	5.382	4.931	4.570	4.357	3.881	3.498	3.502	3.237	3.205	3.070	2.908	2.768	2.853
495.0	197.6	250.0	256.5	357.4	2722	9999.9	7734	269.1	188.4	179.4	173.8	157.9	136.5	119.8	100.8	90.76	81.29	75.07	71.50	67.47	64.62	61.52	61.14	61.45	58.43	58.51	56.62	55.84	57.27	55.11	53.22	48.76	45.81	41.40	37.44	34.12	30.57	28.16	26.43	26.38	29.77	28.39	22.40	18.49	17.97	17.50	16.54	16.96	18.69	22.01	46.40	188.4	860.3	2363	9999.9	9999.9	9999.9	162.4	22.17	14.59	11.19	9.848	7.863	6.562	5.784	5.302	4.624	4.232	3.929	3.747	3.461	3.345	3.176	3.059	2.806	2.646	2.630
500.0	189.1	212.3	259.0	221.7	774.6	9498	9999.9	1125	177.5	168.9	165.2	150.1	127.3	110.9	95.78	84.87	76.87	69.74	65.65	61.57	59.67	58.03	56.51	55.14	54.61	53.26	52.27	51.66	53.00	50.66	49.46	46.65	42.39	38.86	35.87	31.32	29.18	26.74	24.37	23.43	24.34	28.11	24.73	18.08	16.96	16.27	15.76	15.10	15.41	15.29	21.02	54.45	206.9	547.8	2656	9999.9	9999.9	9992	33.59	19.04	13.17	10.45	8.733	7.258	6.217	5.536	4.594	4.419	4.092	3.842	3.335	3.181	2.989	2.896	2.775	2.691	2.749
505.0	172.9	179.8	241.9	199.7	304.4	4320	9999.9	2827	185.4	161.9	157.3	141.0	121.8	103.7	91.58	78.37	71.41	65.26	61.40	58.77	55.44	52.53	52.21	51.82	50.25	48.35	48.98	49.27	49.50	47.24	46.36	42.85	39.36	36.19	33.37	30.19	28.04	25.15	23.40	22.05	20.87	24.30	26.01	19.69	16.54	15.53	14.77	14.35	13.90	12.98	14.19	23.37	58.38	137.7	616.3	3221	9999.9	9999.9	1768	30.66	16.74	12.10	9.704	7.679	6.550	5.356	4.753	4.366	3.981	3.938	3.665	3.215	2.925	2.967	2.711	2.781	2.571
510.0	169.2	158.9	207.8	217.5	187.8	1188	9999.9	9999.9	1052	154.4	146.6	129.6	112.6	95.14	83.08	71.22	63.59	59.69	54.64	52.70	50.02	47.90	46.49	46.35	45.02	43.87	44.14	43.60	44.10	43.13	41.85	38.74	35.53	32.27	30.49	27.67	25.33	23.20	21.54	20.04	18.79	19.75	22.91	21.95	17.96	14.67	13.78	13.13	12.72	11.76	11.98	14.59	23.29	42.33	151.7	739.6	3376	9999.9	9999.9	7994	121.9	18.15	11.60	9.000	7.312	6.092	5.081	4.565	4.035	3.766	3.482	3.113	2.947	2.892	2.486	2.588	2.445
515.0	161.6	129.6	153.9	211.6	170.1	369.0	3267	9999.9	7807	202.1	135.8	115.9	102.1	87.87	75.34	64.83	58.26	52.11	50.10	46.25	44.17	42.80	41.87	40.57	39.80	39.17	38.07	38.62	39.14	37.92	36.63	34.33	31.72	29.00	26.70	24.98	22.81	21.15	19.98	18.07	17.53	16.60	17.34	20.66	20.02	14.91	12.71	12.30	11.18	10.41	10.49	11.50	13.60	18.86	44.24	177.2	768.5	2309	9308	9999.9	9999.9	174.8	17.26	11.36	8.229	6.669	5.575	5.082	4.193	3.840	3.578	3.109	2.996	2.790	2.657	2.521	2.458
520.0	140.9	126.6	129.3	186.0	185.3	184.7	880.0	9999.9	9999.9	983.9	128.9	111.1	96.48	81.89	69.91	61.17	53.98	49.17	46.31	44.09	41.51	38.51	37.63	36.51	37.03	35.64	35.48	35.74	34.94	35.83	32.82	31.67	28.04	27.84	24.38	22.74	21.27	19.64	18.24	16.79	16.18	15.30	14.70	16.80	19.44	16.41	12.35	11.07	10.33	9.668	9.598	10.34	10.97	12.45	19.05	49.86	183.8	532.3	2282	9999.9	9999.9	9958	32.82	15.36	10.22	7.845	6.399	5.256	4.582	3.887	3.542	3.245	2.926	2.873	2.562	2.436	2.525
525.0	134.6	120.9	115.1	159.2	193.0	148.9	298.5	5125	9999.9	4679	134.6	106.3	91.91	76.92	65.53	56.20	51.21	45.06	41.88	38.95	38.02	35.65	34.53	34.03	34.17	32.41	32.36	32.29	31.66	32.15	30.55	28.12	27.02	25.54	22.63	21.39	19.50	18.20	17.24	15.52	14.49	14.16	13.53	14.14	17.41	17.14	13.38	10.94	9.913	8.847	8.981	9.342	9.919	10.15	12.37	20.22	51.42	131.3	527.0	2707	9999.9	9999.9	1856	29.01	13.35	8.920	7.181	5.901	4.993	4.076	3.750	3.398	2.940	2.913	2.593	2.412	2.510
530.0	127.2	120.0	112.1	120.0	177.2	151.4	155.8	1383	9999.9	9999.9	851.0	105.7	87.75	71.65	60.77	52.62	46.85	40.82	37.81	35.67	34.00	31.95	31.69	30.31	29.65	29.23	28.62	28.15	28.29	28.04	27.53	25.47	24.17	22.29	20.63	19.28	17.45	16.53	15.77	14.35	13.37	12.77	12.31	11.95	13.03	15.30	14.36	11.34	9.000	8.371	8.221	8.257	8.757	9.096	9.742	11.99	19.91	38.76	128.8	618.9	2757	9821	9999.9	8164	129.5	15.08	8.923	6.821	5.506	4.526	4.038	3.506	3.022	2.905	2.477	2.522	2.395
535.0	127.5	117.3	99.98	96.67	131.2	169.3	119.7	389.8	3491	9999.9	8299	138.0	84.66	67.05	54.96	47.32	41.70	37.92	35.37	32.31	30.29	29.03	27.94	26.57	26.04	26.08	26.04	25.05	25.04	24.84	23.76	23.12	21.38	19.58	18.15	16.64	15.87	14.49	13.79	12.44	12.09	11.70	10.85	10.60	10.89	11.91	12.97	11.82	8.940	7.833	7.085	7.454	7.308	7.906	8.222	9.117	10.92	16.13	36.92	147.1	625.8	2220	5386	9999.9	9999.9	196.3	14.55	8.603	6.534	5.300	4.659	3.876	3.375	2.909	2.764	2.582	2.392
540.0	118.6	107.5	90.71	83.89	99.10	165.0	115.8	164.9	919.0	9999.9	9999.9	739.6	83.06	63.12	52.99	43.79	37.89	34.43	32.18	29.45	27.79	26.64	24.86	24.44	23.98	23.17	23.23	22.46	22.81	21.91	21.99	20.79	19.15	18.13	16.32	15.23	14.06	13.40	12.24	11.72	11.14	10.91	10.22	9.952	9.570	9.863	11.02	12.26	9.075	7.196	6.603	6.794	6.867	7.006	7.429	8.143	8.442	9.709	15.36	40.46	148.2	506.4	1264	7177	9999.9	9999.9	33.32	12.33	7.497	5.987	5.131	4.119	3.495	3.027	2.713	2.578	2.310
545.0	120.6	99.22	89.06	81.70	79.68	133.5	133.8	105.2	282.3	5057	9999.9	4138	89.06	64.03	50.93	40.23	35.68	33.11	29.24	27.98	25.57	24.13	23.06	22.11	22.17	20.95	20.73	20.12	20.07	20.51	19.84	18.28	17.79	16.41	15.45	13.81	12.98	12.55	11.18	10.63	10.33	9.642	9.531	8.784	9.169	8.818	8.895	10.85	9.655	7.472	6.484	6.224	6.124	6.710	6.925	7.340	7.557	7.826	9.278	15.56	40.51	121.7	294.0	1743	9214	9999.9	1967	29.40	10.41	6.880	5.174	4.399	3.498	3.199	2.740	2.672	2.501
550.0	118.9	92.27	79.14	68.34	66.98	94.56	140.7	93.70	129.2	1326	9999.9	9999.9	620.7	63.38	48.48	38.19	32.15	29.59	26.11	24.08	22.12	21.41	20.51	19.96	19.31	18.22	18.19	18.12	17.82	17.76	16.90	15.79	15.12	13.71	13.66	12.07	11.44	10.86	10.26	9.579	9.004	8.645	8.324	7.800	8.067	7.594	7.477	8.233	8.826	8.091	6.425	5.790	5.480	5.721	5.972	6.195	6.721	7.078	7.281	8.882	14.77	33.59	73.08	398.3	2221	7000	9999.9	8189	139.0	13.45	6.934	5.077	4.089	3.553	3.114	2.550	2.380
555.0	99.78	81.55	68.97	65.29	57.02	66.89	118.5	113.3	83.23	355.9	3134	9999.9	6884	86.92	45.95	37.44	30.00	26.46	23.55	22.15	19.26	18.73	17.71	16.86	16.54	15.75	15.82	15.31	15.04	15.46	14.31	14.04	13.44	11.92	11.44	10.46	9.940	8.934	8.908	8.396	7.963	7.183	6.912	6.990	6.678	6.726	6.538	6.510	6.869	7.740	6.778	5.616	4.885	4.995	5.180	5.462	5.885	6.497	6.317	6.402	7.741	12.60	21.96	94.73	501.8	1572	3476	9999.9	9999.9	228.8	11.96	6.252	4.536	3.970	3.214	2.926	2.455
560.0	100.5	73.44	66.09	56.60	53.68	54.07	85.09	123.2	70.91	131.6	798.6	9999.9	9999.9	493.9	47.23	36.18	29.46	25.21	21.24	20.49	17.76	17.13	16.49	15.17	15.11	14.29	13.91	13.67	13.66	13.49	12.38	12.82	11.50	10.76	10.18	9.195	8.934	8.068	7.820	7.774	6.894	6.576	6.460	6.695	6.144	5.994	6.051	6.016	5.556	6.508	6.723	5.678	4.601	4.785	4.518	4.838	5.091	5.418	5.934	5.626	5.983	7.008	9.630	26.09	117.3	357.4	796.4	4206	9999.9	8535	34.93	8.811	5.878	3.966	3.275	2.916	2.430
565.0	98.93	80.26	60.98	53.29	50.29	46.86	62.44	121.7	73.58	77.07	234.0	4570	9999.9	3156	50.56	35.68	27.47	23.10	20.42	19.58	17.37	15.83	14.84	13.92	13.24	13.08	12.23	12.13	12.14	12.30	10.96	11.12	10.31	9.844	9.099	8.245	7.906	7.237	7.075	6.826	6.258	6.078	5.731	6.005	5.835	5.259	5.372	5.355	4.754	4.924	6.060	5.620	4.541	4.433	4.137	4.251	4.600	4.680	5.124	5.385	5.238	5.250	6.072	10.06	30.71	85.02	185.0	976.4	5010	9999.9	2066	30.94	7.575	4.741	3.820	3.154	2.542
570.0	92.07	72.90	58.16	48.32	41.80	43.42	47.77	88.87	98.87	58.28	95.96	1179	9999.9	9999.9	422.4	36.24	26.96	21.77	19.04	17.10	15.46	14.39	13.48	12.51	11.51	11.41	10.87	10.77	10.64	10.74	10.26	9.626	9.129	8.411	7.906	7.461	7.041	6.654	6.105	6.115	5.703	5.567	5.040	5.281	4.947	4.670	4.597	4.616	4.191	4.175	4.632	5.143	4.643	4.144	3.810	3.875	4.079	4.246	4.147	4.643	4.760	4.496	4.549	5.672	10.66	23.03	46.04	223.5	1160	4249	8834	5935	736.7	12.07	4.583	3.563	2.785
575.0	101.0	68.42	53.77	46.91	37.37	36.49	39.34	54.28	103.5	59.95	59.11	308.7	3051	9999.9	5105	50.23	28.08	21.43	18.21	15.12	14.12	12.99	12.23	11.08	10.72	10.47	9.558	9.666	9.743	9.518	9.081	8.533	8.079	7.268	6.776	6.840	6.290	6.079	5.730	5.184	4.828	4.849	4.644	4.548	4.465	4.268	4.087	3.971	3.719	3.594	3.598	4.209	4.526	3.975	3.745	3.463	3.628	3.478	3.669	3.867	4.078	4.364	4.071	4.171	5.777	8.329	13.88	54.08	262.7	952.3	2365	7598	8128	245.0	10.64	4.383	3.151
580.0	89.84	67.12	50.76	44.74	38.75	33.57	33.71	39.00	88.02	76.06	49.20	109.1	773.7	9999.9	9999.9	110.0	29.85	21.27	17.60	14.97	13.24	12.44	11.44	10.30	10.25	8.877	9.053	8.479	8.693	8.597	8.635	8.282	7.415	6.836	6.549	5.977	5.517	5.272	5.191	4.928	4.687	4.438	4.391	4.090	4.071	3.954	3.721	3.694	3.268	3.294	3.204	3.706	4.055	4.099	3.825	3.489	3.423	3.108	3.409	3.519	3.663	3.971	4.079	3.866	3.877	4.597	6.132	15.39	62.11	216.5	535.2	2430	8831	6020	195.8	6.277	3.986
585.0	87.59	64.83	49.59	42.20	35.73	32.20	29.54	32.49	64.97	90.74	46.02	59.19	212.6	4347	9999.9	805.7	32.14	22.54	17.66	15.00	12.93	11.36	10.67	9.617	9.634	8.613	8.755	8.161	7.997	7.982	7.536	7.232	6.923	6.458	6.237	5.601	5.160	5.066	4.763	4.651	4.446	4.291	4.048	3.947	4.005	3.732	3.585	3.386	3.194	3.051	2.925	3.338	3.386	4.013	3.764	3.411	3.245	3.028	3.099	3.093	3.209	3.426	3.649	3.652	3.591	3.672	4.063	6.206	17.05	51.74	123.6	554.6	3214	8654	2119	31.67	5.265
590.0	83.23	62.65	45.36	38.50	32.44	30.42	27.63	29.40	40.28	84.41	56.31	43.23	80.20	1111	9999.9	9999.9	253.6	24.30	18.02	14.44	12.17	11.57	10.29	9.315	8.817	8.014	7.728	7.508	7.304	7.424	6.827	6.463	6.155	5.875	5.461	5.037	4.740	4.500	4.468	4.137	4.044	4.036	3.758	3.518	3.633	3.509	3.430	3.121	3.025	2.732	2.837	2.683	2.919	3.339	3.641	3.424	2.986	2.840	2.927	2.777	2.765	2.944	2.946	3.332	3.205	3.010	3.246	3.614	6.522	14.31	30.53	127.3	732.1	2924	5360	4018	151.3
595.0	74.14	59.63	49.29	35.33	28.31	26.53	26.37	27.31	29.76	57.59	76.35	37.15	46.88	276.9	2957	9999.9	3056	31.08	18.89	15.68	12.31	10.46	9.248	8.998	8.262	7.564	7.187	7.232	6.397	6.513	6.467	5.785	5.491	5.114	4.879	4.737	4.481	4.232	4.182	4.185	3.707	3.442	3.439	3.180	3.455	3.213	3.152	2.914	2.862	2.525	2.525	2.567	2.650	2.703	3.133	3.296	3.126	2.711	2.627	2.463	2.450	2.543	2.536	2.753	2.757	2.979	2.729	2.811	3.555	5.277	9.144	30.91	166.1	654.2	1376	4406	5065
600.0	69.42	59.21	44.88	30.89	29.53	23.60	23.76	23.85	26.04	38.93	76.60	40.27	36.33	88.47	736.3	9999.9	9634	77.66	19.70	14.93	12.10	10.40	9.275	9.076	7.920	7.356	6.715	7.013	6.592	5.989	6.395	5.426	5.064	5.051	4.759	4.633	4.188	4.076	3.625	3.870	3.367	3.258	3.076	3.231	3.210	3.084	3.035	2.868	2.627	2.448	2.312	2.456	2.360	2.485	2.728	2.876	3.197	2.719	2.521	2.533	2.318	2.537	2.252	2.439	2.568	2.894	2.709	2.543	2.630	3.267	4.101	9.026	39.49	148.4	311.2	1346	5153
605.0	73.07	55.46	45.44	31.79	25.92	21.59	21.89	24.26	23.80	29.19	66.79	50.48	31.45	43.64	192.7	4213	9999.9	584.3	22.88	15.81	12.79	10.48	9.127	8.088	7.575	7.099	6.732	6.461	6.241	5.953	5.813	5.444	5.054	4.730	4.535	4.334	4.119	3.707	3.546	3.423	3.261	3.241	3.114	3.126	3.038	2.965	2.831	2.669	2.428	2.233	2.148	2.231	2.280	2.245	2.511	2.567	2.923	2.718	2.399	2.447	2.232	2.382	2.176	2.244	2.202	2.462	2.588	2.198	2.380	2.423	2.679	3.955	10.93	35.40	72.12	306.7	1795
610.0	70.40	57.01	40.84	32.57	26.77	22.89	21.18	23.68	23.49	26.46	46.90	64.89	34.11	31.40	65.94	1072	9549	7235	58.87	17.57	13.12	10.86	9.534	8.200	7.419	6.881	6.380	6.161	5.765	5.776	5.557	5.076	4.839	4.425	4.125	3.917	3.869	3.518	3.445	3.329	3.036	3.022	2.933	2.852	2.713	2.687	2.712	2.540	2.385	2.166	2.014	2.087	2.140	1.956	2.131	2.280	2.742	2.602	2.287	2.196	2.201	2.133	2.015	1.940	2.076	2.094	2.258	2.268	2.221	2.094	2.175	2.377	4.061	9.679	18.16	70.77	408.0
615.0	67.26	55.86	40.79	28.11	21.90	20.60	21.22	23.55	22.27	24.69	32.08	60.64	40.58	27.73	34.17	260.6	2869	9999.9	1840	21.85	13.93	11.39	9.598	7.962	7.102	6.696	6.484	6.075	5.536	5.521	5.230	5.082	4.577	4.214	3.685	3.648	3.396	3.420	3.131	3.043	2.900	2.858	2.866	2.778	2.639	2.598	2.512	2.465	2.262	2.098	1.984	1.972	1.975	1.896	1.953	2.084	2.103	2.405	2.327	2.324	2.129	2.104	2.030	1.945	1.957	1.942	1.887	2.115	2.000	1.868	1.807	2.002	2.348	3.738	5.667	17.58	92.72
620.0	66.47	55.78	39.49	28.71	23.65	20.07	20.59	21.13	20.27	22.55	27.44	46.65	49.67	25.08	24.31	77.04	714.5	9060	4960	52.98	14.59	11.37	10.12	7.810	7.317	6.216	6.396	5.955	5.508	5.446	5.256	5.022	4.469	4.149	3.619	3.610	3.328	3.264	3.032	3.093	2.565	2.703	2.586	2.589	2.728	2.673	2.380	2.436	2.350	2.105	1.858	1.909	1.899	1.759	1.881	1.914	1.997	2.260	2.240	2.262	1.868	1.958	1.865	1.765	1.842	1.663	1.821	1.737	2.044	1.873	1.759	1.857	1.905	2.146	2.564	5.427	22.23
625.0	64.68	50.09	34.90	25.19	21.67	19.70	19.37	19.81	20.56	20.97	25.17	35.80	55.60	27.40	22.53	33.97	182.0	3980	9999.9	408.4	17.43	12.01	10.25	8.213	7.162	6.500	6.013	5.844	5.682	5.166	5.090	4.565	4.248	3.861	3.700	3.688	3.340	3.063	2.957	3.066	2.551	2.660	2.710	2.376	2.577	2.609	2.375	2.410	2.237	2.095	1.883	1.848	1.916	1.772	1.939	1.870	1.810	2.035	2.048	2.158	1.886	1.987	1.735	1.773	1.667	1.714	1.637	1.652	1.753	1.865	1.629	1.686	1.699	1.732	1.849	2.538	6.356
630.0	68.16	49.72	38.38	26.65	22.18	19.80	18.29	19.07	19.11	20.62	22.74	27.51	47.24	34.45	20.40	22.16	56.79	1021	8658	5209	44.32	13.93	10.57	8.606	7.260	6.613	5.695	5.405	5.401	4.970	4.686	4.509	4.144	3.967	3.580	3.453	3.092	2.973	2.918	2.762	2.614	2.441	2.496	2.511	2.408	2.445	2.312	2.280	2.150	1.887	1.871	1.735	1.717	1.751	1.773	1.869	1.800	1.830	1.911	1.946	1.833	1.868	1.689	1.616	1.789	1.584	1.513	1.619	1.485	1.572	1.633	1.547	1.549	1.462	1.515	1.786	2.687
635.0	62.60	50.97	37.73	25.08	21.32	20.11	16.74	19.30	19.12	19.49	21.97	24.26	31.95	42.30	20.33	17.89	26.84	244.8	2729	9999.9	498.4	17.33	11.35	9.275	7.152	6.778	5.710	5.219	5.336	4.970	4.359	4.380	4.297	3.860	3.788	3.280	3.103	2.849	2.793	2.686	2.553	2.596	2.324	2.338	2.431	2.464	2.189	2.198	1.999	1.915	1.789	1.686	1.589	1.779	1.650	1.771	1.767	1.743	1.746	1.670	1.720	1.629	1.710	1.568	1.598	1.564	1.617	1.445	1.475	1.337	1.527	1.558	1.465	1.501	1.391	1.377	1.698
640.0	60.20	50.55	33.26	25.65	20.57	19.20	15.51	18.33	17.68	19.12	21.86	23.44	26.43	40.76	24.00	16.00	18.99	69.95	687.4	8470	3699	36.58	12.15	9.568	7.738	6.820	6.122	5.503	5.396	4.893	4.362	4.141	4.006	4.101	3.687	3.286	3.053	3.097	2.635	2.494	2.474	2.459	2.358	2.280	2.434	2.230	2.090	2.150	1.892	1.843	1.645	1.753	1.641	1.549	1.663	1.631	1.804	1.607	1.709	1.604	1.666	1.573	1.545	1.567	1.486	1.515	1.547	1.365	1.370	1.315	1.288	1.432	1.381	1.370	1.272	1.232	1.403
645.0	59.56	51.07	34.24	24.25	22.23	19.16	16.75	17.41	17.31	17.97	21.62	23.49	24.77	35.04	28.85	15.26	15.60	27.79	171.1	3997	8329	283.0	14.03	10.14	8.153	6.912	6.049	5.459	5.255	4.908	4.237	4.319	4.231	3.935	3.734	3.249	3.110	2.957	2.658	2.640	2.398	2.526	2.310	2.332	2.290	2.200	2.222	2.076	2.020	1.862	1.626	1.695	1.765	1.620	1.662	1.651	1.746	1.656	1.719	1.546	1.514	1.650	1.609	1.461	1.484	1.424	1.407	1.363	1.261	1.332	1.244	1.388	1.450	1.336	1.334	1.246	1.388
650.0	62.09	53.48	40.67	24.85	21.35	19.17	17.27	17.22	16.83	17.80	22.16	22.07	22.02	27.51	31.24	15.89	14.12	17.43	51.23	1189	9217	1930	17.67	10.69	8.540	7.271	6.078	5.552	5.201	4.831	4.640	4.401	3.875	3.941	3.679	3.187	3.116	2.891	2.689	2.723	2.556	2.536	2.287	2.227	2.149	2.333	2.065	2.125	1.911	1.821	1.640	1.660	1.560	1.624	1.684	1.617	1.692	1.736	1.619	1.628	1.496	1.510	1.548	1.392	1.564	1.294	1.342	1.232	1.163	1.243	1.270	1.370	1.398	1.354	1.443	1.219	1.286
