Sample:	'1
File name:	T2025032004º«µêºÓ4.FD3
Run date:	'09:41:21, 03/21/2025
Operator:	Administrator
Comment:	'

Instrument
Model:	F-2700 FL Spectrophotometer
Serial number:	23B8-004
ROM Version:	4J14000 07

Instrument parameters
Measurement type:	3-D scan
Data mode:	Fluorescence
EX  Start WL:	220.0 nm
EX  End WL:	600.0 nm
EX Sampling interval:	5.0 nm
EM  Start WL:	230.0 nm
EM  End WL:	650.0 nm
EM Sampling interval:	5.0 nm
Scan speed:	12000 nm/min
EX Slit:	5.0 nm
EM Slit:	5.0 nm
PMT Voltage:	700 V
Response:	Auto 
Corrected spectra:	Off
Contour interval:	50.000

Peak integration
Integration method:	Rectangular
Sensitivity:	1
Threshold:	1.000

Peaks
No.	ApexEX/EM(nm)	Height(Data)
1	225.0/490.0	260.4
2	225.0/625.0	19.22
3	225.0/635.0	26.03
4	230.0/250.0	297.0
5	230.0/345.0	1086
6	230.0/500.0	231.0
7	235.0/255.0	363.2
8	235.0/515.0	192.6
9	240.0/265.0	439.7
10	240.0/525.0	168.1
11	245.0/270.0	431.8
12	245.0/440.0	231.6
13	245.0/535.0	156.9
14	250.0/275.0	546.9
15	250.0/550.0	133.5
16	255.0/280.0	620.2
17	255.0/450.0	226.6
18	255.0/560.0	122.4
19	260.0/290.0	563.3
20	260.0/575.0	108.8
21	265.0/585.0	93.66
22	270.0/300.0	861.9
23	270.0/600.0	78.83
24	275.0/305.0	879.4
25	275.0/610.0	64.65
26	280.0/310.0	751.2
27	280.0/625.0	55.53
28	285.0/315.0	740.9
29	285.0/635.0	41.90
30	290.0/325.0	690.1
31	295.0/330.0	524.9
32	300.0/335.0	468.7
33	305.0/340.0	366.7
34	310.0/350.0	274.7
35	315.0/355.0	253.7
36	320.0/360.0	242.0
37	325.0/370.0	198.7
38	330.0/375.0	195.6
39	335.0/380.0	201.3
40	345.0/395.0	153.3
41	350.0/400.0	162.6
42	355.0/405.0	144.4
43	360.0/415.0	123.0
44	365.0/420.0	126.9
45	370.0/425.0	112.8
46	380.0/440.0	89.56
47	385.0/445.0	78.75
48	395.0/460.0	56.26
49	400.0/465.0	49.46
50	410.0/480.0	34.21
51	415.0/485.0	30.47
52	425.0/500.0	22.14
53	430.0/505.0	19.49
54	435.0/510.0	16.40
55	440.0/520.0	14.26
56	445.0/525.0	12.07
57	455.0/540.0	8.283
58	460.0/340.0	3.001
59	460.0/545.0	6.832
60	465.0/335.0	3.021
61	470.0/560.0	3.969
62	475.0/260.0	1.982
63	485.0/265.0	2.092
64	495.0/270.0	2.027
65	505.0/275.0	3.483
66	520.0/285.0	4.162
67	530.0/290.0	3.468
68	540.0/295.0	4.627
69	545.0/300.0	4.764
70	550.0/305.0	4.674
71	560.0/310.0	3.947
72	575.0/315.0	4.439
73	580.0/320.0	4.416
74	585.0/325.0	4.081

Data points
	220.0	225.0	230.0	235.0	240.0	245.0	250.0	255.0	260.0	265.0	270.0	275.0	280.0	285.0	290.0	295.0	300.0	305.0	310.0	315.0	320.0	325.0	330.0	335.0	340.0	345.0	350.0	355.0	360.0	365.0	370.0	375.0	380.0	385.0	390.0	395.0	400.0	405.0	410.0	415.0	420.0	425.0	430.0	435.0	440.0	445.0	450.0	455.0	460.0	465.0	470.0	475.0	480.0	485.0	490.0	495.0	500.0	505.0	510.0	515.0	520.0	525.0	530.0	535.0	540.0	545.0	550.0	555.0	560.0	565.0	570.0	575.0	580.0	585.0	590.0	595.0	600.0
230.0	68.67	816.3	1614	413.2	11.95	2.254	1.845	1.578	1.216	1.156	1.127	1.052	0.803	0.796	0.633	0.590	0.442	0.410	0.357	0.309	0.284	0.266	0.250	0.213	0.225	0.228	0.175	0.178	0.163	0.170	0.154	0.156	0.153	0.146	0.130	0.138	0.155	0.148	0.118	0.161	0.412	0.781	0.587	0.264	0.128	0.147	1.077	4.239	5.531	3.484	1.074	0.172	0.082	0.063	0.078	0.071	0.077	0.060	0.062	0.062	0.075	0.064	0.084	0.068	0.052	0.069	0.068	0.074	0.072	0.068	0.068	0.063	0.057	0.065	0.051	0.061	0.063
235.0	180.3	244.8	1017	1427	397.7	15.66	2.021	2.202	1.566	1.805	1.014	1.182	0.674	0.847	0.695	0.564	0.502	0.501	0.322	0.299	0.293	0.290	0.276	0.193	0.251	0.214	0.214	0.204	0.235	0.215	0.110	0.132	0.148	0.184	0.111	0.128	0.171	0.197	0.140	0.132	0.207	0.396	0.600	0.605	0.517	0.229	0.358	1.171	2.269	3.774	4.905	4.256	1.915	0.323	0.062	0.066	0.062	0.069	0.071	0.048	0.072	0.066	0.104	0.053	0.049	0.057	0.067	0.069	0.095	0.087	0.055	0.051	0.057	0.050	0.053	0.067	0.072
240.0	299.7	184.8	318.0	1292	1471	291.1	9.835	2.483	2.341	2.023	1.449	1.327	0.898	0.875	0.551	0.474	0.584	0.394	0.404	0.387	0.360	0.275	0.270	0.234	0.298	0.215	0.212	0.264	0.173	0.200	0.133	0.126	0.152	0.118	0.108	0.093	0.129	0.156	0.148	0.106	0.126	0.174	0.280	0.498	0.757	0.798	0.377	0.398	0.609	1.205	2.842	5.983	7.034	4.589	1.448	0.216	0.075	0.087	0.069	0.055	0.060	0.091	0.078	0.055	0.070	0.061	0.063	0.069	0.075	0.064	0.046	0.065	0.068	0.046	0.057	0.080	0.064
245.0	202.1	319.1	150.5	467.4	1682	1410	198.5	5.282	3.125	2.108	1.712	1.098	1.372	1.054	0.913	0.546	0.559	0.407	0.358	0.343	0.333	0.246	0.315	0.197	0.313	0.252	0.212	0.284	0.185	0.207	0.177	0.196	0.208	0.144	0.134	0.104	0.103	0.130	0.200	0.125	0.100	0.153	0.143	0.219	0.439	0.936	0.945	0.585	0.356	0.351	0.777	2.106	5.175	8.411	8.148	3.683	0.950	0.140	0.088	0.066	0.067	0.085	0.097	0.077	0.076	0.084	0.076	0.085	0.082	0.064	0.073	0.071	0.071	0.060	0.078	0.070	0.053
250.0	64.70	225.4	297.0	212.9	565.6	1501	1783	582.3	31.84	2.433	2.167	1.587	1.559	1.154	0.964	0.738	0.663	0.585	0.430	0.368	0.368	0.314	0.362	0.178	0.331	0.232	0.232	0.229	0.232	0.176	0.176	0.165	0.176	0.134	0.137	0.123	0.126	0.131	0.154	0.133	0.147	0.163	0.123	0.151	0.208	0.349	0.517	0.776	1.062	0.783	0.541	0.643	1.350	2.738	5.160	7.413	9.496	7.836	4.194	0.900	0.152	0.077	0.084	0.081	0.086	0.060	0.071	0.068	0.074	0.066	0.075	0.071	0.061	0.072	0.076	0.085	0.079
255.0	25.20	63.04	222.7	363.2	221.2	396.0	1482	2649	290.8	24.43	3.377	3.163	2.083	1.301	1.198	0.814	0.604	0.533	0.518	0.327	0.339	0.263	0.266	0.231	0.333	0.222	0.238	0.238	0.205	0.194	0.206	0.206	0.206	0.159	0.130	0.142	0.173	0.152	0.147	0.112	0.128	0.143	0.157	0.163	0.125	0.155	0.228	0.276	0.497	1.056	1.424	1.383	0.671	0.753	1.276	1.880	3.603	8.362	14.37	12.77	5.731	1.042	0.128	0.114	0.087	0.065	0.110	0.066	0.097	0.076	0.092	0.070	0.052	0.064	0.071	0.081	0.062
260.0	17.95	23.25	82.49	343.7	333.1	138.9	459.8	2305	2305	229.6	11.70	3.726	2.341	1.636	1.007	1.047	0.834	0.653	0.570	0.415	0.457	0.298	0.331	0.254	0.345	0.238	0.237	0.262	0.212	0.180	0.268	0.179	0.155	0.274	0.168	0.180	0.175	0.166	0.169	0.137	0.139	0.192	0.141	0.164	0.133	0.123	0.141	0.135	0.199	0.383	0.873	1.982	1.791	0.917	0.498	0.562	0.976	2.309	6.457	13.33	18.09	12.51	4.297	0.495	0.095	0.105	0.123	0.075	0.092	0.093	0.076	0.105	0.051	0.087	0.073	0.093	0.088
265.0	14.79	14.17	28.06	159.1	439.7	238.0	132.0	797.1	3272	1934	165.8	5.830	3.084	2.318	1.504	1.271	0.833	0.660	0.621	0.554	0.428	0.343	0.391	0.244	0.420	0.225	0.273	0.228	0.245	0.237	0.243	0.269	0.193	0.263	0.171	0.145	0.141	0.189	0.161	0.138	0.138	0.187	0.127	0.135	0.119	0.149	0.126	0.094	0.182	0.195	0.303	0.931	1.909	2.092	1.455	0.458	0.391	0.648	1.654	3.976	10.15	18.65	20.14	10.70	2.369	0.235	0.130	0.083	0.082	0.086	0.101	0.080	0.071	0.088	0.077	0.065	0.078
270.0	22.51	14.81	16.80	46.40	209.3	431.8	263.8	223.0	1076	2671	2923	652.2	27.75	3.268	2.460	1.666	1.049	0.958	0.753	0.634	0.445	0.425	0.437	0.384	0.380	0.246	0.278	0.302	0.288	0.330	0.241	0.276	0.256	0.244	0.195	0.232	0.198	0.234	0.170	0.138	0.235	0.178	0.161	0.171	0.147	0.140	0.122	0.141	0.126	0.134	0.155	0.292	0.670	1.175	1.870	2.027	1.689	0.843	0.603	1.029	2.552	5.530	10.29	15.70	18.31	15.95	8.556	1.949	0.250	0.121	0.111	0.082	0.083	0.098	0.091	0.090	0.098
275.0	67.28	35.05	24.95	22.70	58.77	190.4	546.9	297.1	279.5	688.2	2345	4630	841.7	21.06	3.370	2.319	1.466	1.095	1.025	0.808	0.696	0.544	0.564	0.482	0.405	0.300	0.326	0.309	0.233	0.297	0.280	0.281	0.279	0.265	0.387	0.354	0.283	0.349	0.262	0.261	0.269	0.189	0.255	0.231	0.280	0.223	0.202	0.177	0.147	0.104	0.164	0.185	0.277	0.361	0.601	1.010	2.372	3.483	2.191	0.741	0.828	1.379	2.550	3.824	5.613	12.38	23.21	24.26	11.82	2.081	0.208	0.129	0.109	0.102	0.106	0.137	0.083
280.0	110.5	64.41	37.15	23.25	27.12	63.30	338.4	620.2	211.8	203.2	693.1	3541	4255	138.5	9.924	2.845	2.063	1.372	1.259	0.785	0.640	0.815	0.556	0.456	0.464	0.313	0.392	0.293	0.213	0.333	0.315	0.301	0.342	0.355	0.540	0.490	0.498	0.437	0.404	0.302	0.354	0.282	0.355	0.358	0.359	0.326	0.270	0.282	0.183	0.147	0.170	0.157	0.169	0.175	0.274	0.375	0.842	2.230	3.261	3.302	1.530	0.654	0.797	1.171	1.557	3.322	8.078	18.26	27.17	22.33	8.034	1.014	0.167	0.128	0.142	0.094	0.107
285.0	159.8	102.5	50.89	31.39	20.72	31.37	123.3	551.4	531.2	142.6	219.1	1089	4156	3324	100.2	4.958	2.717	1.732	1.163	0.952	0.767	0.678	0.589	0.643	0.426	0.364	0.310	0.382	0.298	0.382	0.374	0.293	0.333	0.474	0.578	0.686	0.648	0.618	0.507	0.416	0.440	0.416	0.449	0.531	0.434	0.387	0.297	0.277	0.225	0.182	0.154	0.179	0.171	0.136	0.207	0.207	0.358	0.761	1.626	3.332	4.162	2.071	0.772	0.536	0.685	1.137	2.191	4.884	11.32	22.55	27.48	17.57	4.802	0.491	0.150	0.125	0.138
290.0	205.3	144.1	77.43	43.46	32.72	31.85	55.66	210.6	563.3	487.2	181.1	320.1	1212	3015	2425	404.4	18.87	2.640	2.002	1.297	0.977	0.763	0.656	0.659	0.526	0.485	0.328	0.376	0.325	0.303	0.325	0.287	0.434	0.481	0.737	0.827	0.934	0.821	0.590	0.593	0.518	0.511	0.481	0.612	0.549	0.535	0.403	0.407	0.311	0.274	0.189	0.213	0.214	0.206	0.216	0.227	0.240	0.384	0.591	1.182	2.245	3.113	3.468	2.333	1.273	0.736	0.841	1.418	2.950	5.927	10.66	16.28	19.95	19.30	11.31	4.176	0.537
295.0	240.1	176.6	113.6	68.44	46.40	47.11	54.50	96.80	220.1	607.6	628.3	203.3	342.5	748.8	1775	3763	554.6	15.19	2.692	1.768	1.276	0.918	0.694	0.738	0.505	0.546	0.421	0.429	0.382	0.413	0.360	0.341	0.343	0.652	0.830	0.810	1.007	0.826	0.611	0.544	0.585	0.595	0.505	0.675	0.679	0.601	0.426	0.466	0.439	0.333	0.248	0.296	0.261	0.252	0.249	0.227	0.295	0.326	0.419	0.563	0.804	1.143	1.770	3.517	4.627	2.523	1.023	0.910	1.137	1.635	2.764	4.010	5.281	9.390	19.39	26.87	16.79
300.0	246.1	194.6	140.4	92.87	70.40	61.82	72.68	91.77	134.2	339.0	861.9	448.4	183.6	243.7	509.4	2620	3332	83.65	6.590	2.378	1.452	1.223	0.810	0.779	0.618	0.625	0.454	0.425	0.392	0.374	0.301	0.348	0.347	0.571	0.832	0.838	0.968	0.824	0.717	0.615	0.616	0.669	0.561	0.621	0.606	0.743	0.476	0.577	0.518	0.365	0.324	0.337	0.385	0.352	0.308	0.322	0.377	0.372	0.382	0.570	0.519	0.632	0.899	1.629	3.431	4.764	3.515	1.673	0.948	0.900	1.177	1.319	1.641	2.478	5.864	14.50	25.43
305.0	271.8	258.3	192.1	120.1	92.95	88.85	104.0	122.5	151.0	236.4	612.5	879.4	313.1	177.1	211.4	801.1	3082	2576	63.78	3.671	1.952	1.486	1.073	0.720	0.788	0.610	0.491	0.445	0.593	0.363	0.332	0.358	0.389	0.630	0.786	0.875	0.981	0.892	0.681	0.738	0.760	0.674	0.719	0.767	0.706	0.730	0.625	0.669	0.628	0.486	0.463	0.495	0.462	0.463	0.498	0.416	0.593	0.580	0.509	0.628	0.745	0.704	0.978	1.215	1.692	3.041	4.674	4.257	2.413	1.226	1.078	0.982	1.098	1.236	1.938	3.858	8.737
310.0	322.5	305.3	235.1	164.9	123.7	116.1	134.6	161.0	177.9	236.3	366.2	674.3	751.2	345.4	184.1	276.2	919.3	2177	2311	289.5	14.21	2.234	1.537	1.074	0.808	0.791	0.660	0.578	0.510	0.393	0.439	0.378	0.452	0.604	0.720	0.773	0.893	0.789	0.693	0.693	0.764	0.749	0.716	0.845	0.803	0.772	0.716	0.849	0.759	0.638	0.494	0.548	0.557	0.523	0.585	0.524	0.642	0.621	0.688	0.758	0.877	0.756	1.030	1.184	1.287	1.754	2.346	3.379	3.947	3.568	2.740	1.561	1.052	1.028	1.139	1.474	2.635
315.0	394.8	386.5	303.2	211.6	158.1	138.1	162.5	186.6	199.1	252.6	318.3	421.5	619.2	740.9	289.3	177.6	298.8	553.5	1375	2705	419.9	10.72	2.152	1.429	1.094	0.946	0.749	0.652	0.548	0.389	0.412	0.360	0.494	0.530	0.701	0.733	0.874	0.709	0.682	0.773	0.744	0.825	0.813	0.836	0.909	0.975	0.921	1.020	0.875	0.817	0.706	0.669	0.665	0.689	0.672	0.651	0.712	0.757	0.801	0.875	0.875	0.874	1.124	1.331	1.354	1.433	1.644	2.061	2.173	2.889	4.170	4.439	2.387	1.238	0.990	1.076	1.226
320.0	516.4	499.6	407.9	263.7	179.7	147.0	173.5	200.8	215.3	265.4	314.3	377.3	446.2	721.5	552.4	193.3	169.5	183.8	374.3	1829	2388	64.10	5.169	1.904	1.315	1.095	0.802	0.778	0.619	0.547	0.361	0.512	0.446	0.520	0.703	0.794	0.809	0.844	0.851	0.789	0.826	0.961	0.891	0.976	1.112	1.233	1.195	1.244	1.138	0.925	0.852	0.885	0.774	0.740	0.576	0.658	0.734	0.930	0.856	1.072	0.989	1.045	1.056	1.356	1.367	1.490	1.552	1.885	1.875	2.060	2.571	4.074	4.416	2.902	1.635	1.186	0.987
325.0	595.3	655.3	594.7	393.3	222.4	155.8	177.8	208.2	225.3	276.4	330.6	383.6	397.7	502.7	690.1	351.8	156.2	111.2	117.0	528.4	2128	1853	51.40	3.008	1.714	1.213	0.977	0.804	0.656	0.589	0.548	0.477	0.392	0.521	0.663	0.673	0.821	0.788	0.905	0.907	0.874	1.017	1.011	1.174	1.279	1.349	1.576	1.724	1.690	1.504	1.202	1.214	0.903	0.703	0.674	0.745	0.774	0.899	0.988	0.905	1.017	1.105	1.166	1.397	1.396	1.520	1.782	1.662	1.983	1.932	2.002	2.508	3.342	4.081	3.615	1.927	1.179
330.0	739.9	861.8	883.9	717.3	350.6	191.5	183.6	211.8	236.0	289.5	352.7	409.5	409.9	414.3	482.6	524.9	296.7	112.7	70.14	148.1	608.3	1577	1731	231.5	11.37	1.710	1.222	0.989	0.648	0.571	0.597	0.492	0.430	0.613	0.630	0.708	0.828	0.820	0.852	0.866	0.942	1.036	1.268	1.267	1.477	1.673	2.036	2.398	2.542	2.379	2.266	2.164	1.407	1.079	0.813	0.713	0.810	0.913	1.011	0.983	0.975	1.050	1.168	1.474	1.480	1.611	1.921	2.046	1.930	2.064	1.981	2.001	2.306	2.674	3.220	3.299	3.068
335.0	764.7	967.7	1053	875.7	440.3	216.0	180.1	207.2	241.5	284.3	351.4	402.3	403.3	380.4	350.6	363.9	468.7	217.8	68.22	68.33	162.7	387.0	1094	2093	342.1	8.744	1.775	1.191	0.831	0.664	0.671	0.539	0.521	0.614	0.710	0.686	0.713	0.826	0.856	0.972	1.054	1.068	1.281	1.392	1.616	1.955	2.240	2.553	2.762	3.021	2.760	2.723	1.690	1.174	0.903	0.681	0.892	0.946	1.065	0.929	1.097	1.261	1.262	1.449	1.492	1.758	1.917	1.889	1.960	2.165	1.732	1.882	2.150	1.814	1.959	2.005	2.633
340.0	783.0	994.4	1075	931.9	457.5	219.6	180.5	197.7	232.0	271.9	336.6	387.4	386.3	360.4	310.5	265.1	366.1	366.7	88.62	53.90	67.27	110.6	300.1	1491	1871	53.65	3.762	1.609	1.218	0.900	0.621	0.600	0.657	0.579	0.670	0.703	0.737	0.834	0.866	0.940	0.921	1.095	1.247	1.323	1.532	1.920	2.063	2.547	3.001	2.747	2.841	2.766	1.933	1.116	0.885	0.619	0.852	0.821	0.898	0.899	1.038	1.066	1.155	1.271	1.417	1.550	1.684	1.639	1.697	1.901	1.813	1.721	1.755	1.585	1.609	1.451	1.665
345.0	735.4	940.4	1086	940.6	475.4	222.5	178.4	192.3	216.7	262.0	317.9	362.6	364.6	343.1	287.5	230.9	232.2	354.0	229.3	65.42	48.44	52.74	88.67	439.5	1741	1439	43.59	2.381	1.379	1.063	0.789	0.731	0.665	0.587	0.678	0.646	0.710	0.791	0.769	0.921	0.894	1.055	1.084	1.559	1.526	1.901	2.111	2.606	2.897	2.734	2.756	2.753	2.039	1.371	0.894	0.636	0.801	0.888	0.853	0.926	0.987	0.935	1.162	1.143	1.447	1.414	1.558	1.574	1.726	1.823	1.702	1.737	1.544	1.594	1.411	1.239	1.313
350.0	668.8	835.3	976.1	869.1	468.4	224.8	171.3	180.4	199.3	235.9	282.7	320.9	323.5	307.2	258.7	206.4	172.2	200.8	274.7	179.6	60.42	46.04	44.80	116.4	507.0	1277	1306	198.7	9.077	1.383	0.947	0.826	0.632	0.619	0.752	0.682	0.710	0.856	0.825	0.821	0.962	1.049	0.993	1.289	1.389	1.752	1.827	2.350	2.676	2.614	2.636	2.678	1.940	1.359	0.945	0.680	0.746	0.851	0.828	0.883	0.920	0.839	1.132	1.123	1.332	1.317	1.448	1.476	1.507	1.539	1.490	1.559	1.458	1.492	1.315	1.247	1.179
355.0	589.3	705.6	839.2	739.9	435.0	213.9	171.0	171.2	182.1	211.1	244.7	269.8	274.6	266.0	230.0	185.1	150.9	132.5	155.7	253.7	155.6	53.82	40.79	49.21	130.1	310.5	893.7	1750	283.0	5.726	1.228	0.930	0.726	0.703	0.646	0.729	0.714	0.742	0.728	0.708	0.780	0.886	0.996	0.995	1.133	1.445	1.523	1.895	2.324	2.249	2.318	2.426	1.723	1.276	0.922	0.765	0.777	0.678	0.852	0.765	0.800	0.754	1.000	1.116	1.107	1.259	1.232	1.161	1.173	1.313	1.330	1.276	1.187	1.307	1.136	1.105	1.181
360.0	528.3	615.7	719.5	654.4	396.9	217.8	175.3	162.0	174.8	194.7	226.6	248.3	248.6	240.5	204.2	175.7	143.1	115.3	109.7	180.5	242.0	100.2	45.01	38.43	49.69	85.79	249.5	1378	1422	48.44	2.510	1.233	0.773	0.599	0.755	0.679	0.714	0.800	0.784	0.774	0.775	0.789	0.871	0.877	0.990	1.258	1.277	1.785	1.913	1.899	1.880	2.080	1.553	1.218	0.896	0.852	0.696	0.723	0.877	0.795	0.804	0.846	0.916	0.973	0.988	1.118	1.124	1.056	1.206	1.157	1.306	1.186	1.104	1.169	1.150	1.030	1.027
365.0	466.0	549.6	641.9	592.7	370.8	220.0	174.6	162.1	169.2	184.1	211.4	226.9	231.5	216.8	194.2	164.6	138.7	115.2	99.51	116.4	218.0	188.8	62.32	40.49	37.52	39.11	71.05	430.2	1443	1134	37.68	1.911	1.092	0.790	0.662	0.714	0.753	0.737	0.795	0.662	0.752	0.771	0.766	0.871	1.023	1.228	1.076	1.625	1.719	1.797	1.680	1.966	1.515	1.171	0.994	0.778	0.707	0.658	0.766	0.699	0.812	0.786	0.876	0.894	0.996	1.022	1.003	1.072	1.154	1.089	1.310	1.075	1.072	1.052	1.064	1.091	1.004
370.0	405.8	469.0	531.9	494.5	338.3	226.6	177.6	165.3	166.6	176.2	199.0	206.7	209.3	200.6	179.2	156.2	135.1	117.5	102.4	98.39	131.4	198.7	158.2	58.17	41.90	35.30	36.41	112.4	436.6	1101	879.7	167.2	6.990	1.231	0.879	0.763	0.784	0.677	0.760	0.724	0.670	0.771	0.761	0.806	0.873	0.934	1.028	1.328	1.502	1.474	1.485	1.531	1.406	1.205	1.045	0.738	0.774	0.749	0.801	0.796	0.816	0.761	0.786	0.843	0.905	0.895	0.995	1.011	1.007	1.062	1.062	0.990	1.026	1.015	0.989	1.073	0.916
375.0	369.2	403.1	455.8	430.4	303.3	225.7	183.8	168.9	165.0	177.6	183.6	192.7	192.4	181.2	168.3	147.1	135.6	118.4	108.7	99.77	101.1	123.9	195.6	146.7	58.63	42.11	35.38	45.59	113.1	271.8	763.5	1285	224.7	4.643	1.187	0.888	0.763	0.726	0.717	0.712	0.593	0.746	0.730	0.764	0.757	0.787	0.916	1.056	1.218	1.165	1.263	1.457	1.244	1.034	0.932	0.873	0.826	0.681	0.754	0.790	0.829	0.887	0.728	0.945	0.748	0.821	0.901	0.754	0.962	1.022	0.935	0.842	0.935	1.067	1.020	0.969	0.911
380.0	346.1	363.5	395.1	380.0	299.0	222.8	190.9	172.5	168.6	175.5	182.0	182.1	181.9	175.2	163.3	145.5	132.1	119.8	111.8	104.3	98.50	98.87	144.0	201.3	103.9	50.07	40.02	35.60	44.54	75.51	221.2	1040	1085	39.65	2.198	0.947	0.809	0.701	0.655	0.752	0.712	0.593	0.638	0.732	0.773	0.792	0.847	1.028	1.103	1.126	1.187	1.302	1.149	0.900	0.895	0.829	0.922	0.804	0.732	0.826	0.750	0.769	0.688	0.707	0.729	0.830	0.873	0.887	0.898	0.941	0.960	0.837	0.906	0.990	0.966	0.899	0.896
385.0	318.3	355.1	371.5	352.6	291.2	228.2	193.0	176.5	169.7	175.0	178.7	177.5	178.9	168.6	158.1	139.5	132.6	123.6	113.8	107.3	101.6	96.83	107.7	173.4	170.1	63.02	44.96	38.35	33.63	34.55	63.49	325.4	1117	790.4	28.90	1.346	1.099	0.901	0.779	0.756	0.685	0.668	0.673	0.782	0.765	0.813	0.805	1.001	0.990	0.920	0.984	1.125	1.071	0.951	0.923	0.849	0.914	0.782	0.825	0.731	0.811	0.810	0.693	0.749	0.784	0.873	0.741	0.909	0.877	0.819	0.871	0.852	0.797	1.011	0.895	0.980	0.908
390.0	284.7	322.7	324.5	319.0	274.2	227.8	196.4	185.4	177.2	175.8	178.0	175.2	173.0	163.2	150.7	139.4	131.8	124.8	117.8	111.6	105.8	101.9	98.83	116.7	162.3	141.5	70.14	45.22	36.89	30.48	31.69	86.26	337.4	780.7	619.4	126.8	5.026	1.036	0.868	0.826	0.701	0.640	0.652	0.706	0.706	0.801	0.845	0.837	0.860	0.891	0.914	1.068	0.953	0.974	0.931	0.875	0.891	0.840	0.761	0.780	0.880	0.891	0.804	0.797	0.923	0.733	0.848	0.848	0.881	0.962	0.801	0.834	0.832	0.960	0.844	0.818	0.915
395.0	284.3	296.0	300.3	288.9	264.3	229.3	203.4	186.9	181.7	184.7	176.2	172.1	172.6	158.9	148.0	134.3	129.5	125.0	120.0	114.5	109.2	102.7	98.34	100.5	109.6	153.3	134.1	59.40	44.18	35.59	29.57	35.15	86.96	194.6	536.6	867.3	172.2	3.186	1.011	0.930	0.820	0.645	0.720	0.601	0.615	0.717	0.722	0.754	0.854	0.923	0.796	0.986	0.846	0.952	0.897	0.875	0.880	0.775	0.695	0.837	0.883	0.924	0.764	0.718	1.002	0.828	0.781	0.815	0.892	0.832	0.774	0.770	0.866	0.977	0.961	0.881	0.843
400.0	275.3	290.4	276.3	274.7	255.0	224.6	206.5	192.1	189.8	183.0	177.0	174.4	168.3	157.1	145.6	130.9	127.6	124.6	120.6	118.2	111.3	106.7	101.7	97.78	93.28	116.5	162.6	100.2	50.72	40.01	31.90	28.07	32.97	53.40	155.2	705.9	744.6	32.46	1.603	1.008	0.885	0.705	0.747	0.659	0.581	0.669	0.729	0.730	0.878	0.792	0.748	0.856	0.884	0.945	0.801	0.849	0.803	0.892	0.758	0.844	0.871	0.859	0.841	0.791	0.804	0.844	0.696	0.831	0.799	0.821	0.899	0.782	0.861	0.904	0.858	0.841	0.893
405.0	267.0	273.2	266.0	268.9	248.3	229.7	208.5	198.1	190.9	186.7	177.9	174.9	165.0	155.6	142.7	131.1	127.6	122.7	120.1	118.1	112.4	110.2	104.5	98.23	92.18	94.59	135.6	144.4	72.20	45.83	35.91	29.16	23.06	23.06	43.18	219.9	754.7	557.0	24.76	1.344	0.968	0.741	0.744	0.714	0.593	0.702	0.678	0.739	0.806	0.801	0.758	0.849	0.974	0.938	0.896	0.850	0.822	0.943	0.919	0.999	0.950	0.872	0.770	0.841	0.808	0.812	0.803	0.880	0.805	0.816	0.828	0.860	0.907	0.917	0.930	0.826	0.893
410.0	256.7	256.9	262.2	260.8	240.9	224.5	213.0	202.6	191.9	186.2	180.0	172.5	164.1	153.1	139.7	128.8	125.9	122.0	119.4	116.4	112.5	109.3	105.4	98.98	93.72	89.45	97.98	131.2	121.8	67.23	42.64	32.90	24.87	19.96	20.12	57.37	226.2	541.1	462.3	111.6	4.243	0.869	0.837	0.691	0.657	0.645	0.718	0.770	0.782	0.721	0.719	0.905	0.895	0.958	0.886	0.806	0.913	0.887	0.891	0.857	0.895	0.834	0.809	0.853	0.830	0.770	0.798	0.889	0.658	0.832	0.742	0.757	0.854	0.833	0.859	0.828	0.784
415.0	239.9	251.5	251.5	238.8	222.8	220.9	217.4	201.7	197.1	190.9	180.7	171.3	159.7	145.9	136.6	127.9	125.4	118.9	116.3	111.3	111.0	108.2	103.6	99.11	94.09	88.78	86.64	92.28	123.0	113.4	55.29	37.76	28.33	22.62	17.87	22.70	58.02	134.1	371.5	615.2	33.77	2.912	0.905	0.839	0.608	0.710	0.608	0.811	0.668	0.741	0.609	0.837	0.880	0.752	0.903	0.881	0.776	0.918	0.878	0.928	0.960	0.888	0.859	0.915	0.799	0.937	0.853	0.768	0.744	0.849	0.792	0.807	0.841	0.777	0.796	0.762	0.829
420.0	238.8	252.6	247.8	230.9	231.0	218.9	215.8	208.5	199.5	185.8	179.6	172.4	158.2	144.9	133.9	127.1	119.3	115.2	114.4	109.9	108.2	104.0	102.8	97.90	94.63	89.03	84.63	80.61	95.65	126.9	86.17	43.80	32.22	25.20	19.55	17.37	21.36	36.89	106.1	476.6	516.7	30.07	1.456	0.893	0.734	0.755	0.671	0.647	0.717	0.705	0.696	0.784	0.904	0.799	0.790	0.818	0.872	0.908	0.884	1.023	0.998	0.969	0.930	0.882	0.933	0.786	0.878	0.811	0.741	0.730	0.819	0.785	0.757	0.754	0.807	0.724	0.789
425.0	237.5	245.6	239.2	230.4	227.4	216.1	218.9	211.9	200.0	189.8	178.6	169.6	157.2	143.5	129.7	122.1	119.2	112.6	110.8	111.9	106.0	101.8	98.78	96.60	93.44	89.60	83.96	78.24	78.98	105.9	112.8	54.75	37.08	27.71	21.62	17.13	14.22	15.61	29.69	146.4	515.7	266.4	22.99	1.206	0.904	0.754	0.771	0.724	0.693	0.662	0.686	0.794	0.802	0.915	0.778	0.770	1.070	0.893	0.850	0.946	0.931	0.992	0.784	0.783	0.885	0.729	0.749	0.786	0.744	0.677	0.781	0.730	0.717	0.798	0.898	0.735	0.878
430.0	374.9	235.9	230.4	224.8	220.4	220.6	220.4	219.4	202.7	192.2	182.4	168.6	154.8	139.3	128.5	119.5	114.5	111.3	109.0	105.8	102.2	98.51	97.44	96.04	91.98	88.26	83.87	79.46	75.08	80.17	99.66	90.78	52.73	31.71	24.58	19.76	15.56	13.05	13.53	38.34	150.5	343.0	363.9	100.8	4.745	0.950	0.754	0.762	0.769	0.681	0.643	0.823	0.865	0.873	0.886	0.839	0.977	0.882	0.948	1.011	0.949	0.980	0.891	0.912	0.881	0.790	0.739	0.712	0.754	0.694	0.776	0.727	0.724	0.727	0.764	0.713	0.790
435.0	867.0	252.7	232.0	217.5	218.1	220.1	220.7	220.8	207.7	196.5	183.5	164.3	151.2	138.8	125.7	118.2	112.7	108.9	105.0	101.0	98.37	95.41	94.82	95.17	91.49	87.48	84.20	78.55	75.13	72.15	72.68	90.05	83.78	42.72	28.80	22.57	18.14	14.03	11.68	15.15	38.51	84.78	259.3	501.4	140.3	3.710	1.014	0.814	0.747	0.681	0.727	0.816	0.849	0.835	0.957	0.805	0.933	0.893	0.941	0.977	1.023	0.943	0.911	0.933	0.888	0.843	0.692	0.727	0.811	0.738	0.755	0.798	0.662	0.736	0.668	0.730	0.834
440.0	1318	360.9	223.0	210.0	221.6	231.6	230.8	223.3	209.9	199.5	186.4	163.1	147.9	136.6	123.0	116.1	108.1	105.8	99.64	99.81	95.46	93.86	91.59	91.95	89.19	87.15	82.72	79.87	76.88	70.59	65.98	71.29	89.56	62.00	32.60	24.58	19.80	16.34	12.90	11.38	14.38	23.64	72.18	363.2	474.8	29.34	2.008	0.929	0.809	0.691	0.705	0.886	0.889	0.925	0.916	0.889	0.986	0.977	1.008	0.965	1.035	0.957	1.011	0.892	0.906	0.912	0.844	0.827	0.800	0.789	0.661	0.714	0.725	0.779	0.878	0.674	0.721
445.0	1413	688.9	211.5	205.7	228.3	228.5	230.5	223.4	210.4	195.8	180.3	165.8	146.7	130.6	122.8	111.4	106.2	102.7	97.86	96.61	91.65	90.12	87.96	88.75	86.52	84.14	81.28	78.37	76.34	69.48	64.53	60.69	73.38	78.75	43.16	26.78	21.11	16.92	14.07	11.68	9.716	10.77	20.75	107.1	418.5	388.6	22.18	1.378	0.832	0.815	0.740	0.775	0.874	0.916	0.937	0.907	0.983	0.928	1.035	0.946	0.963	0.856	0.978	0.768	0.901	0.858	0.747	0.798	0.708	0.769	0.671	0.752	0.621	0.720	0.713	0.694	0.684
450.0	855.2	1196	349.5	203.2	208.0	222.1	222.8	226.6	211.9	192.5	176.8	158.3	143.3	129.3	116.7	109.0	101.8	100.5	93.29	90.66	86.69	85.84	82.90	84.05	82.18	80.81	79.31	76.99	74.31	68.67	64.85	57.16	56.66	67.21	63.03	36.87	23.57	19.06	15.43	12.99	10.38	8.712	9.516	28.05	118.1	308.2	309.6	100.0	5.207	0.868	0.751	0.749	0.847	0.795	0.895	0.919	0.993	0.911	0.975	1.018	0.980	0.842	0.866	0.810	0.823	0.810	0.799	0.785	0.678	0.683	0.711	0.767	0.686	0.719	0.745	0.636	0.712
455.0	372.7	1123	821.7	200.9	199.9	211.3	222.9	221.1	207.8	186.9	171.0	150.1	135.2	125.3	111.2	104.3	95.79	91.15	88.68	84.00	82.32	79.71	77.44	78.21	77.29	75.77	75.16	74.05	71.01	66.64	62.06	54.72	50.67	48.27	59.16	54.52	31.59	20.51	16.65	13.63	11.51	9.103	8.228	10.99	30.29	73.87	180.2	408.8	132.4	4.770	0.872	0.941	0.867	0.826	0.885	0.813	0.921	1.006	0.980	0.989	0.902	0.961	0.838	0.967	0.834	0.741	0.814	0.708	0.749	0.726	0.676	0.763	0.614	0.621	0.716	0.659	0.714
460.0	233.6	725.1	1218	292.8	187.0	198.8	209.8	215.2	198.9	178.7	164.4	143.9	133.0	117.3	104.2	96.37	89.22	84.26	82.18	80.44	75.42	74.44	72.60	73.18	71.12	72.19	70.41	70.57	69.00	65.60	60.33	54.04	47.92	42.77	45.72	56.26	41.61	23.43	17.35	14.14	11.95	10.40	8.405	7.559	10.94	20.16	47.34	246.2	381.8	23.92	2.429	0.920	0.921	0.908	0.778	0.898	0.957	1.079	1.015	0.900	1.008	0.924	0.853	0.973	0.779	0.703	0.733	0.709	0.771	0.709	0.709	0.631	0.675	0.570	0.646	0.622	0.644
465.0	207.5	386.9	1282	571.7	180.7	189.4	201.6	206.1	194.7	174.4	158.4	140.6	127.8	112.1	102.3	91.61	84.92	81.83	78.79	73.13	69.90	67.97	69.72	68.25	68.86	67.13	66.79	65.50	66.64	61.80	58.42	52.46	45.10	40.17	36.49	45.01	49.46	30.65	18.26	14.94	12.80	10.77	9.384	7.142	7.229	8.342	13.90	67.47	289.9	307.8	20.68	1.616	0.889	0.803	0.792	0.900	0.846	0.980	0.967	0.951	1.012	0.988	0.822	0.789	0.881	0.714	0.767	0.630	0.622	0.704	0.647	0.640	0.566	0.556	0.610	0.624	0.661
470.0	244.3	222.4	747.7	1010	277.6	174.6	184.4	195.6	182.6	164.1	146.4	131.8	117.1	105.1	93.75	85.10	79.23	74.84	71.69	67.07	62.91	61.54	61.90	61.87	62.63	60.91	61.17	60.54	59.95	57.46	54.33	49.37	42.53	37.93	33.27	33.62	40.60	39.58	24.83	15.91	12.90	10.84	9.423	7.867	6.739	5.863	6.503	18.02	77.54	204.1	208.8	97.68	6.617	0.926	0.943	0.850	0.826	0.832	0.962	0.917	0.917	0.831	0.767	0.719	0.723	0.608	0.683	0.628	0.655	0.571	0.561	0.588	0.561	0.579	0.632	0.570	0.577
475.0	297.4	181.2	304.6	993.2	638.0	172.2	175.0	179.2	170.1	151.1	137.9	121.1	108.9	95.28	84.21	77.28	72.90	67.48	64.17	60.42	57.17	54.40	55.02	55.45	56.56	56.63	55.91	54.97	55.19	52.98	50.15	44.66	38.71	35.90	30.12	28.41	27.93	34.09	33.72	20.02	13.04	11.19	9.419	8.134	7.332	5.882	4.929	7.024	19.81	48.05	95.62	264.1	128.9	7.688	0.934	0.871	0.807	0.840	0.905	0.829	0.840	0.838	0.717	0.640	0.709	0.678	0.511	0.621	0.517	0.559	0.557	0.578	0.455	0.507	0.521	0.502	0.552
480.0	289.3	203.5	178.6	621.6	1072	248.2	166.8	172.8	157.7	146.9	129.6	115.7	101.8	87.91	81.08	71.23	66.40	62.67	60.06	55.81	53.78	52.50	52.09	52.16	51.30	52.32	52.05	52.87	51.51	50.12	47.16	42.14	38.38	34.57	29.70	26.61	24.20	25.91	34.21	25.87	14.79	11.18	9.150	8.286	7.540	6.543	4.820	4.634	7.155	13.05	24.31	127.2	276.6	102.1	3.356	0.881	0.809	0.818	0.795	0.898	0.753	0.811	0.675	0.621	0.597	0.622	0.544	0.569	0.591	0.472	0.584	0.499	0.478	0.495	0.534	0.493	0.489
485.0	260.4	240.9	146.3	305.6	1144	481.7	155.8	158.6	157.5	138.0	125.1	110.2	99.89	85.52	77.50	67.18	63.73	59.66	56.34	52.60	50.61	48.87	48.90	49.03	49.33	47.89	48.64	49.65	48.86	46.89	44.47	40.72	35.82	32.41	28.79	24.92	23.20	21.91	27.69	30.47	19.16	12.08	9.913	8.283	7.056	6.617	5.531	4.318	4.383	5.039	7.455	33.31	171.1	232.3	25.69	1.802	0.877	0.820	0.767	0.795	0.865	0.697	0.800	0.720	0.618	0.666	0.665	0.554	0.572	0.557	0.478	0.517	0.456	0.428	0.423	0.515	0.509
490.0	172.4	260.4	160.0	163.9	672.2	999.4	243.1	151.6	146.7	128.4	115.5	102.4	92.49	79.77	70.54	63.17	58.22	55.06	51.85	48.93	46.23	44.52	45.11	44.91	45.70	44.95	44.89	45.14	45.11	43.22	41.18	37.98	33.89	30.39	27.36	24.05	21.52	19.43	20.30	25.37	25.21	15.71	10.30	8.394	7.263	6.782	5.806	4.807	4.034	3.783	3.714	9.365	43.78	128.3	200.2	102.9	8.759	0.956	0.814	0.739	0.778	0.684	0.746	0.656	0.614	0.576	0.545	0.547	0.516	0.471	0.482	0.399	0.483	0.401	0.438	0.416	0.452
495.0	124.9	219.1	204.6	123.9	262.7	1005	642.6	145.6	132.1	121.8	103.7	94.62	80.63	72.14	64.36	57.51	52.01	49.94	46.06	43.94	42.11	40.49	41.73	42.12	41.13	41.26	41.13	41.55	41.02	39.32	38.16	34.58	30.68	27.57	25.58	22.74	20.26	18.24	16.79	17.59	22.54	21.84	13.09	8.612	7.462	6.583	5.798	5.011	4.134	3.378	3.113	4.098	11.43	30.22	79.59	237.4	153.2	10.04	0.851	0.720	0.735	0.722	0.704	0.586	0.543	0.551	0.549	0.462	0.526	0.458	0.507	0.439	0.485	0.423	0.411	0.395	0.398
500.0	108.8	169.3	231.0	127.3	143.0	625.1	1060	211.2	124.8	114.0	96.71	86.67	74.56	68.28	59.80	52.77	49.69	46.57	44.50	40.77	38.71	37.82	37.50	38.23	37.25	37.53	37.00	37.22	37.52	36.73	36.28	32.30	28.80	26.74	23.53	21.19	19.37	17.24	15.72	14.41	17.04	22.14	17.00	9.724	7.769	6.718	5.747	5.326	4.937	3.729	2.937	2.881	4.250	8.135	19.84	104.5	261.1	112.6	4.670	0.873	0.683	0.672	0.635	0.523	0.548	0.503	0.487	0.429	0.480	0.433	0.467	0.466	0.466	0.360	0.381	0.379	0.463
505.0	100.3	133.1	228.8	148.5	107.2	294.3	1156	369.6	117.3	108.3	91.11	78.84	70.02	64.22	54.83	49.24	44.60	41.84	40.39	37.32	36.29	34.63	35.15	34.56	34.58	34.40	33.99	34.22	34.18	33.03	32.62	30.45	27.22	24.66	22.37	19.72	17.83	16.21	14.69	13.30	13.77	17.93	19.49	12.92	8.007	6.296	5.616	4.955	4.746	3.999	3.014	2.728	2.677	3.239	5.863	26.21	134.9	244.1	29.22	2.311	0.698	0.644	0.652	0.533	0.519	0.435	0.448	0.415	0.416	0.356	0.392	0.407	0.401	0.340	0.307	0.377	0.450
510.0	89.14	98.93	164.6	182.8	103.7	142.2	680.8	936.4	190.6	98.77	83.47	70.23	64.32	57.47	50.37	44.57	39.89	38.64	36.37	33.42	31.85	31.11	30.61	30.95	31.81	31.24	30.68	31.06	30.48	30.06	28.94	26.68	24.48	22.25	20.03	18.34	15.99	14.82	13.07	12.18	11.21	12.58	16.29	16.40	10.46	6.857	5.453	4.692	4.422	3.833	3.480	2.847	2.409	2.245	2.691	7.150	33.32	110.2	171.5	96.66	9.334	0.740	0.653	0.526	0.471	0.432	0.408	0.412	0.364	0.413	0.346	0.337	0.343	0.302	0.323	0.399	0.353
515.0	77.16	76.65	96.70	192.6	122.1	100.1	241.2	1030	599.9	93.39	74.36	64.76	59.15	51.84	43.06	38.93	36.14	34.28	31.55	29.11	28.53	27.10	26.64	27.13	27.83	26.77	27.00	27.80	27.28	26.41	25.44	23.96	21.87	19.48	17.63	15.88	14.59	12.98	11.29	10.60	9.879	9.630	10.98	14.66	13.89	8.691	5.497	4.901	4.176	3.636	3.395	3.359	2.312	2.116	2.049	2.863	8.606	25.70	57.26	180.4	126.6	9.975	0.706	0.683	0.418	0.403	0.368	0.355	0.377	0.375	0.357	0.306	0.314	0.326	0.339	0.336	0.300
520.0	76.96	68.75	76.83	159.2	148.5	87.24	119.3	648.1	1103	142.2	68.54	59.67	51.34	46.07	39.38	34.92	32.43	30.10	28.25	28.05	26.20	23.67	24.27	24.20	24.65	24.63	24.53	24.85	24.50	24.16	22.49	20.93	19.40	17.87	16.65	14.39	13.70	12.07	10.85	10.12	9.114	8.545	8.329	10.26	14.26	10.63	6.091	4.684	4.055	3.393	3.100	3.272	2.694	2.074	1.824	1.958	3.145	6.842	14.10	71.97	190.1	89.86	4.346	0.604	0.455	0.441	0.355	0.316	0.374	0.364	0.318	0.272	0.371	0.309	0.304	0.298	0.250
525.0	70.07	69.06	59.93	110.8	168.1	86.48	85.58	285.8	1309	270.9	66.03	54.94	46.83	40.44	35.75	31.90	29.93	27.33	25.21	25.65	23.89	21.57	21.94	23.00	22.21	22.01	22.18	22.23	22.28	21.79	20.95	19.00	17.68	16.33	14.59	13.55	12.07	11.49	10.13	9.070	8.753	7.622	7.262	7.502	11.66	12.07	7.814	4.447	3.829	3.289	3.070	2.818	2.778	2.342	1.738	1.745	1.740	2.620	4.093	17.79	91.04	177.6	29.05	1.848	0.476	0.367	0.340	0.270	0.350	0.312	0.251	0.278	0.289	0.279	0.256	0.332	0.205
530.0	66.23	59.35	55.32	66.96	151.3	121.0	71.13	122.6	785.6	892.0	121.4	48.42	42.25	37.28	32.07	28.44	25.96	24.10	22.30	22.39	20.34	19.48	19.52	19.60	19.49	18.88	19.28	19.69	18.94	19.48	18.22	16.64	15.81	14.02	12.88	11.85	10.93	10.17	9.035	8.143	7.683	6.799	6.438	6.305	7.776	10.31	10.23	5.880	3.720	3.121	2.721	2.485	2.405	2.514	2.107	1.722	1.481	1.509	1.865	4.890	22.32	76.98	122.6	70.93	7.536	0.485	0.347	0.291	0.286	0.267	0.228	0.256	0.228	0.254	0.236	0.281	0.216
535.0	62.93	45.92	47.75	48.66	96.65	156.9	73.78	73.92	251.7	1037	462.8	43.10	36.55	33.21	29.21	25.27	22.49	20.79	20.23	18.25	16.46	17.05	16.84	15.60	17.07	16.13	16.51	16.47	16.56	16.31	15.92	14.68	13.32	12.20	10.66	10.60	9.545	8.576	7.961	7.590	6.454	6.089	5.624	5.520	5.610	6.584	9.152	7.830	4.555	2.940	2.460	2.093	2.118	2.040	2.180	1.949	1.485	1.226	1.303	1.976	5.731	17.95	39.12	125.2	87.20	7.398	0.357	0.332	0.263	0.262	0.238	0.228	0.225	0.186	0.203	0.223	0.222
540.0	53.78	42.89	39.22	40.31	62.11	155.1	86.30	59.47	101.5	644.8	928.9	74.81	31.86	29.01	25.23	22.06	20.53	18.23	17.22	16.51	15.35	14.63	15.37	14.43	14.25	14.36	14.57	14.77	14.68	14.16	14.27	12.65	11.78	10.50	9.272	9.177	8.362	7.290	6.941	6.651	6.066	5.670	5.244	4.949	4.652	4.707	6.482	8.283	5.813	3.371	2.302	2.122	1.899	1.706	1.974	2.040	1.705	1.085	1.081	1.272	1.947	4.681	9.548	49.23	127.9	31.87	2.948	0.372	0.279	0.243	0.220	0.168	0.217	0.174	0.169	0.208	0.188
545.0	49.56	43.75	40.06	35.36	42.09	121.1	115.3	54.96	61.59	256.4	1115	184.7	30.29	24.00	22.85	19.71	17.68	16.45	16.17	14.98	14.22	13.18	12.70	12.91	12.55	13.30	13.23	12.93	12.46	12.69	11.77	11.51	10.39	9.131	8.333	7.977	7.509	6.693	5.967	5.638	5.405	5.045	4.779	4.545	4.041	3.805	4.483	6.624	6.832	3.957	2.428	2.032	1.752	1.498	1.647	1.980	1.940	1.148	0.953	0.962	1.121	1.611	2.735	12.02	59.08	115.9	26.67	1.274	0.234	0.214	0.238	0.141	0.208	0.156	0.179	0.188	0.182
550.0	41.68	42.16	32.15	30.77	32.25	66.52	133.5	60.73	47.68	91.54	634.8	716.2	60.66	22.59	19.10	16.88	14.73	14.22	13.08	12.20	11.44	11.28	11.07	11.23	11.01	11.07	10.96	10.77	10.84	10.83	10.32	9.564	8.545	8.086	7.372	6.620	6.346	5.854	5.330	4.797	4.579	4.378	3.958	3.750	3.550	3.296	3.238	4.221	5.711	5.015	3.046	1.964	1.644	1.470	1.350	1.502	1.711	1.488	0.987	0.841	0.814	0.851	1.106	3.172	14.27	49.84	81.68	47.66	5.494	0.241	0.245	0.181	0.189	0.177	0.177	0.173	0.146
555.0	29.51	36.30	26.30	24.22	25.30	36.68	108.3	94.52	39.59	47.16	189.5	890.5	175.0	20.18	15.98	14.53	12.65	11.00	11.00	10.26	9.680	9.403	8.727	8.720	8.799	8.833	8.991	8.503	8.705	9.288	8.235	7.530	6.953	6.396	6.021	5.562	5.015	4.849	4.296	3.865	3.878	3.583	3.273	2.986	2.822	2.620	2.613	2.851	3.576	4.815	3.937	2.274	1.484	1.238	1.249	1.077	1.138	1.317	1.520	0.741	0.766	0.669	0.697	1.098	3.566	11.52	24.95	75.20	32.31	4.360	0.235	0.157	0.165	0.162	0.185	0.175	0.170
560.0	40.13	32.15	25.05	21.47	21.40	25.16	66.50	122.4	41.12	34.97	67.32	540.8	637.2	33.09	14.05	13.05	11.26	9.516	8.835	7.839	8.225	7.894	7.689	7.242	7.171	7.154	7.408	7.055	7.488	7.508	6.914	6.430	6.238	5.577	4.769	4.801	4.236	3.924	3.465	3.429	3.402	2.876	2.891	2.625	2.423	2.313	2.354	2.240	2.430	3.590	3.969	2.749	1.496	1.111	1.105	0.973	1.052	0.988	1.411	1.119	0.706	0.607	0.569	0.598	1.151	2.837	6.023	28.07	73.88	29.16	2.037	0.175	0.215	0.163	0.137	0.134	0.172
565.0	35.39	31.12	22.35	19.42	20.54	22.03	41.66	121.9	57.13	28.87	33.74	203.3	857.8	113.5	12.63	10.56	9.737	8.139	7.750	7.020	6.624	6.704	6.887	6.638	6.623	6.133	6.272	6.571	5.979	6.017	5.671	5.686	5.148	4.794	4.460	4.313	3.726	3.460	3.148	2.891	2.694	2.646	2.465	2.282	2.061	2.171	1.993	1.801	1.837	2.204	3.314	2.943	1.701	1.049	1.071	0.820	0.800	0.778	1.188	1.303	0.711	0.476	0.410	0.530	0.554	0.966	1.617	6.915	34.75	71.41	22.37	0.728	0.182	0.177	0.134	0.163	0.166
570.0	36.39	31.97	21.08	18.40	16.09	18.09	25.58	83.78	90.76	29.47	25.53	65.96	513.9	490.7	28.19	8.699	7.328	6.769	6.090	5.759	5.744	5.537	5.655	5.459	5.396	5.193	5.422	5.366	4.943	4.930	4.900	4.604	4.230	3.832	3.873	3.362	3.076	2.880	2.734	2.419	2.337	2.055	2.063	1.816	1.883	1.676	1.578	1.480	1.379	1.448	2.067	2.683	2.266	1.218	0.832	0.804	0.732	0.708	0.747	0.921	0.969	0.673	0.383	0.446	0.377	0.464	0.609	1.823	8.349	29.89	50.15	22.32	3.256	0.216	0.146	0.144	0.142
575.0	36.45	28.33	18.01	16.01	12.93	14.79	16.86	42.02	108.8	45.83	22.65	30.23	147.5	642.0	118.5	7.335	6.553	5.728	4.857	5.139	4.354	4.290	4.153	4.310	4.642	4.161	4.178	4.081	3.838	4.170	3.904	3.679	3.184	3.164	2.994	2.554	2.473	2.453	2.189	2.039	1.973	1.703	1.703	1.507	1.666	1.355	1.333	1.216	1.271	1.056	1.174	1.706	2.225	1.696	0.880	0.659	0.665	0.568	0.632	0.604	0.836	0.849	0.539	0.394	0.355	0.374	0.392	0.648	2.080	6.889	15.37	43.95	28.95	2.600	0.219	0.167	0.138
580.0	36.93	27.99	20.77	15.07	11.53	11.91	13.91	22.94	92.80	70.49	21.32	20.20	45.51	402.5	410.8	13.37	5.704	4.851	4.434	4.705	3.756	3.913	3.485	3.690	3.743	3.518	3.270	3.480	3.479	3.447	3.330	2.934	2.834	2.760	2.589	2.179	2.263	1.874	1.931	1.866	1.626	1.525	1.366	1.335	1.319	1.167	1.094	1.081	0.956	0.842	0.899	1.006	1.904	1.815	1.250	0.736	0.593	0.529	0.497	0.499	0.538	0.902	0.871	0.413	0.320	0.286	0.256	0.393	0.668	1.706	3.716	17.07	45.87	22.21	1.214	0.154	0.114
585.0	33.15	24.34	17.81	12.07	11.21	10.95	12.85	17.35	60.27	93.66	23.34	16.69	20.68	148.3	573.4	60.29	5.183	4.168	4.299	3.523	3.351	3.250	3.299	3.077	3.117	2.921	2.714	2.837	2.916	3.112	2.997	2.617	2.359	2.306	2.069	1.766	1.874	1.800	1.671	1.589	1.355	1.411	1.294	1.202	1.175	1.101	0.966	0.993	0.854	0.693	0.669	0.744	1.312	1.621	1.423	0.786	0.597	0.487	0.392	0.463	0.395	0.552	1.061	0.657	0.370	0.240	0.213	0.305	0.353	0.523	1.008	4.110	21.16	43.61	14.47	0.457	0.132
590.0	27.99	22.14	16.84	13.04	10.92	10.01	12.04	14.08	29.61	85.78	44.43	15.94	14.37	42.85	346.3	288.5	11.58	3.817	3.394	2.957	2.999	2.629	2.505	2.536	2.479	2.527	2.341	2.423	2.357	2.408	2.314	2.131	2.009	1.861	1.794	1.575	1.514	1.462	1.300	1.302	1.183	1.223	1.100	1.096	1.044	0.826	0.857	0.786	0.722	0.665	0.583	0.542	0.743	1.078	1.472	1.166	0.693	0.481	0.349	0.381	0.303	0.359	0.651	0.700	0.616	0.269	0.241	0.219	0.256	0.236	0.378	1.064	5.068	18.09	29.56	18.00	2.042
595.0	29.98	21.60	14.18	12.61	10.12	9.498	10.65	12.12	19.00	53.10	72.66	18.03	11.26	16.12	96.87	399.2	72.57	3.091	2.838	2.537	2.440	1.933	2.061	1.805	1.940	1.990	1.924	1.908	2.068	1.950	1.954	1.938	1.488	1.551	1.546	1.310	1.230	1.243	1.164	1.094	0.917	0.907	0.959	0.821	0.813	0.710	0.714	0.607	0.549	0.458	0.496	0.426	0.531	0.608	0.971	1.066	0.866	0.427	0.292	0.275	0.270	0.298	0.391	0.397	0.667	0.485	0.251	0.182	0.198	0.184	0.200	0.406	1.266	4.197	9.112	27.04	21.27
600.0	23.93	21.53	15.26	10.77	9.198	8.243	10.66	10.58	14.83	29.37	78.83	25.44	11.38	10.50	28.17	260.0	231.8	5.710	2.655	2.490	2.020	1.803	1.991	1.610	1.562	1.782	1.769	1.747	1.617	1.539	1.634	1.437	1.342	1.238	1.197	1.111	1.105	0.910	1.057	0.884	0.843	0.811	0.775	0.678	0.676	0.625	0.644	0.576	0.478	0.400	0.454	0.425	0.441	0.405	0.666	1.006	1.028	0.524	0.289	0.295	0.335	0.269	0.249	0.264	0.503	0.716	0.325	0.194	0.184	0.201	0.136	0.179	0.419	1.029	2.207	10.12	30.15
605.0	26.43	16.79	12.87	9.449	9.723	7.632	10.41	9.571	12.46	19.83	69.03	43.96	11.36	10.25	12.63	98.48	341.1	28.07	2.233	1.984	1.917	1.772	1.572	1.399	1.266	1.564	1.479	1.431	1.304	1.209	1.310	1.154	1.102	1.020	1.021	0.964	1.051	0.704	0.783	0.698	0.638	0.743	0.672	0.617	0.540	0.591	0.562	0.464	0.435	0.362	0.519	0.363	0.377	0.376	0.405	0.756	0.978	0.714	0.365	0.227	0.299	0.240	0.191	0.192	0.317	0.516	0.464	0.257	0.174	0.176	0.162	0.116	0.205	0.345	0.576	2.472	13.25
610.0	27.19	18.45	15.27	10.93	9.852	9.058	10.26	10.73	12.84	17.38	40.55	64.65	18.99	11.49	10.19	29.54	222.2	153.5	5.617	1.731	1.504	1.504	1.254	1.213	1.145	1.242	1.156	1.184	1.155	1.160	1.053	0.851	0.884	0.850	0.875	0.773	0.784	0.723	0.678	0.564	0.533	0.607	0.551	0.529	0.531	0.518	0.422	0.410	0.351	0.326	0.393	0.295	0.327	0.266	0.309	0.426	0.722	0.726	0.532	0.286	0.227	0.165	0.161	0.214	0.226	0.287	0.481	0.460	0.236	0.152	0.157	0.148	0.157	0.190	0.242	0.667	3.167
615.0	22.41	17.13	17.03	12.01	9.359	8.986	10.36	11.33	12.53	15.65	24.39	62.02	35.07	12.43	9.929	12.31	65.72	252.3	45.13	1.447	1.169	1.263	0.919	1.133	0.939	0.885	1.040	0.974	1.027	0.882	0.984	0.792	0.722	0.699	0.693	0.673	0.644	0.605	0.613	0.525	0.476	0.508	0.429	0.386	0.397	0.360	0.356	0.359	0.283	0.316	0.292	0.228	0.237	0.241	0.322	0.310	0.397	0.602	0.616	0.418	0.223	0.143	0.180	0.177	0.213	0.230	0.308	0.393	0.396	0.216	0.200	0.144	0.159	0.132	0.157	0.251	0.795
620.0	15.66	17.91	14.09	13.41	7.793	8.401	10.36	11.19	11.78	14.70	18.46	44.56	50.02	14.25	8.449	8.728	21.10	178.0	139.2	2.311	1.160	0.953	0.901	0.849	0.941	0.847	0.787	0.723	0.764	0.743	0.746	0.813	0.609	0.599	0.591	0.573	0.571	0.544	0.579	0.467	0.373	0.367	0.381	0.332	0.366	0.333	0.331	0.271	0.249	0.273	0.231	0.199	0.245	0.266	0.282	0.201	0.265	0.443	0.543	0.481	0.286	0.191	0.163	0.180	0.165	0.172	0.222	0.334	0.441	0.313	0.170	0.150	0.132	0.130	0.128	0.169	0.309
625.0	17.20	19.22	15.65	11.58	8.534	9.486	10.76	10.01	12.89	14.58	16.12	28.09	55.53	18.13	9.353	7.989	9.853	72.78	223.0	13.71	1.098	0.920	0.842	0.737	0.838	0.702	0.671	0.645	0.685	0.622	0.641	0.582	0.565	0.479	0.496	0.473	0.484	0.380	0.502	0.481	0.333	0.291	0.401	0.310	0.343	0.283	0.284	0.305	0.215	0.278	0.197	0.184	0.201	0.217	0.193	0.196	0.216	0.309	0.389	0.455	0.333	0.173	0.154	0.182	0.142	0.207	0.185	0.204	0.351	0.426	0.257	0.168	0.112	0.108	0.092	0.136	0.162
630.0	18.65	17.88	15.36	11.55	7.903	8.043	10.76	9.815	11.24	13.19	15.27	20.79	44.07	32.42	10.87	7.475	7.080	20.80	158.6	99.11	2.608	0.792	0.739	0.680	0.648	0.566	0.570	0.559	0.520	0.549	0.560	0.490	0.403	0.404	0.392	0.428	0.393	0.316	0.362	0.432	0.373	0.301	0.379	0.254	0.263	0.235	0.208	0.251	0.236	0.247	0.153	0.176	0.173	0.161	0.189	0.167	0.188	0.214	0.268	0.373	0.371	0.218	0.187	0.189	0.168	0.142	0.204	0.133	0.199	0.285	0.337	0.196	0.164	0.126	0.129	0.121	0.128
635.0	19.60	26.03	18.00	12.87	8.058	7.749	10.46	10.42	11.23	12.86	14.41	17.17	27.58	41.90	13.79	6.998	5.889	7.535	47.46	175.9	24.59	0.754	0.701	0.546	0.543	0.426	0.521	0.525	0.431	0.406	0.420	0.325	0.382	0.324	0.307	0.374	0.292	0.285	0.269	0.282	0.352	0.301	0.273	0.195	0.233	0.215	0.164	0.227	0.173	0.160	0.154	0.166	0.148	0.140	0.144	0.165	0.154	0.144	0.194	0.246	0.391	0.254	0.245	0.150	0.184	0.135	0.156	0.150	0.137	0.157	0.264	0.369	0.233	0.139	0.102	0.098	0.089
640.0	23.23	24.67	19.27	12.41	8.734	7.859	10.12	10.79	10.78	12.17	13.17	16.20	20.18	40.50	20.99	7.145	5.736	4.626	12.98	135.0	68.46	1.274	0.581	0.533	0.459	0.479	0.453	0.464	0.416	0.368	0.400	0.362	0.356	0.268	0.296	0.279	0.261	0.296	0.254	0.210	0.286	0.277	0.229	0.216	0.196	0.192	0.160	0.200	0.174	0.120	0.161	0.156	0.125	0.101	0.099	0.132	0.159	0.141	0.168	0.159	0.293	0.300	0.247	0.158	0.145	0.145	0.150	0.122	0.151	0.164	0.218	0.401	0.245	0.158	0.135	0.130	0.098
645.0	28.52	24.20	20.40	12.95	10.65	7.376	9.875	10.49	9.364	11.41	13.11	15.13	16.10	33.11	29.23	7.872	5.582	3.502	4.687	57.88	143.3	7.544	0.544	0.476	0.452	0.480	0.379	0.472	0.317	0.307	0.368	0.318	0.289	0.269	0.296	0.259	0.253	0.208	0.249	0.224	0.285	0.287	0.280	0.224	0.194	0.198	0.167	0.180	0.171	0.135	0.127	0.119	0.118	0.133	0.092	0.129	0.126	0.174	0.117	0.132	0.181	0.226	0.259	0.172	0.150	0.132	0.132	0.142	0.119	0.155	0.143	0.249	0.292	0.204	0.107	0.107	0.120
650.0	26.86	23.54	20.69	16.01	10.01	7.808	8.835	9.661	9.398	10.78	13.11	14.92	14.91	23.56	34.59	10.74	6.058	3.472	2.589	17.03	143.4	40.31	0.705	0.455	0.361	0.397	0.424	0.321	0.231	0.371	0.359	0.336	0.280	0.244	0.275	0.234	0.192	0.192	0.189	0.183	0.212	0.268	0.342	0.260	0.188	0.169	0.208	0.178	0.164	0.137	0.116	0.129	0.110	0.128	0.119	0.130	0.144	0.135	0.113	0.130	0.155	0.180	0.245	0.193	0.169	0.152	0.135	0.141	0.144	0.115	0.112	0.152	0.209	0.305	0.148	0.127	0.122
