Sample:	'1
File name:	潍坊众谊汽车配件有限公司.FD3
Run date:	'11:28:40, 04/01/2025
Operator:	Administrator
Comment:	'

Instrument
Model:	F-2700 FL Spectrophotometer
Serial number:	23B8-004
ROM Version:	4J14000 07

Instrument parameters
Measurement type:	3-D scan
Data mode:	Fluorescence
EX  Start WL:	220.0 nm
EX  End WL:	600.0 nm
EX Sampling interval:	5.0 nm
EM  Start WL:	230.0 nm
EM  End WL:	650.0 nm
EM Sampling interval:	5.0 nm
Scan speed:	12000 nm/min
EX Slit:	5.0 nm
EM Slit:	5.0 nm
PMT Voltage:	700 V
Response:	Auto 
Corrected spectra:	Off
Contour interval:	50.000

Peak integration
Integration method:	Rectangular
Sensitivity:	1
Threshold:	1.000

Peaks
No.	ApexEX/EM(nm)	Height(Data)
1	235.0/345.0	912.7
2	240.0/265.0	310.0
3	240.0/365.0	954.6
4	240.0/525.0	191.6
5	245.0/270.0	353.2
6	245.0/380.0	942.9
7	245.0/540.0	189.0
8	250.0/275.0	487.8
9	250.0/550.0	164.5
10	255.0/280.0	594.9
11	255.0/560.0	143.4
12	260.0/575.0	133.5
13	265.0/585.0	132.0
14	270.0/300.0	1584
15	270.0/600.0	134.2
16	275.0/305.0	1670
17	275.0/400.0	738.2
18	275.0/610.0	112.5
19	280.0/625.0	87.43
20	285.0/635.0	53.03
21	305.0/345.0	570.1
22	310.0/350.0	496.3
23	315.0/355.0	480.8
24	315.0/400.0	562.7
25	320.0/365.0	490.7
26	325.0/370.0	481.2
27	325.0/405.0	568.5
28	330.0/375.0	486.8
29	330.0/410.0	569.0
30	335.0/385.0	493.4
31	455.0/540.0	14.37
32	480.0/355.0	3.726
33	485.0/265.0	1.593
34	495.0/270.0	1.858
35	505.0/275.0	3.014
36	510.0/280.0	3.199
37	520.0/285.0	3.745
38	530.0/290.0	4.199
39	540.0/295.0	6.666
40	545.0/300.0	8.030
41	550.0/305.0	7.593
42	560.0/310.0	6.516
43	570.0/315.0	5.450
44	575.0/320.0	4.785
45	585.0/325.0	4.531

Data points
	220.0	225.0	230.0	235.0	240.0	245.0	250.0	255.0	260.0	265.0	270.0	275.0	280.0	285.0	290.0	295.0	300.0	305.0	310.0	315.0	320.0	325.0	330.0	335.0	340.0	345.0	350.0	355.0	360.0	365.0	370.0	375.0	380.0	385.0	390.0	395.0	400.0	405.0	410.0	415.0	420.0	425.0	430.0	435.0	440.0	445.0	450.0	455.0	460.0	465.0	470.0	475.0	480.0	485.0	490.0	495.0	500.0	505.0	510.0	515.0	520.0	525.0	530.0	535.0	540.0	545.0	550.0	555.0	560.0	565.0	570.0	575.0	580.0	585.0	590.0	595.0	600.0
230.0	5.600	50.22	118.8	42.97	3.808	1.843	1.794	1.692	1.929	1.771	1.598	1.469	1.333	0.986	0.832	0.715	0.650	0.537	0.496	0.515	0.465	0.380	0.420	0.390	0.337	0.322	0.262	0.220	0.252	0.202	0.189	0.198	0.165	0.157	0.158	0.133	0.164	0.155	0.158	0.127	0.115	0.103	0.084	0.097	0.086	0.076	0.154	0.296	0.387	0.316	0.168	0.094	0.066	0.077	0.072	0.064	0.082	0.068	0.079	0.066	0.055	0.064	0.050	0.069	0.052	0.054	0.064	0.061	0.072	0.061	0.052	0.063	0.066	0.060	0.067	0.066	0.059
235.0	5.425	17.93	120.3	324.4	158.5	11.04	1.629	2.449	1.728	1.453	1.444	1.955	1.145	1.237	0.890	0.704	0.613	0.574	0.597	0.554	0.453	0.428	0.340	0.375	0.405	0.308	0.310	0.258	0.287	0.270	0.171	0.198	0.188	0.191	0.150	0.131	0.128	0.117	0.136	0.116	0.102	0.114	0.114	0.114	0.121	0.090	0.105	0.135	0.239	0.474	1.045	1.366	0.810	0.213	0.085	0.058	0.070	0.084	0.079	0.072	0.062	0.088	0.072	0.076	0.038	0.056	0.091	0.082	0.111	0.062	0.079	0.069	0.066	0.056	0.062	0.077	0.071
240.0	9.995	10.45	41.45	422.4	614.8	236.2	7.527	2.829	2.056	1.782	1.500	1.723	1.798	1.257	1.081	0.700	0.848	0.723	0.539	0.502	0.454	0.369	0.376	0.372	0.395	0.310	0.441	0.291	0.259	0.255	0.240	0.209	0.207	0.172	0.149	0.195	0.134	0.144	0.157	0.133	0.142	0.111	0.120	0.120	0.079	0.097	0.076	0.100	0.139	0.221	0.708	2.250	3.803	2.843	1.123	0.173	0.066	0.051	0.072	0.074	0.078	0.068	0.074	0.076	0.054	0.044	0.046	0.069	0.074	0.060	0.074	0.059	0.073	0.045	0.058	0.058	0.057
245.0	10.95	20.27	21.55	192.3	1058	1211	201.4	4.923	2.785	2.630	2.102	2.009	1.701	1.551	1.248	0.785	0.700	0.603	0.410	0.586	0.442	0.371	0.307	0.378	0.382	0.401	0.471	0.264	0.242	0.263	0.205	0.216	0.167	0.207	0.198	0.145	0.163	0.205	0.116	0.171	0.149	0.107	0.105	0.106	0.100	0.152	0.122	0.140	0.096	0.100	0.216	0.931	2.985	6.143	6.580	3.543	0.836	0.105	0.093	0.079	0.062	0.093	0.085	0.069	0.079	0.070	0.042	0.048	0.074	0.051	0.077	0.071	0.061	0.068	0.087	0.062	0.061
250.0	11.44	21.66	55.46	77.79	382.4	1442	1923	648.6	33.15	3.695	2.694	2.286	2.031	1.600	1.128	0.923	0.792	0.796	0.605	0.570	0.397	0.427	0.375	0.432	0.394	0.401	0.382	0.313	0.279	0.288	0.224	0.248	0.222	0.185	0.160	0.116	0.129	0.157	0.145	0.155	0.143	0.154	0.126	0.097	0.103	0.109	0.129	0.147	0.235	0.282	0.227	0.319	0.784	2.127	4.292	7.192	9.374	8.218	4.611	0.968	0.114	0.075	0.095	0.078	0.103	0.077	0.068	0.086	0.062	0.065	0.062	0.079	0.060	0.077	0.080	0.074	0.075
255.0	10.62	13.43	63.46	153.8	139.8	384.6	1662	2840	298.1	31.42	4.130	3.032	2.315	1.766	1.070	1.230	0.963	0.931	0.710	0.497	0.471	0.416	0.407	0.426	0.413	0.457	0.347	0.366	0.270	0.367	0.251	0.207	0.219	0.203	0.166	0.109	0.121	0.158	0.128	0.128	0.141	0.178	0.146	0.127	0.155	0.116	0.085	0.124	0.170	0.375	0.513	0.629	0.409	0.590	1.078	1.806	3.669	9.028	15.59	15.33	6.860	1.196	0.097	0.085	0.116	0.131	0.094	0.100	0.073	0.067	0.076	0.077	0.067	0.074	0.085	0.066	0.093
260.0	9.592	9.714	29.01	166.2	211.0	125.8	516.6	2615	2374	242.7	13.78	4.571	2.846	2.563	1.453	1.223	0.981	0.994	0.805	0.687	0.647	0.576	0.482	0.455	0.570	0.407	0.438	0.325	0.385	0.312	0.247	0.243	0.199	0.167	0.176	0.147	0.158	0.183	0.142	0.164	0.131	0.142	0.143	0.122	0.126	0.101	0.091	0.107	0.139	0.186	0.381	0.984	1.101	0.677	0.381	0.545	0.995	2.479	7.150	15.67	20.88	15.47	5.099	0.476	0.108	0.083	0.111	0.105	0.074	0.070	0.087	0.093	0.063	0.066	0.062	0.061	0.086
265.0	13.87	11.77	13.56	90.88	310.0	189.6	144.3	910.0	3470	2036	180.5	7.049	4.153	2.952	1.905	1.547	1.309	0.930	0.849	0.873	0.665	0.540	0.587	0.426	0.438	0.481	0.375	0.370	0.419	0.374	0.265	0.194	0.324	0.183	0.206	0.163	0.145	0.177	0.193	0.202	0.153	0.175	0.151	0.140	0.127	0.112	0.112	0.128	0.139	0.117	0.185	0.539	1.088	1.593	1.015	0.463	0.409	0.712	1.759	4.711	11.52	22.27	23.38	13.05	2.818	0.202	0.150	0.079	0.082	0.069	0.083	0.086	0.071	0.085	0.078	0.074	0.079
270.0	17.15	12.82	10.88	30.68	157.9	353.2	244.0	248.5	1147	3095	3393	711.8	34.53	4.292	2.727	2.211	1.501	1.299	0.927	0.948	0.721	0.606	0.634	0.453	0.644	0.566	0.448	0.488	0.432	0.391	0.308	0.284	0.306	0.224	0.256	0.205	0.163	0.182	0.170	0.153	0.163	0.156	0.174	0.130	0.168	0.149	0.167	0.140	0.122	0.104	0.118	0.227	0.393	0.836	1.507	1.858	1.589	0.802	0.630	1.234	2.851	6.561	11.91	18.41	22.33	18.77	10.41	2.689	0.285	0.121	0.117	0.128	0.086	0.099	0.101	0.087	0.082
275.0	21.80	17.70	16.83	22.03	51.15	169.7	487.8	299.7	314.3	814.2	2808	5509	961.6	26.13	3.683	2.487	2.709	1.370	1.333	1.078	0.888	0.688	0.784	0.655	0.677	0.488	0.413	0.488	0.408	0.370	0.374	0.365	0.363	0.225	0.266	0.219	0.182	0.166	0.155	0.149	0.157	0.166	0.153	0.123	0.162	0.176	0.180	0.116	0.119	0.147	0.136	0.138	0.174	0.321	0.495	0.942	1.904	3.014	1.914	0.930	0.908	1.670	3.021	4.505	6.944	14.15	27.77	28.95	14.79	2.777	0.247	0.125	0.104	0.141	0.113	0.074	0.088
280.0	27.63	28.15	31.84	35.08	33.99	66.18	323.9	594.9	263.8	305.4	898.8	4284	5521	146.7	12.71	3.676	3.159	1.863	1.720	1.108	1.010	0.677	0.847	0.660	0.466	0.566	0.546	0.592	0.457	0.498	0.389	0.430	0.321	0.298	0.255	0.258	0.223	0.211	0.203	0.256	0.169	0.202	0.190	0.157	0.185	0.205	0.202	0.139	0.173	0.159	0.160	0.163	0.184	0.191	0.238	0.407	0.790	2.077	3.199	2.746	1.409	0.924	1.280	1.516	2.256	4.122	10.03	21.66	33.31	26.21	10.26	1.323	0.167	0.158	0.134	0.115	0.134
285.0	30.71	41.53	52.82	53.03	41.94	55.26	152.2	559.4	613.1	295.6	419.1	1478	5558	4073	108.3	7.056	4.266	2.727	1.632	1.357	1.081	1.122	0.902	0.719	0.713	0.787	0.525	0.614	0.483	0.528	0.433	0.386	0.345	0.345	0.277	0.234	0.212	0.264	0.172	0.228	0.135	0.198	0.191	0.179	0.150	0.224	0.211	0.218	0.254	0.234	0.215	0.259	0.232	0.212	0.242	0.329	0.463	0.896	1.713	3.100	3.745	2.474	1.386	1.401	1.546	2.132	3.322	6.450	14.05	27.42	33.18	21.78	6.131	0.499	0.163	0.111	0.151
290.0	39.96	65.03	95.49	89.90	69.79	77.09	128.5	322.1	747.8	841.6	632.1	804.0	1875	3749	3782	433.8	24.91	3.549	2.331	1.704	1.405	1.050	1.028	0.769	0.785	0.746	0.572	0.594	0.544	0.499	0.424	0.423	0.348	0.375	0.316	0.327	0.280	0.272	0.212	0.225	0.193	0.218	0.195	0.168	0.205	0.206	0.242	0.304	0.315	0.356	0.324	0.399	0.326	0.338	0.326	0.349	0.510	0.667	1.052	1.616	2.669	3.683	4.199	3.977	2.952	2.737	2.865	3.566	4.982	8.165	13.41	19.98	23.53	22.34	14.20	4.766	0.629
295.0	44.20	79.15	122.5	138.3	96.38	102.5	161.1	290.7	540.6	1090	1264	889.2	913.9	1084	2372	4793	639.0	17.42	3.428	2.327	1.709	1.391	1.176	0.998	0.857	0.888	0.638	0.635	0.576	0.622	0.559	0.410	0.366	0.368	0.339	0.409	0.331	0.334	0.221	0.184	0.271	0.220	0.222	0.185	0.230	0.228	0.270	0.313	0.429	0.447	0.381	0.484	0.431	0.392	0.519	0.459	0.676	0.825	1.003	1.353	1.950	2.398	3.321	5.536	6.666	5.478	3.892	3.870	3.764	3.967	4.705	5.607	6.616	10.83	23.24	31.30	21.04
300.0	44.42	87.39	143.5	152.3	126.5	130.8	188.7	309.5	528.7	908.9	1584	1256	792.8	508.8	700.1	3309	5474	88.47	8.647	2.865	2.504	1.599	1.478	1.139	0.980	1.054	0.822	0.735	0.678	0.572	0.496	0.408	0.337	0.445	0.396	0.342	0.317	0.368	0.321	0.179	0.241	0.244	0.207	0.213	0.238	0.253	0.270	0.369	0.454	0.444	0.480	0.594	0.581	0.549	0.567	0.505	0.714	0.883	1.194	1.602	1.991	2.230	3.065	4.215	6.175	8.030	6.909	4.751	3.772	3.163	3.000	2.556	2.251	3.068	6.675	16.30	29.03
305.0	57.88	89.77	142.8	154.9	142.0	155.1	214.3	336.3	551.7	850.2	1381	1670	933.8	439.2	287.7	975.8	5145	3152	70.54	4.811	2.867	1.949	1.514	1.126	1.119	1.013	0.771	0.704	0.645	0.475	0.543	0.355	0.464	0.430	0.360	0.400	0.344	0.331	0.295	0.265	0.247	0.265	0.158	0.208	0.192	0.259	0.309	0.384	0.495	0.546	0.597	0.681	0.590	0.591	0.675	0.738	0.905	1.131	1.297	1.779	2.050	2.328	3.036	3.939	4.582	6.147	7.593	7.552	5.381	3.724	2.819	2.047	1.550	1.365	2.006	4.209	9.533
310.0	55.55	79.86	150.5	171.1	163.1	180.7	243.3	362.5	555.7	812.1	1128	1440	1292	586.3	238.2	307.3	1475	2604	2892	304.0	17.15	2.807	2.063	1.561	1.098	1.116	0.954	0.847	0.622	0.683	0.504	0.412	0.461	0.400	0.404	0.376	0.304	0.276	0.285	0.249	0.272	0.232	0.225	0.201	0.220	0.272	0.265	0.326	0.473	0.522	0.519	0.715	0.609	0.699	0.716	0.746	0.991	1.124	1.404	1.691	2.172	2.317	3.063	3.813	4.131	4.833	5.505	6.352	6.516	6.161	4.439	2.539	1.724	1.204	1.142	1.502	2.692
315.0	59.16	80.33	148.2	189.6	182.2	198.0	262.8	373.8	541.3	758.9	1001	1119	1125	940.9	344.9	193.0	416.3	654.6	1723	3282	454.6	13.66	3.020	1.999	1.373	1.197	1.225	1.015	0.783	0.729	0.575	0.589	0.412	0.545	0.441	0.441	0.338	0.283	0.316	0.280	0.271	0.204	0.272	0.245	0.198	0.290	0.268	0.345	0.454	0.511	0.597	0.683	0.763	0.709	0.720	0.895	1.005	1.173	1.411	1.592	2.121	2.417	3.017	3.251	3.836	4.365	4.657	4.766	4.525	5.190	5.450	4.660	2.883	1.589	1.046	1.195	1.321
320.0	76.36	89.98	176.0	239.9	221.2	223.6	276.5	375.0	542.8	740.8	947.1	1030	946.0	949.0	637.4	237.0	218.1	224.0	482.6	2229	2982	66.64	6.501	2.468	1.889	1.692	1.164	1.036	0.905	0.853	0.774	0.678	0.557	0.531	0.467	0.399	0.343	0.326	0.413	0.334	0.242	0.260	0.258	0.233	0.238	0.290	0.254	0.410	0.559	0.617	0.780	0.861	0.811	0.850	0.816	0.984	1.107	1.247	1.469	1.586	2.064	2.424	2.921	3.182	3.572	3.978	4.488	4.387	4.087	4.234	4.061	4.785	4.715	3.222	1.860	1.460	1.203
325.0	84.14	119.3	249.5	371.6	304.1	255.6	299.4	395.8	550.1	746.5	936.7	1023	923.0	792.6	821.7	436.5	223.2	165.8	180.5	666.9	2675	2333	55.84	4.430	2.377	1.823	1.480	1.146	1.088	0.888	0.691	0.570	0.465	0.571	0.519	0.383	0.494	0.380	0.482	0.291	0.303	0.219	0.233	0.325	0.251	0.286	0.306	0.409	0.706	0.919	1.033	1.318	1.213	0.975	0.956	0.972	1.220	1.373	1.600	1.799	2.298	2.544	2.654	3.124	3.754	3.846	4.242	4.222	4.199	3.953	3.540	3.662	4.007	4.531	3.806	2.618	1.686
330.0	87.14	152.0	367.5	601.9	495.9	337.5	346.2	435.0	568.7	749.8	937.1	1027	952.8	775.7	717.3	683.4	412.7	213.7	156.0	229.6	796.2	1990	2222	243.8	14.19	2.672	1.761	1.420	1.145	0.962	0.777	0.772	0.589	0.637	0.515	0.496	0.443	0.407	0.403	0.309	0.340	0.317	0.296	0.283	0.211	0.302	0.385	0.523	0.899	1.298	1.563	2.195	1.953	1.583	1.401	1.311	1.408	1.467	1.698	1.853	2.168	2.511	2.768	3.176	3.919	4.190	4.213	4.264	4.365	4.225	3.850	3.572	3.368	3.730	3.999	4.160	3.424
335.0	102.4	169.6	474.9	767.6	677.1	448.8	394.0	463.7	580.9	739.3	906.4	1009	977.5	825.5	680.4	604.6	646.8	367.0	198.6	167.8	266.7	526.0	1418	2749	376.4	12.72	2.569	1.865	1.424	1.141	1.028	0.868	0.651	0.604	0.506	0.475	0.441	0.381	0.404	0.364	0.400	0.342	0.302	0.294	0.228	0.344	0.352	0.695	1.125	1.683	2.172	2.879	2.547	2.326	1.803	1.506	1.572	1.779	1.739	2.090	2.174	2.354	3.030	3.175	3.743	4.048	3.986	4.193	4.356	4.324	4.008	3.824	3.442	3.384	3.266	3.574	3.583
340.0	110.0	180.6	492.4	841.5	787.4	526.2	443.4	475.9	587.1	729.0	890.6	998.6	977.8	838.6	694.6	572.4	593.3	545.3	270.5	178.9	171.2	200.1	417.5	1964	2440	301.4	5.358	2.283	1.697	1.314	0.995	0.751	0.868	0.655	0.623	0.595	0.534	0.361	0.397	0.317	0.434	0.418	0.370	0.305	0.288	0.308	0.384	0.659	1.234	1.635	2.472	3.254	3.031	2.571	2.156	1.776	1.909	1.836	1.866	2.059	2.420	2.474	2.844	3.158	3.675	3.723	3.943	4.134	4.261	4.247	3.906	3.688	3.758	3.518	3.161	3.157	3.019
345.0	110.1	184.7	495.0	912.7	841.0	594.5	478.5	490.3	588.6	709.6	873.0	959.3	948.5	840.7	711.0	569.7	504.5	570.1	416.8	217.5	172.2	147.4	164.4	600.0	2271	2387	47.13	3.358	1.912	1.464	1.019	0.825	0.816	0.835	0.552	0.637	0.451	0.373	0.339	0.332	0.359	0.413	0.368	0.340	0.278	0.304	0.427	0.603	1.082	1.723	2.482	3.414	3.524	2.942	2.440	2.029	2.109	2.066	1.976	2.106	2.309	2.603	2.757	2.943	3.513	3.574	3.929	4.033	4.086	4.189	3.948	3.919	3.630	3.459	3.226	3.047	2.982
350.0	108.3	177.5	459.9	899.0	913.8	684.5	539.7	523.1	595.6	696.0	827.6	907.3	908.3	826.4	708.7	587.7	493.6	467.6	496.3	365.0	223.5	173.4	140.8	203.2	684.8	2106	1712	211.8	11.44	2.035	1.362	1.003	0.873	0.821	0.600	0.574	0.467	0.374	0.439	0.386	0.396	0.377	0.346	0.370	0.275	0.322	0.388	0.682	1.083	1.609	2.319	3.354	3.573	3.038	2.685	2.232	2.349	2.166	2.244	2.210	2.359	2.635	2.769	3.041	3.325	3.416	3.805	3.826	4.047	3.899	3.902	3.680	3.640	3.517	3.507	3.301	3.021
355.0	98.91	160.7	419.4	858.5	931.3	766.8	609.1	557.6	617.2	694.8	790.3	858.1	856.9	799.3	694.3	602.7	510.5	450.3	428.0	480.8	358.9	228.0	174.6	149.0	223.9	533.9	1160	2126	319.1	9.276	2.008	1.166	1.037	0.909	0.764	0.548	0.542	0.519	0.422	0.416	0.476	0.379	0.326	0.293	0.295	0.347	0.326	0.535	0.973	1.439	2.135	3.203	3.726	3.133	3.086	2.596	2.362	2.338	2.357	2.463	2.577	2.596	2.729	3.111	3.348	3.317	3.434	3.632	3.594	3.794	3.787	3.861	3.762	3.553	3.375	3.242	3.212
360.0	100.3	158.1	406.4	803.0	936.5	817.5	660.4	597.3	629.2	696.0	772.8	822.7	820.4	772.2	698.0	607.0	524.3	463.6	412.4	446.6	481.5	308.4	209.8	164.0	143.8	181.7	344.4	1661	1856	52.36	4.017	1.763	1.176	1.002	0.632	0.649	0.611	0.495	0.346	0.456	0.474	0.351	0.330	0.368	0.312	0.321	0.343	0.597	0.889	1.326	2.058	3.138	3.589	3.275	3.170	3.026	2.652	2.526	2.460	2.509	2.451	2.573	2.770	3.024	3.171	3.366	3.522	3.537	3.434	3.581	3.545	3.664	3.743	3.793	3.256	3.173	3.135
365.0	104.3	145.6	388.3	783.0	954.6	854.3	699.1	619.2	636.1	696.8	754.6	798.6	793.5	754.5	685.6	612.9	537.0	484.1	435.5	418.1	490.7	425.2	264.7	196.8	150.6	123.5	131.4	526.2	1863	1664	41.17	2.784	1.484	1.148	0.878	0.737	0.577	0.549	0.345	0.497	0.462	0.341	0.400	0.295	0.285	0.322	0.345	0.545	0.800	1.319	1.838	3.011	3.601	3.194	3.270	2.991	2.894	2.574	2.586	2.448	2.508	2.699	2.782	3.198	3.247	3.285	3.364	3.344	3.278	3.355	3.627	3.560	3.642	3.551	3.346	3.348	3.028
370.0	93.65	131.3	346.1	723.8	947.3	896.3	745.1	656.7	654.2	693.0	741.4	777.7	764.4	731.2	672.0	612.2	555.6	513.7	469.7	438.8	446.8	481.2	404.1	268.3	195.9	146.4	114.5	172.7	579.3	1600	1426	184.3	9.152	1.758	1.134	0.799	0.614	0.581	0.476	0.423	0.416	0.418	0.311	0.340	0.297	0.304	0.352	0.478	0.740	1.166	1.764	2.867	3.381	3.447	3.393	3.177	3.123	2.932	2.767	2.608	2.682	2.736	2.801	3.000	3.089	3.204	3.340	3.249	3.328	3.397	3.409	3.447	3.427	3.593	3.395	3.382	3.288
375.0	88.86	114.3	315.0	673.7	927.6	920.0	800.3	688.2	672.3	695.9	738.0	768.5	742.4	710.6	671.6	609.8	573.5	540.6	504.9	476.1	459.4	454.5	486.8	402.1	262.8	196.4	145.1	124.8	187.1	415.0	1050	1692	258.8	6.865	1.703	1.118	0.735	0.682	0.505	0.486	0.395	0.423	0.323	0.291	0.271	0.271	0.307	0.468	0.706	1.115	1.624	2.724	3.141	3.455	3.421	3.393	3.318	3.208	2.873	2.684	2.736	2.926	2.814	3.126	2.983	3.132	3.260	3.276	3.166	3.367	3.354	3.340	3.262	3.413	3.389	3.436	3.365
380.0	72.09	109.1	281.1	628.5	930.6	942.9	814.7	718.4	684.9	698.5	732.6	739.2	732.5	703.9	658.4	604.0	577.2	549.4	526.3	506.7	482.4	463.6	472.7	492.1	342.9	243.7	182.6	142.0	120.8	147.2	314.5	1359	1430	42.28	3.771	1.621	0.966	0.706	0.571	0.415	0.415	0.364	0.425	0.296	0.296	0.312	0.286	0.376	0.669	1.079	1.393	2.606	3.164	3.350	3.503	3.201	3.332	3.303	2.889	2.932	2.910	2.803	3.062	3.013	2.935	3.101	3.172	3.040	3.064	3.249	3.230	3.400	3.415	3.367	3.559	3.497	3.255
385.0	75.09	101.9	262.7	614.2	906.4	940.4	840.0	736.1	695.6	703.6	731.5	738.0	722.4	695.3	657.3	605.5	579.0	554.8	539.0	523.3	507.6	484.8	466.4	493.4	447.5	302.8	225.1	173.1	131.8	106.5	117.1	437.5	1471	1101	32.59	2.553	1.328	0.749	0.627	0.584	0.503	0.386	0.444	0.294	0.281	0.308	0.382	0.469	0.624	0.956	1.430	2.305	3.202	3.553	3.718	3.145	3.457	3.096	3.019	2.923	2.926	3.005	3.188	2.963	2.878	3.120	3.077	3.081	2.998	3.204	3.206	3.273	3.211	3.180	3.543	3.464	3.579
390.0	73.11	96.69	252.6	566.2	866.0	929.1	843.5	754.7	714.0	708.7	729.9	736.8	718.1	684.0	652.5	603.7	577.8	561.8	551.6	542.9	532.9	519.7	494.1	483.5	486.3	420.9	299.8	226.7	177.5	132.8	102.0	146.9	460.8	1089	796.8	139.2	7.418	1.470	0.880	0.659	0.565	0.439	0.402	0.350	0.299	0.337	0.350	0.426	0.631	0.944	1.290	2.397	2.905	3.284	3.481	3.307	3.633	3.272	3.223	3.006	2.929	2.905	3.004	2.912	3.162	3.058	3.143	3.164	3.119	3.062	3.055	3.103	3.271	3.226	3.235	3.369	3.598
395.0	60.94	96.23	238.5	537.3	849.1	927.1	857.8	782.2	724.6	722.9	731.8	731.5	724.7	684.7	649.2	604.0	572.4	560.8	562.0	555.4	556.2	546.7	531.0	505.5	483.6	483.9	418.8	297.9	235.3	182.9	131.7	108.2	150.4	290.2	718.0	1171	203.1	6.361	1.366	0.836	0.784	0.469	0.431	0.370	0.318	0.353	0.287	0.435	0.551	0.848	1.309	2.272	2.600	3.064	3.448	3.443	3.790	3.399	3.236	2.978	3.116	2.993	3.167	3.004	3.152	2.943	3.096	3.170	3.025	3.224	3.064	3.075	3.269	3.106	3.107	3.522	3.517
400.0	55.82	95.13	220.4	523.4	812.3	921.5	874.9	791.1	740.8	731.1	733.5	738.2	722.8	689.5	646.2	599.8	566.4	554.1	557.7	562.7	559.8	561.3	553.0	528.2	498.3	485.8	484.2	373.6	279.9	221.4	165.9	119.6	98.94	109.1	223.6	949.0	1036	36.53	2.834	1.329	0.846	0.554	0.487	0.345	0.362	0.326	0.332	0.405	0.539	0.843	1.259	2.036	2.516	3.363	3.411	3.287	3.605	3.584	3.297	3.199	3.225	3.182	2.984	2.994	3.287	3.010	3.089	3.226	3.255	3.292	3.243	3.043	3.418	3.225	3.188	3.550	3.233
405.0	55.57	91.64	215.8	511.5	782.7	883.1	855.9	795.6	748.2	733.6	730.4	737.0	708.4	693.9	648.4	592.1	558.5	547.1	551.9	562.2	566.6	568.5	565.6	546.1	521.1	486.4	484.2	451.3	332.1	253.7	198.2	143.1	104.0	78.61	87.07	309.3	1053	792.6	27.79	1.905	1.167	0.738	0.503	0.464	0.404	0.324	0.385	0.453	0.562	0.810	1.294	1.913	2.471	3.077	3.281	3.195	3.469	3.400	3.357	3.106	3.412	3.078	3.079	3.105	3.178	2.931	3.212	3.334	3.112	3.266	3.093	3.302	3.219	3.461	3.421	3.394	3.331
410.0	50.85	76.41	202.4	472.6	752.7	859.5	840.9	802.6	753.3	732.4	729.1	734.2	711.5	685.1	639.8	582.1	544.8	537.2	538.8	550.4	558.8	567.9	569.0	557.2	537.6	503.8	476.2	468.7	418.2	312.2	234.2	174.3	126.6	90.53	70.45	104.6	326.5	752.0	586.3	126.6	6.355	0.904	0.668	0.524	0.417	0.361	0.394	0.429	0.526	0.785	1.157	1.948	2.436	2.981	3.066	3.126	3.548	3.480	3.331	3.209	3.291	3.201	3.035	3.193	3.127	3.140	3.181	3.084	3.087	3.178	3.063	3.343	3.366	3.513	3.306	3.214	3.244
415.0	44.83	67.07	193.4	446.0	716.9	825.4	816.5	801.2	751.0	729.1	729.0	719.3	694.4	665.4	620.3	565.5	527.6	515.0	517.8	525.6	538.7	551.8	560.2	557.6	544.3	510.6	475.1	451.3	440.5	384.8	275.2	202.0	147.5	108.9	78.77	67.29	101.2	195.7	493.8	845.7	190.7	4.037	1.009	0.693	0.490	0.376	0.438	0.396	0.671	0.739	1.053	1.903	2.414	2.769	2.965	3.116	3.509	3.470	3.312	3.271	3.148	3.169	3.118	3.256	2.858	3.101	3.275	3.096	3.285	3.155	3.181	3.276	3.211	3.338	3.040	3.171	3.266
420.0	37.14	74.64	183.7	416.7	682.9	806.0	803.2	794.4	753.0	727.2	719.4	703.1	682.4	649.6	599.7	544.0	504.9	496.7	502.1	511.3	523.4	536.3	546.1	553.2	534.9	510.7	475.8	445.4	426.2	407.9	317.8	221.7	162.0	120.7	89.87	65.62	56.86	64.63	147.3	655.7	962.5	32.10	1.999	0.828	0.652	0.489	0.414	0.467	0.591	0.729	1.055	1.706	2.249	2.789	2.787	2.904	3.265	3.127	3.140	3.098	3.175	2.960	3.027	3.146	2.764	2.954	3.069	2.903	3.050	2.861	3.278	3.309	3.120	3.181	2.966	2.983	3.236
425.0	42.67	68.34	171.9	400.6	646.7	774.9	800.9	768.9	747.4	715.4	698.3	687.3	668.9	629.3	588.6	528.7	487.8	477.1	480.6	495.1	507.3	515.7	530.8	533.5	526.9	503.8	472.8	442.7	408.5	394.7	349.2	245.7	174.3	130.2	99.84	71.42	52.61	39.62	49.95	203.9	945.5	582.2	25.53	1.569	0.777	0.525	0.420	0.468	0.593	0.683	0.968	1.663	2.193	2.602	2.729	2.891	3.207	3.148	3.210	3.108	3.412	3.169	3.007	2.894	3.115	2.917	2.831	2.904	2.915	2.802	3.076	3.086	3.128	3.224	2.778	2.754	3.166
430.0	45.89	61.61	162.7	379.1	622.6	735.1	776.9	757.2	735.2	712.3	688.7	672.4	641.9	609.8	563.8	508.8	465.4	455.3	457.1	465.4	480.2	493.9	507.4	512.1	508.0	488.3	464.0	436.5	401.4	372.5	340.5	284.9	200.8	144.0	111.5	82.87	59.82	40.62	33.36	60.16	277.5	524.6	468.6	117.1	6.347	0.904	0.615	0.551	0.634	0.683	0.932	1.538	1.983	2.468	2.562	2.840	3.100	3.168	3.275	3.007	3.278	3.123	2.920	2.866	2.968	2.815	2.825	2.798	2.893	2.873	2.940	2.869	2.891	3.035	2.776	2.633	2.866
435.0	69.41	58.74	159.5	359.0	595.4	710.0	743.2	748.5	727.3	697.1	672.5	654.5	625.0	593.7	543.4	483.4	442.1	431.5	432.6	438.4	452.6	464.4	475.8	486.5	486.0	469.1	447.0	425.5	394.7	360.4	314.1	286.2	237.2	164.5	121.6	93.84	68.87	48.80	35.76	32.82	75.93	131.8	355.7	686.5	176.9	4.711	1.012	0.592	0.624	0.660	0.920	1.629	1.941	2.385	2.582	2.908	3.006	3.040	3.069	3.193	3.180	3.080	2.847	3.080	2.886	2.738	2.741	2.712	2.580	2.689	2.675	2.695	2.966	2.832	2.753	2.610	2.586
440.0	83.83	63.48	141.1	351.8	563.5	683.8	728.7	735.2	718.8	683.1	660.3	636.1	598.2	566.9	523.3	467.0	427.3	415.2	412.0	419.6	430.6	442.5	454.4	464.3	464.7	450.4	435.4	411.1	385.1	350.5	306.4	268.2	247.3	186.8	133.0	99.24	75.75	56.39	40.46	30.58	32.98	41.33	102.2	498.7	691.2	30.76	2.305	0.910	0.738	0.717	1.006	1.512	2.042	2.379	2.556	2.694	2.906	3.099	2.991	3.025	3.047	3.136	3.121	2.976	2.835	2.695	2.710	2.653	2.499	2.693	2.674	2.854	2.830	2.648	2.526	2.537	2.527
445.0	88.33	75.01	135.6	325.5	545.9	654.6	702.3	718.8	697.1	670.2	639.6	613.3	579.1	550.6	503.2	446.8	409.0	392.7	393.4	396.3	408.5	417.8	429.9	439.9	439.6	431.6	418.1	396.7	370.3	338.1	301.6	254.6	232.4	204.9	147.3	104.8	81.04	61.11	45.09	33.87	26.48	23.61	33.42	149.4	610.0	554.9	23.91	1.542	0.969	0.800	0.972	1.493	2.006	2.179	2.449	2.381	2.759	3.041	2.898	2.712	3.041	2.988	2.907	2.912	2.745	2.704	2.797	2.433	2.398	2.784	2.622	2.602	2.957	2.585	2.531	2.539	2.321
450.0	60.68	92.09	135.6	298.9	503.2	622.9	668.3	679.5	665.1	640.8	620.4	589.2	552.0	513.2	470.3	416.6	381.3	365.3	363.7	365.7	376.1	384.9	396.0	403.1	403.2	397.2	385.5	370.0	351.7	322.7	286.5	246.1	210.7	193.7	164.8	119.5	87.56	66.64	51.68	39.21	30.35	23.29	20.98	43.50	173.3	451.4	394.6	114.2	6.587	1.052	1.066	1.489	1.776	1.973	2.241	2.403	2.622	2.813	2.854	2.788	2.894	2.761	2.732	2.688	2.562	2.523	2.561	2.552	2.437	2.569	2.529	2.465	2.618	2.472	2.372	2.244	2.180
455.0	34.64	92.79	149.4	286.7	457.0	576.2	622.7	631.4	631.6	607.4	583.7	551.2	512.2	480.0	431.8	381.4	346.7	337.8	329.7	332.3	340.3	350.6	356.6	363.8	362.0	356.9	348.6	337.1	322.5	300.7	268.6	233.6	198.2	171.8	158.0	137.4	98.35	73.18	57.91	44.52	35.56	27.97	21.69	22.14	48.76	110.6	244.7	578.3	161.1	7.338	1.422	1.369	1.816	1.836	2.131	2.206	2.605	2.815	2.582	2.588	2.684	2.634	2.668	2.515	2.407	2.299	2.358	2.418	2.447	2.348	2.295	2.351	2.404	2.325	2.380	2.002	2.219
460.0	27.75	80.94	174.8	276.5	433.5	541.7	593.0	604.6	595.4	578.0	554.2	516.2	478.2	446.0	405.6	360.5	323.7	310.1	307.2	309.0	312.3	319.1	328.6	334.3	334.5	327.0	319.5	312.4	299.1	280.4	254.2	219.3	187.8	161.7	143.9	138.6	111.1	77.74	60.34	49.56	39.11	30.61	23.81	18.99	21.85	32.89	67.04	356.8	543.0	121.6	3.718	1.647	1.729	1.851	2.077	2.101	2.397	2.541	2.587	2.452	2.550	2.502	2.581	2.306	2.446	2.243	2.164	2.116	2.285	2.175	2.279	2.169	2.040	2.048	2.387	1.934	1.938
465.0	25.58	51.43	197.8	296.3	398.9	501.1	562.1	571.4	568.1	552.9	526.3	487.8	452.9	417.4	377.8	338.6	297.4	286.6	285.9	287.1	285.9	291.2	303.2	304.9	307.2	302.5	293.9	286.2	277.5	259.7	239.2	210.2	179.9	154.1	136.1	127.2	117.8	85.18	62.50	50.99	41.07	33.07	25.80	20.80	17.59	17.48	22.63	99.36	416.9	468.2	22.16	2.534	1.775	1.686	1.945	2.080	2.202	2.392	2.325	2.348	2.354	2.469	2.399	2.374	2.507	2.243	2.148	2.159	2.230	2.162	2.196	2.142	2.113	1.765	1.953	1.787	1.836
470.0	25.24	36.98	162.7	405.2	404.0	457.3	502.8	515.2	522.9	500.0	478.3	444.2	411.2	380.3	341.3	302.6	270.5	258.2	253.1	255.2	253.8	259.3	267.5	269.8	269.8	268.6	261.4	254.9	247.0	236.2	216.4	192.4	166.5	144.7	125.4	112.1	106.0	93.16	69.73	53.00	42.64	35.28	28.48	22.86	18.66	15.68	13.77	29.29	113.4	298.7	384.9	110.1	8.709	1.994	1.872	1.886	2.111	2.166	2.131	2.209	2.224	2.251	2.275	2.222	2.164	2.058	2.030	1.939	2.023	1.824	1.961	1.983	1.865	1.658	1.719	1.751	1.763
475.0	24.00	34.18	107.2	487.1	556.6	412.0	450.4	470.0	467.3	451.7	428.6	400.5	371.6	339.2	306.7	268.8	242.3	226.4	223.0	220.8	224.0	227.1	234.0	236.9	233.7	233.9	228.6	221.8	217.4	211.8	192.0	173.2	153.5	134.0	115.0	102.0	90.67	88.01	76.87	56.50	43.88	36.12	29.62	24.65	19.80	15.81	13.54	14.54	31.02	71.69	160.0	366.3	166.9	10.60	1.953	1.863	1.831	1.847	2.044	2.100	1.950	1.880	2.019	1.836	1.825	1.959	1.723	1.693	1.913	1.680	1.823	1.657	1.699	1.657	1.608	1.687	1.611
480.0	22.07	33.46	78.01	383.6	735.6	428.8	414.2	432.5	439.7	418.7	395.2	371.0	343.1	313.3	285.4	249.2	222.4	212.3	205.0	200.8	203.1	205.1	210.8	214.1	210.6	212.9	205.7	201.7	197.9	193.1	177.5	160.3	142.2	125.0	108.2	95.34	83.78	77.44	78.15	63.50	45.97	36.43	30.29	24.51	20.64	16.79	13.65	11.88	13.57	20.81	41.25	177.2	413.2	138.9	5.476	1.766	1.868	1.805	1.954	1.917	1.733	1.837	2.012	1.826	1.669	1.698	1.627	1.549	1.747	1.502	1.665	1.599	1.508	1.526	1.527	1.473	1.308
485.0	21.62	33.62	71.52	250.9	926.9	573.9	389.6	407.9	406.4	393.3	377.7	349.8	318.6	289.1	266.1	230.7	207.4	196.1	190.5	185.8	186.6	188.4	191.3	197.1	195.3	193.2	189.4	187.0	182.8	176.0	165.4	149.3	133.0	116.9	102.8	91.88	80.10	70.84	71.01	67.63	49.59	37.31	30.87	25.74	21.60	17.81	14.23	11.61	10.33	10.35	13.54	46.87	254.9	371.5	27.92	3.130	1.870	1.826	1.856	1.848	1.832	1.785	1.813	1.769	1.533	1.565	1.593	1.609	1.628	1.501	1.430	1.489	1.442	1.426	1.279	1.363	1.239
490.0	22.77	36.41	66.74	173.2	656.2	1082	443.5	373.8	373.3	356.1	342.4	318.5	293.3	266.2	242.7	211.6	188.9	174.5	172.2	168.9	168.5	168.7	172.5	173.3	173.9	171.4	167.7	166.9	164.3	160.4	150.4	136.1	121.7	108.3	96.54	86.00	74.70	65.99	61.39	60.69	55.29	41.92	31.48	26.42	22.37	18.75	15.23	12.49	10.18	8.681	7.901	14.43	65.85	191.1	299.0	117.8	11.03	2.087	1.850	1.735	1.612	1.625	1.712	1.636	1.592	1.598	1.462	1.375	1.357	1.348	1.302	1.317	1.367	1.303	1.226	1.216	1.203
495.0	17.05	32.67	66.83	143.2	346.0	1133	859.9	340.2	335.1	325.6	311.9	285.8	263.8	239.7	217.7	188.0	168.9	157.7	152.2	147.8	148.5	147.7	150.8	151.9	152.9	151.2	147.1	145.1	146.2	140.7	134.2	122.5	109.7	97.92	87.94	78.38	69.25	62.35	55.62	50.77	51.37	46.60	34.70	27.08	22.57	19.40	16.27	13.40	10.80	8.857	6.975	7.476	18.29	46.05	114.2	322.4	195.6	15.31	1.912	1.649	1.515	1.687	1.488	1.406	1.435	1.312	1.370	1.417	1.112	1.161	1.277	1.229	1.150	1.183	1.199	1.198	1.125
500.0	13.61	31.84	80.57	123.4	248.6	775.6	1293	390.3	308.8	301.0	282.3	259.9	242.0	220.9	197.7	170.4	153.8	142.1	137.9	134.8	131.9	132.9	135.1	137.4	137.7	134.6	131.9	130.4	131.8	126.9	124.6	112.0	100.8	90.23	80.59	72.73	65.79	58.81	52.04	47.08	44.82	45.48	38.90	28.52	23.00	19.46	16.56	13.71	11.23	8.959	7.075	6.158	7.849	14.00	29.20	139.0	367.5	173.2	8.479	1.723	1.372	1.539	1.356	1.440	1.429	1.219	1.179	1.298	1.093	1.091	1.181	1.113	1.131	1.145	1.078	1.016	0.930
505.0	11.79	26.05	76.69	121.3	198.8	429.2	1417	646.4	289.8	271.1	256.2	246.0	221.8	200.3	179.2	157.8	139.4	131.1	124.7	121.1	120.3	121.8	121.9	122.1	123.0	121.4	119.0	117.4	118.0	114.9	111.2	102.1	91.89	84.24	75.90	67.69	60.03	55.51	48.45	43.47	39.91	40.43	39.54	30.23	22.53	19.04	16.15	13.83	11.61	9.590	7.695	6.488	5.832	6.498	9.729	35.98	189.7	383.5	112.8	3.636	1.479	1.391	1.319	1.198	1.208	1.097	1.143	1.111	1.073	1.042	0.975	1.088	1.148	1.071	0.851	0.951	1.058
510.0	14.32	19.06	61.65	141.0	173.4	262.2	874.6	1227	322.3	244.4	231.8	216.7	197.3	176.7	158.2	136.6	121.8	112.9	108.9	105.8	104.2	105.0	105.2	106.6	107.0	105.0	103.1	102.8	102.7	100.4	96.11	89.37	79.99	74.34	66.74	60.18	54.19	48.66	43.79	39.86	35.20	33.49	34.54	32.40	24.62	18.77	15.52	13.50	11.57	9.487	8.152	6.670	5.720	5.343	5.523	11.25	47.81	171.5	271.4	121.4	11.50	1.645	1.263	1.167	1.031	1.070	0.884	0.973	1.032	0.890	0.815	0.975	0.878	0.936	0.863	0.771	0.796
515.0	15.18	18.30	46.95	141.7	174.6	201.7	376.3	1290	765.0	224.5	204.5	187.3	171.6	156.7	136.1	119.0	106.7	96.27	95.05	91.35	88.17	91.84	89.79	90.70	90.67	87.72	87.88	86.64	86.61	86.83	82.64	76.64	70.08	63.38	58.79	53.21	48.58	43.47	39.69	35.81	32.03	28.71	27.90	29.23	27.31	19.48	15.39	12.50	10.99	9.435	8.055	7.104	5.881	5.175	4.779	5.750	13.76	41.12	88.78	245.8	183.7	14.06	1.285	1.224	0.950	0.915	0.913	0.921	0.875	0.885	0.685	0.881	0.850	0.776	0.709	0.670	0.759
520.0	15.43	15.89	38.18	131.1	187.5	173.5	220.2	848.6	1299	262.7	187.3	169.9	152.8	140.4	122.5	107.3	93.54	86.76	82.45	80.35	78.81	80.04	79.30	80.19	80.18	78.32	77.55	77.66	75.89	76.18	72.98	69.43	64.24	57.84	52.96	48.22	43.78	39.56	35.96	33.18	29.30	26.75	24.04	24.29	26.50	21.38	15.50	12.95	10.81	8.988	7.877	7.125	6.133	5.475	4.622	4.248	5.974	11.69	22.49	99.63	282.4	133.9	6.682	1.178	0.846	0.823	0.826	0.819	0.781	0.776	0.638	0.775	0.654	0.779	0.676	0.730	0.660
525.0	17.07	13.11	31.98	95.47	191.6	157.7	172.3	419.9	1494	509.4	169.9	154.0	138.2	125.5	109.9	98.19	83.45	76.12	74.83	70.33	72.20	70.33	70.66	71.03	71.11	71.30	69.21	69.23	69.01	68.19	66.88	60.39	57.27	51.71	47.27	44.37	40.21	35.98	32.56	30.26	27.10	24.46	21.31	21.07	22.83	22.54	16.59	11.97	10.21	8.967	7.515	6.826	5.907	5.435	4.396	4.136	4.053	5.278	7.363	25.29	134.6	267.5	31.60	2.963	0.920	0.749	0.712	0.747	0.677	0.713	0.577	0.678	0.587	0.606	0.667	0.601	0.603
530.0	12.01	12.15	26.00	70.78	170.7	173.4	148.3	211.6	932.4	1156	210.0	133.8	121.7	108.8	97.38	84.48	73.40	66.54	65.21	62.40	61.92	60.66	60.89	60.70	61.20	60.74	59.42	59.09	58.14	58.40	57.36	52.98	49.07	45.32	41.24	38.58	34.80	31.77	28.93	26.58	23.94	22.02	19.01	18.14	17.78	20.14	18.05	12.87	9.570	8.213	7.192	6.377	5.599	5.291	4.765	3.919	3.577	3.636	3.774	7.577	33.21	114.6	173.4	109.7	10.02	0.882	0.692	0.683	0.639	0.662	0.534	0.628	0.605	0.569	0.604	0.534	0.530
535.0	8.891	11.23	24.06	50.61	119.3	187.7	134.1	142.4	344.3	1294	615.3	118.5	105.8	92.95	80.84	70.32	62.48	57.64	54.46	52.59	51.89	50.79	52.52	51.06	50.99	50.88	49.37	49.01	49.89	49.97	48.47	44.44	41.41	38.68	34.48	32.65	29.27	27.31	25.53	23.16	20.96	18.84	16.81	16.47	14.74	14.83	16.49	14.19	9.957	7.505	6.609	6.044	5.076	4.885	4.799	3.950	3.438	3.136	2.932	3.400	8.877	26.76	55.05	188.8	130.8	10.88	0.718	0.633	0.529	0.643	0.558	0.494	0.679	0.545	0.607	0.445	0.461
540.0	11.34	12.75	22.37	43.06	87.92	189.0	140.4	115.4	165.3	805.7	1146	147.4	91.20	82.25	70.92	60.75	55.40	50.83	47.15	47.04	45.50	44.03	45.50	44.87	44.95	43.42	42.96	42.59	42.98	43.24	42.99	39.01	35.32	33.49	30.19	27.73	26.47	24.26	22.47	21.12	19.12	16.51	15.40	14.58	13.04	12.08	13.06	14.37	10.55	7.598	6.110	5.345	4.752	4.579	4.313	4.281	3.598	3.001	2.542	2.532	3.472	7.066	13.45	72.08	190.2	96.90	4.389	0.714	0.590	0.545	0.494	0.412	0.532	0.451	0.533	0.433	0.418
545.0	8.470	10.42	17.02	40.28	70.12	153.6	158.9	100.8	114.1	350.3	1378	226.8	79.72	69.92	64.73	54.66	48.83	45.10	41.87	41.08	39.63	38.50	40.34	38.50	38.85	38.68	38.12	37.14	37.84	38.12	36.82	33.89	30.48	29.20	27.39	24.67	23.47	21.84	19.88	19.00	16.70	14.69	14.03	12.70	11.83	10.70	10.61	12.09	11.34	7.736	5.683	4.817	4.521	4.063	3.860	3.968	3.438	2.857	2.460	2.287	2.143	2.771	4.139	17.73	87.84	186.1	30.08	1.901	0.595	0.389	0.496	0.369	0.479	0.475	0.420	0.370	0.422
550.0	9.324	9.623	17.16	34.20	55.57	97.05	164.5	101.0	90.54	148.5	803.6	914.4	112.2	58.41	51.68	45.62	40.47	36.92	34.33	34.01	33.20	31.89	32.41	32.24	31.94	31.53	31.27	30.76	31.42	31.40	29.89	28.66	26.60	24.22	22.71	20.21	19.47	18.25	16.45	15.52	13.62	12.72	12.16	10.99	9.999	9.132	8.576	8.887	9.975	8.437	6.026	4.529	3.950	3.700	3.254	3.244	3.193	2.952	2.350	1.950	1.770	1.687	1.963	4.751	21.31	77.08	118.5	69.43	7.996	0.475	0.412	0.344	0.439	0.389	0.375	0.328	0.358
555.0	10.68	8.391	14.01	30.25	47.33	64.42	130.5	123.5	77.30	91.16	260.0	1112	396.0	50.33	41.60	37.09	32.76	30.79	27.33	27.92	25.93	26.40	25.98	26.02	25.82	25.44	25.18	24.68	24.88	23.79	23.88	22.86	21.58	19.83	18.31	16.55	15.32	14.75	13.63	12.30	11.19	10.45	9.304	8.917	8.114	7.755	6.591	6.737	6.651	7.769	6.856	4.583	3.436	3.343	2.913	2.911	2.424	2.810	2.510	1.724	1.477	1.363	1.371	1.885	5.420	17.97	36.93	113.7	84.75	7.163	0.414	0.312	0.355	0.273	0.323	0.321	0.256
560.0	8.962	8.582	13.46	23.90	37.89	47.95	96.11	143.4	74.90	74.13	113.3	685.0	872.3	64.82	35.59	31.28	27.95	26.00	23.76	23.63	21.92	21.33	21.41	21.53	21.14	20.26	21.13	21.41	20.48	20.92	19.87	19.06	17.98	16.19	15.71	14.38	12.85	12.71	11.74	10.36	9.496	9.408	7.821	7.980	6.780	6.550	5.998	5.422	5.014	6.052	6.504	4.764	3.180	2.919	2.471	2.372	2.379	2.300	2.419	1.821	1.433	1.131	1.130	1.139	1.962	4.714	9.049	42.62	118.7	33.04	2.914	0.410	0.330	0.258	0.231	0.263	0.245
565.0	10.11	9.290	13.39	21.44	32.19	39.77	64.88	142.7	85.39	69.07	77.03	280.5	1154	142.3	31.26	27.41	24.30	20.96	20.15	19.05	18.36	18.75	17.49	18.18	17.81	17.84	17.79	17.18	17.52	17.07	17.11	15.58	15.16	14.16	13.35	11.86	10.75	10.77	9.657	8.833	8.387	7.739	6.661	6.512	5.721	5.499	4.821	4.618	4.223	4.515	5.294	4.730	3.264	2.454	2.202	2.180	2.011	1.851	1.932	2.059	1.465	1.181	0.933	1.003	1.062	1.637	2.632	10.43	52.63	103.3	26.64	1.450	0.337	0.240	0.200	0.202	0.265
570.0	8.019	11.13	14.91	20.29	28.57	34.18	45.73	101.2	117.2	69.76	71.04	116.1	707.7	618.3	48.30	21.11	19.32	17.85	16.18	15.33	15.22	14.60	14.68	14.41	14.74	13.97	14.46	14.53	13.66	14.04	13.97	12.43	12.08	11.27	10.31	9.562	9.036	8.539	7.728	7.402	6.797	6.449	5.757	5.242	4.908	4.676	4.273	3.780	3.425	3.436	3.819	4.173	3.550	2.537	1.936	1.768	1.600	1.607	1.499	1.555	1.571	1.205	0.945	0.896	0.854	0.924	1.121	2.828	12.73	43.78	70.60	45.77	4.978	0.263	0.248	0.179	0.182
575.0	6.758	9.609	12.31	18.39	24.37	27.48	38.13	60.71	133.5	88.52	73.91	79.89	225.8	806.4	131.6	17.97	15.93	14.39	14.03	12.10	12.22	11.46	11.54	11.34	11.03	11.26	11.49	11.14	11.02	10.62	10.37	9.600	9.622	8.905	8.180	7.840	7.133	6.403	6.442	5.860	5.760	5.010	4.732	4.210	4.203	3.584	3.215	3.201	2.695	2.734	2.636	2.795	3.239	2.695	1.964	1.575	1.362	1.314	1.295	1.252	1.434	1.370	1.027	0.773	0.684	0.744	0.762	1.137	3.243	10.17	21.72	68.91	33.22	3.964	0.242	0.189	0.129
580.0	10.13	7.978	14.87	19.41	23.36	26.12	33.02	44.79	117.5	111.6	76.48	71.71	95.84	513.2	515.5	24.23	14.30	11.99	11.30	9.771	10.01	9.907	9.534	9.776	9.449	9.356	9.820	9.629	9.251	9.024	8.843	8.772	8.271	7.449	6.713	6.214	6.145	5.647	5.342	5.035	4.738	4.203	3.999	3.717	3.424	3.332	2.796	2.785	2.247	2.167	2.092	2.146	2.762	2.866	2.058	1.502	1.269	1.124	1.180	1.009	0.993	1.419	1.223	0.866	0.649	0.640	0.708	0.747	1.237	2.677	5.349	26.02	75.50	28.36	1.816	0.225	0.174
585.0	7.768	7.970	14.07	19.13	17.30	25.57	30.35	38.24	89.81	132.0	81.85	76.00	64.93	201.3	724.5	78.05	11.96	10.53	9.141	8.074	8.704	8.635	8.589	8.213	8.295	7.637	8.167	7.900	8.008	7.776	7.542	7.234	6.840	6.448	5.641	5.388	5.277	4.946	4.804	4.206	3.940	3.475	3.490	3.366	3.092	2.705	2.595	2.262	2.187	1.856	1.711	1.637	2.011	2.370	2.245	1.594	1.154	1.126	1.020	0.870	0.843	1.149	1.244	1.018	0.805	0.602	0.717	0.735	0.743	1.016	1.498	6.353	36.27	63.30	20.53	0.721	0.157
590.0	5.449	8.226	12.35	15.64	17.18	21.83	25.52	35.97	63.59	131.3	104.8	77.93	60.89	72.93	436.2	366.4	21.98	8.434	7.659	7.103	6.876	6.718	6.805	6.625	6.634	6.296	6.290	6.041	6.538	6.329	6.001	5.794	5.323	5.131	4.652	4.412	4.081	3.918	3.780	3.446	3.031	2.770	2.821	2.555	2.543	2.233	2.077	1.937	1.745	1.583	1.503	1.299	1.453	1.866	1.960	1.712	1.116	0.943	0.861	0.851	0.771	0.900	0.846	1.077	0.975	0.726	0.705	0.674	0.603	0.624	0.657	1.741	8.722	26.12	44.25	21.84	3.059
595.0	7.033	7.176	14.76	14.57	17.25	21.38	23.76	34.98	51.30	98.17	132.5	77.80	60.83	40.83	125.4	506.9	93.00	6.965	6.374	5.689	5.467	5.227	5.354	5.201	5.401	5.129	4.733	4.948	5.020	5.129	5.145	4.456	4.226	4.008	3.699	3.642	3.474	2.921	2.723	2.721	2.640	2.344	2.184	2.146	1.995	1.895	1.630	1.486	1.578	1.280	1.256	1.118	0.985	1.215	1.325	1.598	1.282	0.800	0.741	0.717	0.653	0.706	0.670	0.917	1.028	0.895	0.699	0.588	0.514	0.495	0.568	0.632	2.215	6.044	13.34	37.38	29.18
600.0	5.486	7.989	14.68	16.22	15.90	19.11	23.82	31.06	48.40	74.27	134.2	86.87	59.36	32.76	40.12	331.9	391.4	9.993	5.389	4.916	4.577	4.475	4.686	4.130	4.503	4.044	4.186	4.016	4.119	3.854	3.946	3.838	3.438	3.465	3.184	2.906	2.772	2.406	2.318	2.245	2.081	1.965	1.899	1.660	1.828	1.557	1.415	1.379	1.178	1.125	1.094	0.978	0.921	0.908	1.060	1.380	1.140	0.908	0.675	0.690	0.666	0.625	0.596	0.624	0.827	1.028	0.822	0.612	0.524	0.497	0.384	0.413	0.762	1.508	3.264	13.96	41.61
605.0	7.081	9.452	14.99	15.57	16.02	15.91	21.79	30.22	42.97	61.83	119.4	98.49	55.79	30.07	20.23	128.1	593.4	38.99	4.286	4.099	3.905	4.152	3.898	3.723	3.543	3.303	3.431	3.285	3.546	3.462	3.238	3.299	3.083	2.715	2.736	2.406	2.370	2.189	2.141	1.822	1.928	1.869	1.526	1.483	1.351	1.183	1.173	1.240	1.001	0.924	0.836	0.790	0.773	0.701	0.812	1.210	1.209	1.060	0.663	0.645	0.611	0.510	0.621	0.547	0.633	0.958	0.928	0.603	0.651	0.460	0.390	0.411	0.348	0.517	0.863	3.351	17.92
610.0	4.997	7.264	11.76	13.37	13.52	16.56	19.68	26.78	38.71	57.16	91.81	112.5	59.96	28.82	15.67	37.50	400.2	178.9	7.966	3.634	3.326	3.260	3.222	3.021	2.889	2.753	2.668	2.813	2.628	2.746	2.614	2.479	2.470	2.306	2.100	1.952	1.814	1.796	1.688	1.467	1.444	1.399	1.286	1.204	1.100	1.046	0.940	0.956	0.803	0.723	0.656	0.677	0.623	0.611	0.534	0.730	0.934	1.077	0.799	0.589	0.465	0.478	0.484	0.532	0.541	0.683	0.753	0.763	0.611	0.371	0.333	0.352	0.272	0.328	0.403	0.883	4.278
615.0	4.844	6.664	10.43	12.58	13.56	16.10	17.33	26.01	35.16	51.00	67.36	104.7	71.57	30.52	14.23	15.35	114.5	299.3	54.87	2.941	2.622	2.645	2.577	2.615	2.438	2.249	1.909	2.083	2.023	2.244	2.153	1.846	1.915	1.765	1.740	1.459	1.381	1.354	1.397	1.166	1.177	0.938	0.996	0.942	0.953	0.835	0.810	0.725	0.683	0.571	0.528	0.559	0.521	0.479	0.494	0.474	0.578	0.852	0.785	0.643	0.432	0.378	0.382	0.442	0.470	0.503	0.538	0.704	0.722	0.395	0.279	0.359	0.215	0.201	0.252	0.347	1.078
620.0	10.47	5.764	9.823	11.38	11.99	14.70	16.29	24.96	32.11	49.35	57.49	83.95	79.34	29.84	13.61	9.811	31.92	208.9	171.7	3.902	2.300	2.115	2.131	2.508	2.173	1.794	1.654	1.774	1.635	1.830	1.865	1.612	1.577	1.376	1.431	1.090	1.111	1.059	1.081	0.979	1.005	0.800	0.720	0.727	0.681	0.717	0.655	0.604	0.627	0.474	0.489	0.406	0.452	0.470	0.400	0.393	0.472	0.595	0.667	0.635	0.456	0.328	0.376	0.444	0.421	0.436	0.476	0.523	0.646	0.438	0.300	0.304	0.194	0.227	0.212	0.159	0.343
625.0	6.031	5.773	10.10	11.33	10.55	12.53	16.44	23.16	31.43	44.75	55.69	69.15	87.43	33.04	13.11	9.166	12.56	83.71	265.1	17.90	1.885	1.795	1.657	1.774	1.638	1.499	1.547	1.507	1.525	1.485	1.410	1.327	1.474	1.013	1.102	0.928	1.056	0.949	0.948	0.921	0.773	0.688	0.719	0.659	0.655	0.612	0.491	0.508	0.475	0.400	0.466	0.371	0.394	0.378	0.424	0.342	0.403	0.448	0.531	0.657	0.493	0.373	0.332	0.394	0.301	0.409	0.392	0.487	0.552	0.487	0.388	0.261	0.251	0.172	0.145	0.136	0.183
630.0	4.914	5.115	10.81	11.53	11.52	11.78	16.49	21.34	28.20	40.02	50.08	56.45	68.74	42.41	13.67	8.632	7.738	24.01	187.1	120.0	3.950	1.791	1.538	1.311	1.358	1.237	1.286	1.229	1.156	1.137	1.149	0.991	1.090	0.952	0.914	0.888	0.799	0.754	0.738	0.764	0.664	0.625	0.522	0.478	0.515	0.440	0.388	0.410	0.371	0.329	0.325	0.294	0.319	0.284	0.324	0.269	0.325	0.318	0.377	0.527	0.486	0.429	0.372	0.365	0.311	0.355	0.344	0.333	0.370	0.417	0.496	0.300	0.238	0.168	0.146	0.119	0.137
635.0	5.349	4.934	6.824	9.409	10.46	11.38	13.73	19.04	24.95	36.96	44.50	48.74	52.35	53.03	17.07	9.016	6.797	8.986	56.02	214.8	32.72	1.526	1.115	1.221	1.139	1.210	1.132	0.930	1.043	1.019	0.923	0.847	0.953	0.848	0.752	0.729	0.604	0.610	0.572	0.530	0.506	0.518	0.438	0.376	0.389	0.253	0.303	0.392	0.273	0.279	0.268	0.244	0.270	0.234	0.300	0.250	0.206	0.263	0.305	0.318	0.406	0.470	0.347	0.314	0.279	0.260	0.309	0.305	0.363	0.347	0.365	0.372	0.235	0.207	0.164	0.115	0.115
640.0	6.345	4.981	8.077	8.271	10.06	10.09	14.84	18.68	26.29	32.71	42.17	43.14	42.50	50.10	24.64	9.482	6.813	5.812	16.18	163.4	74.40	2.036	1.038	1.180	0.994	0.952	0.871	0.833	0.791	0.838	0.784	0.872	0.772	0.630	0.524	0.659	0.534	0.456	0.500	0.400	0.474	0.415	0.383	0.339	0.334	0.301	0.297	0.283	0.357	0.260	0.225	0.242	0.178	0.200	0.237	0.204	0.221	0.235	0.253	0.251	0.347	0.379	0.403	0.355	0.247	0.247	0.233	0.313	0.246	0.300	0.293	0.338	0.405	0.216	0.140	0.118	0.116
645.0	4.044	6.278	8.097	9.071	11.94	12.16	13.52	16.75	23.70	31.79	39.77	42.30	36.42	42.26	31.78	11.22	7.818	5.773	6.360	70.46	177.9	10.18	1.018	0.951	0.953	0.848	0.735	0.656	0.652	0.707	0.606	0.636	0.561	0.569	0.456	0.416	0.415	0.344	0.435	0.359	0.388	0.315	0.321	0.275	0.333	0.273	0.232	0.254	0.236	0.224	0.175	0.174	0.203	0.206	0.177	0.167	0.180	0.229	0.177	0.238	0.258	0.329	0.397	0.330	0.249	0.231	0.278	0.295	0.278	0.237	0.333	0.261	0.353	0.295	0.159	0.148	0.119
650.0	3.750	5.836	7.648	11.25	11.51	11.50	13.18	15.68	21.81	30.51	38.29	40.15	35.59	34.78	38.18	13.89	8.437	5.602	4.632	21.24	177.2	49.33	0.994	0.927	0.854	0.771	0.611	0.691	0.547	0.646	0.629	0.496	0.410	0.482	0.402	0.327	0.318	0.296	0.357	0.272	0.332	0.284	0.262	0.261	0.238	0.209	0.259	0.210	0.175	0.210	0.159	0.195	0.194	0.201	0.148	0.130	0.204	0.172	0.163	0.204	0.210	0.279	0.349	0.378	0.259	0.215	0.287	0.224	0.257	0.205	0.259	0.218	0.277	0.301	0.236	0.151	0.102
