Sample:	'1
File name:	Default_20230825_104149.FD3
Run date:	'10:35:28, 08/25/2023
Operator:	dsjg
Comment:	'

Instrument
Model:	F-2700 FL Spectrophotometer
Serial number:	2198-001
ROM Version:	4J14000 07

Instrument parameters
Measurement type:	3-D scan
Data mode:	Fluorescence
EX  Start WL:	220.0 nm
EX  End WL:	600.0 nm
EX Sampling interval:	5.0 nm
EM  Start WL:	230.0 nm
EM  End WL:	650.0 nm
EM Sampling interval:	5.0 nm
Scan speed:	12000 nm/min
EX Slit:	5.0 nm
EM Slit:	5.0 nm
PMT Voltage:	700 V
Response:	Auto 
Corrected spectra:	Off
Contour interval:	50.000

Peak integration
Integration method:	Rectangular
Sensitivity:	1
Threshold:	1.000

Peaks
No.	ApexEX/EM(nm)	Height(Data)
1	235.0/260.0	93.34
2	235.0/615.0	19.57
3	235.0/625.0	18.69
4	235.0/640.0	18.43
5	240.0/265.0	114.7
6	245.0/270.0	114.1
7	245.0/435.0	 4593
8	250.0/275.0	151.8
9	255.0/355.0	763.7
10	265.0/585.0	47.44
11	270.0/300.0	405.6
12	270.0/595.0	43.41
13	275.0/610.0	35.45
14	280.0/620.0	35.82
15	285.0/320.0	777.2
16	285.0/635.0	36.16
17	290.0/325.0	802.6
18	310.0/430.0	 1393
19	335.0/425.0	 1431
20	410.0/480.0	33.68
21	425.0/500.0	20.20
22	430.0/505.0	17.46
23	440.0/520.0	12.97
24	445.0/525.0	11.78
25	455.0/540.0	9.578
26	460.0/545.0	8.541
27	500.0/435.0	19.77

Data points
	220.0	225.0	230.0	235.0	240.0	245.0	250.0	255.0	260.0	265.0	270.0	275.0	280.0	285.0	290.0	295.0	300.0	305.0	310.0	315.0	320.0	325.0	330.0	335.0	340.0	345.0	350.0	355.0	360.0	365.0	370.0	375.0	380.0	385.0	390.0	395.0	400.0	405.0	410.0	415.0	420.0	425.0	430.0	435.0	440.0	445.0	450.0	455.0	460.0	465.0	470.0	475.0	480.0	485.0	490.0	495.0	500.0	505.0	510.0	515.0	520.0	525.0	530.0	535.0	540.0	545.0	550.0	555.0	560.0	565.0	570.0	575.0	580.0	585.0	590.0	595.0	600.0
230.0	17.92	249.7	401.2	81.48	3.172	2.620	2.053	1.338	0.990	1.008	0.878	0.717	0.888	0.828	0.703	0.864	0.768	0.662	0.598	0.684	0.503	0.602	0.675	0.611	0.665	0.527	0.497	0.438	0.355	0.302	0.251	0.247	0.216	0.189	0.222	0.358	0.357	0.277	0.279	0.258	0.231	0.241	0.244	0.227	0.185	0.196	0.222	0.672	1.287	1.135	0.545	0.193	0.153	0.140	0.097	0.112	0.111	0.111	0.105	0.092	0.084	0.051	0.054	0.067	0.083	0.055	0.058	0.050	0.035	0.036	0.044	0.020	0.035	0.028	0.016	0.009	0.022
235.0	17.03	78.16	322.5	409.3	104.0	3.640	1.597	1.773	1.109	1.348	1.020	0.789	1.345	0.820	0.856	0.843	0.718	0.648	0.568	0.805	0.610	0.699	0.652	0.550	0.576	0.526	0.355	0.436	0.309	0.305	0.220	0.273	0.185	0.176	0.179	0.250	0.344	0.262	0.233	0.268	0.225	0.264	0.257	0.230	0.238	0.237	0.164	0.302	0.533	0.896	1.180	1.559	0.928	0.237	0.152	0.164	0.097	0.130	0.074	0.071	0.055	0.059	0.042	0.028	0.050	0.082	0.040	0.042	0.024	0.026	0.033	0.001	0.046	0.008	0.010	0.028	0.028
240.0	25.82	25.03	120.1	435.7	451.5	66.33	3.065	1.984	0.493	1.052	0.848	0.999	1.132	0.828	0.815	0.922	0.808	0.709	0.542	0.663	0.735	0.647	0.560	0.613	0.517	0.537	0.427	0.491	0.426	0.259	0.253	0.364	0.154	0.159	0.156	0.182	0.196	0.399	0.314	0.358	0.261	0.270	0.222	0.291	0.238	0.290	0.224	0.181	0.250	0.360	0.633	1.615	2.129	1.734	0.808	0.179	0.122	0.107	0.079	0.079	0.060	0.121	0.057	0.048	0.054	0.080	0.040	0.031	0.013	0.028	0.035	0.019	0.027	0.007	0.035	0.047	-0.009
245.0	27.68	31.95	36.89	193.3	594.3	408.3	47.79	3.146	1.332	1.083	0.832	1.538	1.117	0.826	0.809	0.926	0.775	0.742	0.594	0.581	0.697	0.798	0.570	0.591	0.581	0.636	0.631	0.428	0.417	0.214	0.302	0.260	0.174	0.163	0.236	0.180	0.164	0.308	0.315	0.361	0.322	0.231	0.251	0.219	0.208	0.298	0.260	0.284	0.236	0.235	0.223	0.589	1.264	2.405	2.703	1.442	0.451	0.133	0.091	0.100	0.076	0.096	0.109	0.038	0.058	0.057	0.022	0.042	0.018	0.026	0.033	0.055	0.006	0.018	0.033	0.018	0.020
250.0	13.41	38.74	55.45	61.50	234.5	575.8	593.8	159.5	7.637	1.748	1.411	1.396	1.178	0.888	1.029	1.006	0.908	0.909	0.715	0.725	0.875	0.807	0.623	0.643	0.644	0.580	0.501	0.494	0.437	0.376	0.284	0.232	0.222	0.173	0.172	0.151	0.169	0.164	0.258	0.310	0.298	0.221	0.257	0.233	0.232	0.250	0.265	0.277	0.366	0.345	0.239	0.303	0.402	0.788	1.496	2.185	2.848	2.529	1.489	0.495	0.112	0.068	0.072	0.062	0.079	0.055	0.055	0.036	0.024	0.036	0.033	0.044	0.036	0.022	0.024	0.023	0.030
255.0	6.646	16.90	63.94	77.15	69.65	177.6	629.6	946.8	242.8	7.823	1.786	1.904	1.296	1.145	1.145	0.969	1.001	0.790	0.703	0.838	0.633	0.758	0.579	0.825	0.675	0.508	0.616	0.569	0.470	0.433	0.328	0.237	0.185	0.232	0.152	0.165	0.214	0.170	0.141	0.210	0.339	0.340	0.242	0.253	0.205	0.231	0.262	0.279	0.243	0.293	0.411	0.529	0.275	0.313	0.433	0.659	1.154	2.643	4.716	4.826	2.466	0.532	0.077	0.050	0.044	0.055	0.058	0.049	0.049	0.009	0.030	0.048	0.057	0.034	0.005	-0.006	0.049
260.0	1.785	7.828	35.52	93.34	76.66	56.56	241.7	951.3	 1034	185.7	4.596	2.121	1.563	1.645	1.512	1.271	1.089	0.783	0.726	0.903	0.658	0.861	0.686	0.844	0.718	0.644	0.526	0.534	0.356	0.333	0.288	0.297	0.186	0.229	0.172	0.124	0.216	0.132	0.159	0.156	0.252	0.286	0.289	0.253	0.211	0.276	0.205	0.268	0.233	0.218	0.256	0.541	0.627	0.354	0.288	0.296	0.369	0.850	2.275	4.632	6.409	4.588	1.692	0.271	0.134	0.057	0.050	0.088	0.037	0.045	0.029	0.067	0.008	0.039	0.024	0.030	0.035
265.0	2.668	3.470	13.48	61.45	114.7	54.95	68.60	398.5	 1256	 1004	129.4	2.607	2.067	1.335	1.632	1.221	1.166	0.780	1.071	0.628	0.921	0.808	0.631	0.650	0.754	0.620	0.617	0.523	0.485	0.388	0.303	0.285	0.253	0.192	0.192	0.109	0.179	0.051	0.138	0.159	0.150	0.287	0.320	0.250	0.281	0.310	0.191	0.188	0.216	0.204	0.212	0.395	0.585	0.613	0.516	0.339	0.194	0.315	0.691	1.513	3.611	6.735	7.068	3.826	0.813	0.141	0.090	0.102	0.084	0.068	0.034	0.048	0.023	0.038	0.033	0.028	0.035
270.0	3.585	4.689	7.642	24.50	71.57	114.1	80.55	108.2	464.0	 1120	 1210	413.0	20.27	1.843	1.851	1.342	1.106	1.148	1.075	0.792	0.864	0.954	0.679	0.696	0.729	0.659	0.645	0.516	0.466	0.483	0.294	0.269	0.240	0.215	0.207	0.152	0.177	0.162	0.129	0.141	0.174	0.191	0.222	0.285	0.308	0.323	0.262	0.222	0.242	0.203	0.216	0.235	0.285	0.453	0.572	0.648	0.622	0.446	0.350	0.453	1.008	2.145	3.765	5.450	6.562	5.634	3.020	0.781	0.137	0.062	0.068	0.036	0.049	0.041	0.067	0.029	0.015
275.0	11.99	8.522	10.55	16.40	27.37	76.12	151.8	101.2	122.2	324.0	 1014	 1643	221.0	12.86	2.408	1.927	1.249	1.291	1.104	1.084	0.922	0.908	0.880	0.808	0.714	0.638	0.794	0.576	0.480	0.433	0.319	0.339	0.277	0.318	0.221	0.229	0.218	0.187	0.180	0.115	0.148	0.184	0.181	0.237	0.275	0.383	0.344	0.264	0.270	0.247	0.236	0.225	0.244	0.215	0.343	0.451	0.723	0.977	0.774	0.460	0.371	0.648	0.992	1.478	2.401	4.771	8.510	8.351	3.594	0.454	0.103	0.034	0.047	0.056	0.054	0.028	0.007
280.0	19.35	21.27	26.07	27.80	23.35	38.07	120.7	173.4	91.88	104.2	364.5	 1340	 1580	169.5	5.748	1.882	1.756	1.595	1.368	1.219	0.871	0.971	0.792	0.804	0.882	0.646	0.766	0.683	0.441	0.386	0.372	0.276	0.225	0.266	0.215	0.195	0.224	0.182	0.179	0.194	0.173	0.155	0.175	0.169	0.300	0.410	0.346	0.364	0.263	0.277	0.305	0.287	0.236	0.231	0.278	0.272	0.371	0.610	0.953	1.102	0.583	0.388	0.471	0.572	0.783	1.484	3.706	7.433	9.229	6.604	1.871	0.110	0.063	0.035	0.035	0.019	0.052
285.0	33.95	39.21	57.43	44.84	33.37	31.08	67.99	176.2	183.1	90.26	139.0	525.2	 1527	 1369	114.2	3.453	2.209	1.697	1.358	1.193	0.994	0.932	0.831	1.036	0.938	0.734	0.794	0.712	0.590	0.456	0.341	0.277	0.336	0.270	0.208	0.311	0.209	0.230	0.240	0.268	0.226	0.195	0.154	0.210	0.211	0.311	0.384	0.391	0.352	0.415	0.371	0.282	0.273	0.359	0.268	0.293	0.270	0.367	0.551	0.991	1.175	0.867	0.405	0.455	0.497	0.618	1.101	2.570	5.135	8.828	9.067	4.437	0.689	0.070	0.066	0.022	0.050
290.0	59.31	78.14	99.38	79.46	59.85	45.03	52.21	110.8	217.9	226.9	148.8	206.9	550.9	 1191	 1295	446.4	19.15	2.200	1.556	1.345	1.232	1.050	1.059	0.931	0.850	0.765	0.738	0.667	0.506	0.453	0.385	0.277	0.293	0.277	0.239	0.313	0.227	0.269	0.215	0.215	0.235	0.166	0.257	0.216	0.241	0.268	0.390	0.497	0.503	0.468	0.469	0.463	0.429	0.381	0.315	0.271	0.277	0.380	0.381	0.508	0.879	1.203	1.309	1.067	0.804	0.607	0.712	0.998	1.529	2.928	4.750	6.953	7.426	5.759	2.928	0.541	0.072
295.0	85.25	114.9	129.9	114.8	91.29	68.31	69.83	88.68	157.0	293.4	305.6	190.2	222.7	362.4	883.7	 1703	618.7	13.82	2.262	1.975	1.508	1.124	1.216	0.927	1.075	0.953	0.847	0.681	0.500	0.415	0.413	0.270	0.374	0.326	0.267	0.298	0.315	0.239	0.222	0.208	0.262	0.278	0.247	0.314	0.338	0.339	0.357	0.471	0.692	0.544	0.654	0.586	0.601	0.519	0.479	0.444	0.427	0.399	0.408	0.510	0.681	0.808	1.065	1.498	1.830	1.317	0.895	0.904	0.814	1.007	1.363	1.901	2.910	5.807	9.688	8.976	3.421
300.0	100.9	135.0	159.7	147.8	126.9	88.07	86.21	99.11	137.8	247.0	405.6	288.3	198.2	184.8	340.7	 1222	 1796	107.6	6.116	2.184	1.908	1.440	1.145	1.190	1.074	0.930	0.999	0.784	0.634	0.415	0.427	0.281	0.357	0.312	0.293	0.312	0.381	0.293	0.208	0.193	0.258	0.220	0.243	0.315	0.311	0.451	0.472	0.531	0.738	0.674	0.809	0.762	0.746	0.676	0.621	0.545	0.498	0.542	0.481	0.446	0.643	0.698	0.927	1.139	1.513	2.076	1.719	1.083	0.830	0.811	0.737	0.843	1.044	1.961	4.770	9.313	11.31
305.0	120.4	165.0	196.1	181.2	152.4	121.3	109.9	118.6	150.7	222.1	373.3	473.3	260.6	211.8	212.7	500.2	 1513	 1530	82.65	3.651	2.173	1.514	1.338	1.220	1.145	0.906	0.908	0.817	0.622	0.501	0.444	0.386	0.455	0.286	0.354	0.310	0.345	0.293	0.291	0.287	0.231	0.221	0.251	0.275	0.357	0.466	0.520	0.627	0.771	0.644	0.856	0.863	0.841	0.834	0.773	0.690	0.633	0.609	0.597	0.663	0.753	0.695	0.966	1.113	1.188	1.612	2.216	2.072	1.546	1.092	0.930	0.859	0.828	0.987	1.525	3.248	7.061
310.0	142.2	209.6	239.6	236.7	201.1	171.6	147.2	147.0	186.4	250.7	358.3	497.9	549.0	419.8	327.6	318.1	561.6	 1231	 1183	354.0	17.73	2.262	1.792	1.464	1.286	1.153	0.922	0.893	0.630	0.546	0.421	0.388	0.345	0.325	0.367	0.325	0.400	0.405	0.318	0.334	0.299	0.268	0.296	0.317	0.417	0.509	0.664	0.698	0.878	0.805	0.913	1.097	0.939	0.972	0.956	0.854	0.818	0.700	0.819	0.776	0.861	0.939	1.085	1.329	1.382	1.624	1.889	2.286	2.653	2.319	1.757	1.430	1.199	1.186	1.087	1.320	2.220
315.0	173.2	250.2	279.2	287.8	254.5	219.5	192.1	201.6	233.0	300.8	401.1	498.3	637.0	703.1	510.6	375.0	297.0	368.3	808.8	 1765	500.2	11.58	2.395	1.979	1.460	1.480	1.068	0.994	0.793	0.704	0.407	0.460	0.373	0.367	0.414	0.503	0.462	0.358	0.337	0.364	0.355	0.285	0.384	0.454	0.454	0.636	0.702	0.847	0.851	0.838	0.935	1.229	1.135	1.248	1.126	1.065	1.025	0.864	0.974	0.923	1.045	1.088	1.197	1.354	1.603	1.702	1.917	2.169	2.202	2.683	2.998	2.605	1.947	1.480	1.406	1.215	1.138
320.0	193.2	279.4	319.9	314.9	300.3	261.4	240.9	250.1	274.2	338.8	448.6	535.6	651.1	777.2	706.1	451.3	268.8	169.6	271.1	 1171	 1740	80.32	5.906	1.992	1.655	1.575	1.263	1.003	0.835	0.746	0.617	0.524	0.419	0.430	0.373	0.391	0.508	0.372	0.354	0.316	0.265	0.319	0.410	0.423	0.490	0.764	0.786	0.947	1.009	0.914	0.924	1.232	1.219	1.313	1.247	1.282	1.101	1.244	1.164	1.092	1.213	1.469	1.408	1.428	1.767	1.901	2.156	2.251	2.308	2.416	2.904	3.164	3.079	2.140	1.660	1.240	1.081
325.0	205.5	298.1	337.6	353.0	336.4	322.0	316.9	322.5	335.1	390.7	482.0	580.5	670.7	761.2	802.6	567.2	296.1	143.1	112.8	386.2	 1446	 1478	66.79	3.285	2.177	1.765	1.337	1.111	1.015	0.947	0.684	0.658	0.383	0.420	0.405	0.423	0.397	0.362	0.424	0.365	0.286	0.388	0.384	0.591	0.585	0.826	0.804	1.049	1.133	0.959	0.997	1.415	1.330	1.393	1.396	1.345	1.426	1.467	1.503	1.297	1.495	1.614	1.577	1.696	2.000	1.896	2.062	2.453	2.478	2.480	2.879	2.901	3.423	2.974	2.355	1.604	1.242
330.0	228.1	307.1	369.1	402.0	410.7	414.8	439.2	443.7	434.5	446.8	517.2	599.8	698.0	750.8	761.8	675.4	405.9	184.2	108.0	140.2	450.5	 1172	 1401	290.7	16.65	2.309	1.830	1.300	1.083	0.801	0.704	0.604	0.441	0.507	0.463	0.427	0.521	0.419	0.359	0.364	0.279	0.359	0.346	0.514	0.637	0.737	0.922	1.016	1.167	1.081	1.174	1.538	1.578	1.563	1.598	1.886	1.880	2.010	1.945	1.973	2.147	2.032	1.855	1.852	2.103	2.065	2.282	2.444	2.612	2.631	2.877	2.778	2.818	2.827	2.741	2.421	1.976
335.0	253.2	333.0	404.1	459.7	474.1	522.3	579.4	577.1	544.6	508.4	549.9	611.5	696.1	741.1	716.9	635.6	523.1	280.6	146.6	112.6	153.3	314.1	849.8	 1756	439.7	13.80	2.907	1.856	1.247	1.128	0.693	0.611	0.713	0.473	0.544	0.456	0.526	0.395	0.367	0.348	0.341	0.430	0.413	0.566	0.690	0.830	0.890	1.110	1.291	1.140	1.174	1.723	1.750	1.774	1.859	2.325	2.308	2.426	2.653	2.743	2.660	2.268	2.385	2.247	2.296	2.289	2.348	2.618	2.799	2.755	2.848	3.042	2.878	2.678	2.754	2.507	2.547
340.0	269.1	338.4	418.0	512.8	520.8	578.0	652.4	674.1	613.3	543.2	561.2	615.3	685.9	725.9	697.2	604.1	502.1	386.1	203.7	130.9	108.0	120.6	265.1	 1183	 1759	68.17	6.353	2.333	1.574	1.113	0.936	0.816	0.637	0.515	0.580	0.439	0.505	0.494	0.393	0.410	0.412	0.460	0.534	0.493	0.666	0.817	0.941	1.105	1.364	1.129	1.321	1.839	1.901	2.104	2.067	2.229	2.649	2.997	2.916	2.910	2.896	2.549	2.548	2.322	2.366	2.368	2.381	2.561	2.559	2.787	2.958	2.879	2.850	2.670	2.618	2.403	2.247
345.0	275.9	348.7	426.3	529.8	546.4	604.9	709.0	728.3	648.3	562.4	574.4	612.7	671.9	708.1	682.9	587.5	467.8	415.4	296.7	169.0	121.7	99.57	113.9	394.4	 1535	 1482	58.05	4.133	2.129	1.391	1.056	0.796	0.657	0.682	0.596	0.414	0.491	0.624	0.360	0.474	0.349	0.444	0.408	0.615	0.735	0.955	1.058	1.065	1.274	1.214	1.445	1.920	1.960	1.953	2.234	2.274	2.602	3.264	3.299	3.186	3.015	2.642	2.567	2.315	2.494	2.348	2.484	2.573	2.585	2.776	3.005	2.954	2.772	2.758	2.682	2.477	2.145
350.0	302.0	383.3	451.5	564.6	593.9	646.2	736.3	753.4	670.3	582.5	580.2	619.2	652.8	681.8	658.4	582.1	463.5	387.1	366.9	282.5	183.9	143.3	117.8	161.8	492.2	 1244	 1390	256.7	15.91	2.137	1.386	0.905	0.696	0.675	0.547	0.575	0.622	0.550	0.487	0.407	0.489	0.468	0.487	0.591	0.774	0.956	1.103	1.139	1.314	1.340	1.492	2.113	2.122	2.168	2.327	2.516	2.791	3.299	3.197	3.243	3.132	2.864	2.593	2.563	2.429	2.414	2.460	2.577	2.595	2.681	2.755	2.771	2.965	2.837	2.716	2.470	2.477
355.0	323.7	412.3	501.7	591.8	631.3	678.1	759.0	763.7	667.9	600.5	583.3	615.8	642.0	648.2	637.6	579.8	477.6	401.9	362.1	377.7	307.1	212.3	175.9	158.6	200.0	355.3	869.9	 1722	405.5	14.07	2.080	1.424	1.042	0.875	0.680	0.552	0.644	0.499	0.485	0.537	0.493	0.544	0.564	0.516	0.839	0.988	1.080	1.386	1.481	1.415	1.559	2.119	2.213	2.420	2.454	2.507	2.850	3.282	3.145	3.288	3.190	2.958	2.633	2.468	2.583	2.618	2.441	2.680	2.582	2.663	2.581	2.658	2.953	2.923	2.698	2.526	2.479
360.0	347.8	453.6	528.2	635.9	690.1	716.1	769.3	757.0	673.1	600.5	603.2	624.8	636.1	644.5	626.9	581.7	502.0	428.6	387.9	387.2	401.0	294.3	228.8	196.9	165.2	162.5	287.0	 1208	 1734	63.13	6.117	2.075	1.415	0.991	0.770	0.548	0.717	0.562	0.570	0.614	0.554	0.538	0.545	0.685	0.843	1.161	1.204	1.400	1.513	1.576	1.665	2.284	2.453	2.432	2.585	2.729	3.011	3.314	3.333	3.228	3.155	2.802	2.804	2.547	2.563	2.704	2.464	2.628	2.571	2.489	2.741	2.776	2.779	2.641	2.956	2.825	2.627
365.0	369.1	486.0	590.3	696.5	752.7	764.7	804.1	758.6	670.5	605.2	611.5	628.9	632.5	636.2	629.6	581.4	523.9	455.8	421.5	402.7	430.4	395.1	293.5	244.7	193.8	147.0	137.9	406.5	 1576	 1484	53.90	3.427	1.671	1.318	0.890	0.758	0.684	0.707	0.616	0.575	0.488	0.550	0.601	0.634	0.899	1.159	1.253	1.509	1.586	1.587	1.850	2.418	2.667	2.638	2.772	2.825	3.106	3.189	3.340	3.377	3.162	2.931	2.778	2.641	2.577	2.727	2.643	2.485	2.877	2.351	2.739	2.790	2.701	2.780	2.859	2.885	2.840
370.0	382.0	518.6	654.6	793.3	849.1	850.6	837.7	763.6	665.9	606.3	612.5	635.8	636.2	632.8	633.1	600.4	550.5	505.6	476.6	457.8	454.0	466.2	423.1	333.0	264.2	197.2	143.9	164.8	502.8	 1315	 1473	232.4	13.96	1.959	1.304	0.997	0.861	0.760	0.631	0.666	0.662	0.546	0.668	0.743	0.963	1.237	1.265	1.606	1.694	1.731	2.145	2.884	3.058	3.224	3.184	3.179	3.402	3.326	3.480	3.089	2.990	2.732	2.680	2.743	2.602	2.706	2.566	2.627	2.725	2.593	2.745	2.766	2.817	2.979	2.854	2.981	2.989
375.0	416.9	579.8	740.8	919.5	 1001	 1006	936.4	790.0	665.8	599.4	621.4	639.0	653.9	646.2	650.3	632.8	594.7	561.5	545.4	529.9	518.1	510.8	525.4	483.6	362.9	276.5	205.8	158.0	190.8	362.4	971.4	 1813	352.1	13.31	1.840	1.291	1.025	0.868	0.740	0.721	0.741	0.613	0.758	0.910	1.123	1.276	1.566	1.788	2.193	1.982	2.287	3.224	3.379	3.650	3.885	3.957	3.998	4.006	3.674	3.265	3.094	2.686	2.650	2.646	2.672	2.676	2.564	2.616	2.580	2.738	2.849	2.763	2.893	2.928	3.040	3.030	3.233
380.0	444.7	636.8	807.4	 1009	 1164	 1180	 1069	845.1	658.0	586.1	632.4	647.3	660.6	655.2	668.4	659.4	637.0	614.6	603.6	597.0	583.3	568.3	573.5	588.3	475.8	356.1	272.8	196.8	154.5	151.7	305.3	 1337	 1719	261.9	4.534	1.632	1.247	0.998	0.891	0.887	0.777	0.882	0.968	0.945	1.119	1.469	1.687	2.066	2.191	2.155	2.671	3.598	3.757	4.219	4.400	4.577	4.783	4.557	3.750	3.427	2.804	2.723	2.652	2.368	2.664	2.778	2.619	2.795	2.834	2.520	2.743	3.068	2.850	3.151	3.323	3.220	3.411
385.0	470.6	685.3	880.8	 1120	 1336	 1409	 1265	922.5	673.6	597.5	633.6	665.2	673.5	686.7	700.0	695.8	692.3	674.7	671.6	662.5	654.1	644.9	642.8	645.9	595.8	452.8	347.7	255.1	183.0	131.7	127.9	447.3	 1626	 1397	42.39	2.715	1.685	1.251	1.027	1.008	0.895	0.915	1.059	0.993	1.241	1.442	1.708	2.133	2.349	2.419	2.862	3.990	4.417	4.683	5.288	5.544	5.648	5.227	4.426	3.510	2.978	2.682	2.573	2.332	2.673	2.778	2.880	2.811	2.980	2.839	3.086	3.251	3.277	3.413	3.271	3.456	3.458
390.0	508.4	744.7	 1005	 1327	 1626	 1812	 1654	 1110	702.8	608.5	643.2	681.2	719.1	734.4	761.6	775.3	780.3	789.2	786.8	778.6	770.3	767.4	768.1	759.8	724.6	633.5	485.3	361.5	259.5	175.1	118.1	151.4	507.6	 1252	 1290	180.0	11.47	1.713	1.304	1.191	1.028	1.153	1.103	1.150	1.331	1.616	1.859	2.277	2.551	2.753	3.093	4.754	5.264	6.003	6.515	6.910	7.288	6.762	5.801	4.312	3.361	2.726	2.709	2.462	2.681	2.907	2.878	2.941	3.138	3.199	3.141	3.442	3.621	3.507	3.638	3.897	3.962
395.0	591.5	862.8	 1156	 1556	 2010	 2336	 2156	 1379	758.8	619.5	666.9	715.4	764.9	802.6	830.0	864.7	899.0	921.8	919.5	906.7	903.7	913.6	922.2	907.4	863.4	793.7	673.9	498.8	354.3	240.6	149.4	106.5	153.3	320.0	894.8	 1603	289.5	9.668	1.834	1.522	1.345	1.431	1.253	1.398	1.600	1.725	2.053	2.724	3.085	3.174	3.499	5.345	6.113	7.192	8.486	9.119	9.607	8.989	7.516	5.420	3.821	3.067	2.707	2.603	2.726	2.798	2.959	3.172	3.211	3.498	3.594	3.688	3.846	3.909	4.099	4.597	4.866
400.0	642.5	915.1	 1243	 1713	 2309	 2768	 2579	 1583	798.5	642.2	676.1	748.5	806.6	851.4	902.0	943.3	988.8	 1027	 1034	 1005	 1005	 1023	 1039	 1032	986.5	894.4	793.7	596.4	432.2	293.3	183.9	110.6	82.05	98.54	261.6	 1218	 1484	215.9	4.103	1.705	1.556	1.478	1.579	1.591	1.616	1.875	2.211	2.713	3.249	3.332	4.046	6.053	7.088	8.581	9.699	10.79	11.24	10.81	8.898	6.140	3.966	2.984	2.569	2.745	2.764	2.848	2.912	3.251	3.360	3.402	3.828	3.880	4.345	4.196	4.438	4.991	5.196
405.0	675.8	960.2	 1324	 1904	 2585	 3179	 2958	 1810	861.4	657.6	691.7	768.6	837.0	897.3	956.4	 1015	 1072	 1115	 1118	 1094	 1089	 1110	 1141	 1140	 1087	985.5	870.8	718.5	510.6	341.5	218.8	126.3	75.71	55.56	78.08	388.2	 1391	 1189	37.04	2.851	1.778	1.891	1.568	1.614	1.952	2.187	2.478	2.876	3.330	3.657	4.543	6.313	7.844	9.453	10.52	12.16	13.34	12.69	10.50	6.940	4.253	3.050	2.629	2.626	2.939	2.966	3.020	3.228	3.401	3.484	4.130	4.284	4.471	4.706	5.047	5.386	5.723
410.0	728.7	 1041	 1440	 2073	 2957	 3671	 3445	 2077	926.3	672.7	713.5	793.7	872.2	944.9	 1016	 1092	 1176	 1229	 1230	 1201	 1184	 1214	 1253	 1261	 1218	 1109	970.0	809.0	617.0	412.4	257.9	151.3	87.04	53.25	42.28	102.8	419.8	 1092	 1120	166.1	9.833	2.159	1.949	1.836	2.174	2.388	2.606	3.214	3.528	3.734	4.726	6.994	8.611	10.63	12.10	14.13	15.68	14.69	11.86	7.741	4.813	3.188	2.890	2.840	2.952	3.054	3.149	3.309	3.777	3.683	4.251	4.303	4.979	4.942	5.111	5.749	6.509
415.0	777.1	 1088	 1496	 2241	 3217	 4098	 3908	 2314	981.3	683.5	727.3	812.5	894.1	973.2	 1070	 1149	 1254	 1312	 1322	 1280	 1258	 1301	 1338	 1358	 1325	 1214	 1055	869.3	684.7	494.1	301.7	175.8	102.9	60.88	40.43	42.19	106.4	270.2	784.9	 1321	251.2	9.343	2.306	1.976	2.331	2.566	2.772	3.549	3.894	4.109	4.921	7.382	9.518	11.56	14.05	15.82	17.39	16.14	13.65	8.871	5.528	3.584	3.052	2.878	2.952	3.151	3.199	3.249	4.083	3.777	4.480	4.614	5.097	5.063	5.590	5.952	6.625
420.0	794.3	 1111	 1546	 2315	 3375	 4321	 4150	 2432	 1015	685.7	723.4	810.8	899.4	 1000	 1089	 1184	 1291	 1359	 1371	 1318	 1293	 1327	 1379	 1405	 1380	 1273	 1113	907.6	706.4	528.7	338.6	195.4	112.5	66.92	43.80	30.83	38.44	70.32	221.3	999.2	 1225	189.9	4.389	2.318	2.470	2.636	2.813	3.254	3.913	4.223	5.014	8.049	9.785	12.50	14.62	16.76	18.43	16.99	13.99	9.237	5.510	3.478	3.013	2.785	2.930	3.007	3.297	3.365	3.823	3.871	4.281	4.935	5.185	5.251	5.600	6.188	6.960
425.0	781.2	 1105	 1584	 2358	 3468	 4454	 4302	 2523	 1036	682.3	718.2	809.6	895.6	999.9	 1103	 1195	 1301	 1380	 1388	 1341	 1310	 1344	 1400	 1431	 1403	 1308	 1146	934.8	726.3	533.1	371.2	217.3	121.2	73.64	47.03	31.49	24.80	26.67	57.78	320.0	 1174	991.1	35.38	3.259	2.462	2.840	2.929	3.590	4.096	4.434	5.234	8.300	10.09	12.66	14.70	17.24	19.28	17.44	14.96	9.645	5.719	3.485	2.962	2.949	3.213	2.969	3.183	3.213	3.881	3.812	4.269	4.687	5.064	5.547	5.721	6.580	6.682
430.0	779.8	 1098	 1596	 2357	 3516	 4550	 4410	 2584	 1043	674.4	713.7	795.5	883.8	986.5	 1089	 1191	 1302	 1383	 1393	 1343	 1309	 1341	 1394	 1431	 1405	 1319	 1156	955.0	743.6	534.3	373.8	248.4	140.5	81.68	51.70	35.01	24.92	19.05	22.41	79.00	360.8	916.3	930.5	151.4	9.811	3.080	3.028	3.733	3.939	4.335	5.119	8.125	10.12	12.61	15.18	17.80	19.70	18.25	15.08	9.679	5.773	3.579	2.779	2.754	2.961	2.926	3.072	3.445	3.545	3.787	4.230	4.667	5.179	5.403	5.722	6.434	6.897
435.0	801.8	 1110	 1541	 2332	 3502	 4593	 4411	 2587	 1033	670.9	693.6	770.3	866.5	961.1	 1062	 1163	 1276	 1354	 1370	 1321	 1282	 1309	 1372	 1403	 1391	 1303	 1148	959.9	746.6	536.2	367.1	250.4	167.8	95.41	58.20	39.74	27.77	19.48	16.19	26.01	86.55	224.8	666.3	 1246	231.8	8.701	3.028	3.664	3.965	4.260	5.273	8.212	10.05	12.55	15.56	17.29	19.77	18.70	14.97	10.12	5.682	3.417	2.985	2.702	2.896	2.829	3.091	3.246	3.431	3.763	4.011	4.189	5.025	5.251	5.438	6.544	6.822
440.0	844.8	 1071	 1494	 2275	 3423	 4483	 4338	 2562	 1015	651.2	667.0	748.1	838.3	926.9	 1028	 1134	 1243	 1319	 1340	 1287	 1240	 1270	 1330	 1371	 1362	 1272	 1131	946.3	737.2	534.6	357.7	238.9	172.9	110.8	63.16	42.19	29.50	21.09	16.04	14.77	26.28	56.17	192.0	994.0	 1112	37.39	4.054	3.834	3.936	4.071	5.064	7.880	10.07	12.29	14.99	17.51	19.19	18.21	15.03	9.654	5.747	3.620	2.732	2.807	2.854	2.855	3.114	3.274	3.394	3.600	4.101	4.315	4.721	5.108	5.373	6.143	6.744
445.0	856.0	 1038	 1436	 2178	 3314	 4323	 4247	 2500	972.3	631.9	652.6	723.0	803.4	890.1	989.1	 1085	 1193	 1276	 1290	 1239	 1197	 1228	 1277	 1321	 1307	 1230	 1097	917.7	717.1	524.1	356.2	233.2	159.9	122.6	72.40	44.29	31.80	21.93	17.03	12.81	13.37	18.58	48.29	327.7	 1147	836.7	28.18	4.289	4.041	3.995	4.986	7.572	9.553	11.93	14.84	16.51	18.29	17.83	14.47	9.223	5.470	3.503	2.705	2.567	2.548	2.697	2.817	2.908	3.211	3.523	4.105	3.913	4.445	4.829	5.314	5.740	6.561
450.0	811.7	 1032	 1357	 2014	 3082	 4066	 3953	 2330	941.0	594.2	613.3	667.4	748.4	823.1	918.4	 1012	 1111	 1184	 1192	 1155	 1115	 1136	 1183	 1224	 1214	 1147	 1026	864.7	679.1	498.0	342.6	223.2	147.5	112.7	85.33	52.81	33.99	24.46	18.91	14.18	11.87	11.11	16.42	78.87	353.8	867.0	874.4	132.5	9.174	4.028	4.582	7.017	8.693	11.44	13.41	15.69	17.43	16.59	13.80	8.501	5.314	3.202	2.669	2.477	2.230	2.483	2.691	2.705	3.078	3.180	3.684	3.745	4.082	4.408	4.979	5.510	5.849
455.0	687.6	 1065	 1243	 1839	 2820	 3685	 3613	 2145	871.2	554.1	561.0	613.7	674.4	743.9	832.6	910.5	 1001	 1072	 1086	 1046	 1011	 1026	 1063	 1108	 1094	 1037	929.6	788.5	625.9	463.3	319.4	211.1	140.1	97.22	79.57	65.19	40.55	26.66	20.28	15.65	12.34	10.30	9.705	22.66	83.26	214.9	614.3	 1042	188.9	8.225	4.291	6.613	8.086	10.58	12.18	13.94	15.95	14.93	12.60	7.956	4.700	3.247	2.345	2.333	2.138	2.314	2.464	2.405	2.869	2.897	3.083	3.504	3.783	4.040	4.420	5.153	5.226
460.0	596.4	985.6	 1219	 1687	 2572	 3387	 3305	 1967	803.0	521.4	515.7	564.4	621.0	683.0	762.4	834.9	921.8	982.8	990.4	953.2	922.2	936.9	983.0	 1010	 1009	947.5	862.2	733.6	578.3	429.3	301.1	201.4	132.7	91.22	70.41	66.32	48.52	28.70	21.04	16.20	13.05	10.63	8.616	10.61	23.42	52.13	173.9	827.8	922.9	26.89	5.328	6.484	7.491	9.629	11.48	12.90	14.91	13.79	11.81	7.175	4.536	2.819	2.321	2.021	2.030	2.314	2.183	2.258	2.573	2.910	2.892	3.411	3.626	3.780	4.283	4.638	4.707
465.0	514.1	840.9	 1227	 1560	 2353	 3126	 3053	 1813	754.2	486.5	484.1	525.6	569.9	632.2	704.6	766.0	847.8	907.2	913.3	873.7	850.2	852.3	896.6	927.4	925.5	872.3	792.1	672.6	536.0	400.2	280.8	189.9	127.2	86.86	64.59	57.47	53.82	33.39	21.44	16.37	12.94	10.75	9.154	8.086	10.04	15.82	43.04	272.2	981.9	662.2	23.34	6.173	6.903	8.865	10.37	11.75	13.71	12.67	10.61	6.790	4.312	2.468	2.202	1.892	1.936	2.164	2.158	2.189	2.469	2.530	2.586	3.163	3.365	3.770	3.786	4.039	4.501
470.0	461.6	656.3	 1083	 1490	 2070	 2728	 2675	 1598	665.6	441.5	439.8	467.5	505.4	557.3	616.1	673.6	737.5	793.8	798.0	764.8	743.6	749.2	783.4	811.0	807.3	766.3	694.7	595.7	472.4	357.0	252.4	172.8	117.5	81.69	59.93	47.87	47.39	40.18	26.16	17.68	13.49	11.00	9.229	7.813	7.460	8.133	13.52	65.20	307.7	691.0	669.6	123.3	11.24	8.021	9.117	10.52	11.99	11.15	9.326	6.109	3.664	2.394	1.981	1.778	1.856	1.855	2.022	2.071	2.113	2.202	2.270	2.616	2.934	3.011	3.240	3.593	3.798
475.0	396.1	537.0	855.7	 1419	 1831	 2324	 2298	 1385	590.4	389.0	392.4	405.7	437.4	486.0	531.4	578.6	634.3	676.6	688.1	657.2	631.5	639.0	669.0	696.1	687.7	653.0	595.6	515.1	413.1	315.9	224.6	153.7	106.8	75.43	55.77	43.88	36.73	36.14	32.56	20.75	13.43	11.25	9.313	8.008	7.232	6.258	7.005	18.45	72.04	168.5	434.9	808.9	169.9	10.90	8.321	9.063	10.68	9.636	7.995	5.149	3.255	2.237	1.765	1.627	1.741	1.669	1.752	1.749	1.894	1.857	1.890	2.239	2.464	2.672	2.958	3.240	3.351
480.0	366.1	482.0	697.4	 1268	 1673	 2081	 2061	 1232	540.2	355.5	351.5	366.4	392.0	434.7	473.5	509.0	564.6	602.9	613.0	582.2	558.4	568.4	595.9	619.0	610.6	581.5	529.9	461.3	374.8	283.9	203.2	141.9	99.37	71.66	53.41	41.39	33.51	30.66	33.68	25.73	14.91	11.67	9.327	8.453	7.278	6.373	5.554	7.828	19.36	40.85	120.6	590.0	713.0	32.85	8.604	8.014	9.302	8.519	7.379	4.991	2.997	1.907	1.874	1.603	1.572	1.395	1.541	1.482	1.867	1.806	1.813	1.862	2.152	2.362	2.443	2.982	3.046
485.0	347.5	434.9	603.7	 1063	 1638	 1881	 1864	 1112	505.4	327.6	321.7	335.0	359.5	389.1	425.3	461.6	507.5	536.2	549.7	525.6	501.4	507.7	537.4	554.0	549.2	525.0	477.6	416.9	339.5	258.5	188.3	133.7	94.71	66.71	50.69	39.32	31.25	26.96	28.92	28.80	17.87	12.33	9.738	8.330	7.090	6.534	5.591	5.422	7.665	12.13	30.26	184.2	715.3	595.6	28.56	7.510	8.162	7.920	6.522	4.348	2.930	1.894	1.738	1.426	1.361	1.276	1.402	1.404	1.509	1.660	1.751	1.817	1.948	1.966	2.325	2.489	2.905
490.0	286.5	384.4	519.3	835.2	 1445	 1744	 1589	965.7	437.9	298.1	287.7	298.9	314.7	338.1	370.6	400.0	438.6	462.7	473.9	454.3	435.8	442.0	463.3	475.6	477.4	452.0	414.2	361.4	295.8	228.0	168.3	120.1	85.10	61.86	47.35	37.02	30.34	24.63	23.48	24.73	23.01	15.16	10.40	8.893	7.229	6.689	5.628	5.154	5.101	5.862	9.750	44.86	215.5	542.6	488.5	124.1	12.29	6.955	5.905	3.955	2.594	1.769	1.313	1.278	1.296	1.201	1.342	1.261	1.419	1.426	1.533	1.648	1.673	1.896	2.058	2.117	2.355
495.0	237.2	344.5	460.9	703.4	 1112	 1606	 1387	811.4	378.3	258.3	255.3	261.5	269.7	291.2	316.0	334.3	366.7	392.4	395.9	382.6	366.9	373.4	389.5	402.3	401.6	383.6	353.8	310.2	252.3	195.0	146.8	105.6	76.79	57.17	43.63	35.00	28.06	23.59	19.68	19.03	21.24	19.92	12.38	8.601	7.354	6.832	5.677	5.557	4.822	4.512	5.211	13.18	51.36	135.0	414.5	736.1	180.3	9.583	4.900	3.585	2.190	1.504	1.371	1.196	1.213	1.030	1.175	1.264	1.187	1.439	1.345	1.401	1.425	1.665	1.685	1.912	2.069
500.0	213.2	305.5	417.9	575.9	893.2	 1415	 1319	719.8	342.4	240.2	231.4	236.9	242.2	256.8	274.7	294.6	320.9	344.2	340.8	334.5	318.9	328.1	337.4	353.2	348.4	336.1	310.3	273.6	222.3	173.4	130.8	94.29	70.55	52.14	40.31	32.78	26.77	22.48	18.50	16.53	16.77	20.20	15.40	9.705	7.866	6.615	5.795	5.406	4.873	4.096	4.126	5.958	14.61	33.91	118.9	539.7	692.3	34.45	5.772	3.170	2.029	1.441	1.203	1.120	1.041	0.984	1.140	1.178	1.102	1.162	1.164	1.268	1.270	1.427	1.558	1.610	1.725
505.0	175.5	258.7	371.7	510.1	755.4	 1167	 1279	670.3	308.5	215.8	209.1	207.8	215.7	225.2	242.5	260.2	280.3	301.0	301.5	294.6	279.7	287.4	297.0	309.1	307.8	296.0	269.1	239.1	195.8	154.8	117.5	85.21	63.68	48.08	38.22	30.46	25.31	20.97	18.00	15.52	14.20	17.02	17.46	11.60	7.878	6.629	5.802	5.438	4.671	4.180	3.952	4.479	6.296	11.02	30.28	168.8	662.6	544.8	28.72	3.267	1.956	1.384	1.165	1.012	1.034	0.975	0.943	0.875	0.913	0.976	1.047	1.167	1.302	1.293	1.398	1.512	1.585
510.0	157.6	206.4	310.0	434.3	628.4	881.6	 1066	717.9	268.7	187.8	180.3	179.5	184.3	191.0	203.6	215.7	235.3	249.0	251.0	245.4	233.3	239.3	246.9	255.3	255.1	244.5	227.8	200.2	166.2	131.4	100.1	75.00	55.91	43.16	33.55	27.55	22.67	19.11	16.48	14.29	12.66	12.55	14.60	14.44	10.06	6.648	5.906	5.322	4.802	4.258	4.004	4.150	4.602	5.509	10.19	41.50	198.0	480.0	427.6	120.5	6.963	1.339	1.054	0.937	0.943	0.859	0.828	0.763	0.793	0.821	0.850	0.978	1.014	1.014	1.146	1.216	1.335
515.0	122.7	164.6	240.6	360.5	518.1	684.2	766.0	755.0	309.7	163.4	152.8	156.6	157.3	160.2	168.3	178.9	193.8	202.9	206.1	200.2	189.0	192.3	202.4	210.3	208.2	200.9	186.9	164.7	138.4	108.6	85.50	64.41	48.34	37.58	29.88	24.60	20.65	17.99	15.73	12.94	11.34	10.23	10.54	13.30	12.60	8.216	5.937	5.414	4.731	4.311	3.852	4.162	4.079	4.199	5.352	12.49	47.47	116.6	309.2	593.7	168.1	4.326	1.054	0.873	0.820	0.775	0.690	0.644	0.646	0.685	0.742	0.887	0.892	0.787	0.906	0.937	1.106
520.0	107.1	149.8	200.7	321.0	449.3	583.2	603.3	651.1	421.4	154.2	134.5	137.0	134.3	138.1	145.7	153.0	166.4	176.8	177.8	172.3	163.5	166.9	176.0	180.9	178.5	172.6	160.9	142.5	120.6	96.36	75.39	57.65	43.18	34.10	27.26	22.92	19.36	16.75	13.94	12.05	10.53	9.748	9.169	10.63	12.97	10.47	6.252	5.351	4.888	4.531	4.295	4.211	3.968	4.017	4.147	6.134	13.66	28.88	86.85	424.2	535.1	32.40	1.872	1.004	0.740	0.763	0.692	0.695	0.588	0.638	0.714	0.693	0.735	0.732	0.797	0.829	0.912
525.0	93.17	132.3	171.5	275.1	381.2	496.2	506.8	478.4	517.2	181.1	126.4	123.5	121.7	124.2	129.5	133.9	145.0	150.9	153.9	148.7	144.9	145.4	151.9	156.4	155.1	150.3	138.7	125.8	105.1	84.29	66.76	51.44	38.85	31.10	25.61	21.11	18.37	15.37	13.28	11.25	10.46	9.376	8.703	8.701	11.34	11.78	7.839	5.767	4.813	4.567	4.460	4.241	4.267	4.017	4.070	4.447	6.285	9.356	22.16	129.2	485.3	270.2	25.99	1.196	0.786	0.724	0.642	0.591	0.617	0.587	0.619	0.540	0.583	0.670	0.700	0.814	0.820
530.0	81.14	109.6	145.8	224.6	335.0	418.6	409.0	315.3	409.9	348.9	123.6	104.5	103.6	105.7	108.6	113.3	121.0	126.8	127.6	123.4	120.1	120.2	124.7	129.8	128.8	124.3	116.0	104.7	88.66	72.99	56.88	44.32	34.26	27.21	22.19	18.81	16.44	14.03	12.12	10.60	9.774	8.699	7.944	7.473	8.590	10.36	9.911	7.309	5.469	4.785	4.435	4.572	4.232	4.277	4.164	4.259	4.516	5.016	7.422	31.00	141.0	323.0	345.7	106.5	4.817	0.669	0.656	0.584	0.607	0.489	0.477	0.475	0.512	0.557	0.562	0.627	0.661
535.0	68.98	96.96	116.9	177.3	276.8	353.0	332.1	240.8	215.2	425.8	220.9	91.51	89.65	89.64	90.53	93.50	100.9	103.3	102.7	102.6	98.55	99.29	103.4	106.2	105.7	103.2	95.34	87.10	75.39	60.72	47.72	38.73	29.43	23.76	19.50	16.27	14.71	12.50	10.96	9.856	9.189	8.065	7.567	6.667	7.273	7.396	9.577	8.895	6.540	4.844	4.830	4.771	4.260	4.250	4.198	4.357	4.139	4.162	4.069	8.893	33.09	77.33	224.7	445.0	35.08	3.311	0.646	0.527	0.552	0.458	0.540	0.428	0.495	0.483	0.468	0.612	0.592
540.0	61.48	75.73	100.9	149.6	227.5	309.3	288.9	201.1	133.1	325.8	341.8	95.14	79.33	78.70	78.39	79.50	86.09	89.35	89.46	88.00	85.72	85.28	87.11	91.13	92.40	89.33	83.11	74.05	64.27	52.72	42.84	33.24	26.98	21.55	18.18	15.48	13.37	11.62	10.12	9.159	8.452	8.047	7.444	6.718	6.632	6.595	7.973	9.578	7.920	5.318	4.909	4.889	4.426	4.266	4.248	4.317	4.117	3.795	3.380	3.899	8.903	18.51	60.82	308.4	386.0	31.31	1.435	0.508	0.589	0.417	0.426	0.382	0.563	0.386	0.511	0.515	0.496
545.0	49.95	68.57	94.78	132.6	192.7	272.8	264.7	167.8	105.8	193.9	413.0	150.7	70.41	69.66	68.75	70.71	74.42	76.14	77.64	74.83	72.96	73.82	77.24	79.10	79.67	78.16	74.05	63.73	56.13	47.45	37.83	30.12	23.99	19.78	16.50	14.30	12.07	10.85	9.448	8.751	7.938	7.476	7.199	6.709	6.221	6.019	6.808	8.498	8.541	6.172	5.044	4.528	4.411	4.312	4.450	4.242	4.048	3.796	3.020	2.803	3.551	5.315	14.72	93.34	358.1	261.6	24.38	0.738	0.502	0.457	0.493	0.400	0.439	0.375	0.436	0.441	0.440
550.0	37.77	54.85	74.00	113.3	157.8	217.4	227.1	144.3	88.35	101.8	280.0	301.7	80.46	58.60	57.45	58.98	62.79	64.56	65.46	63.26	60.89	61.76	63.72	65.43	65.64	64.82	60.30	54.38	47.24	39.64	32.70	25.44	20.78	16.62	14.28	12.26	10.39	9.399	8.612	7.799	7.002	6.810	6.304	6.291	5.937	5.591	5.792	6.600	7.879	7.134	5.701	4.632	4.275	4.116	4.061	3.922	4.060	3.598	3.107	2.550	2.303	2.225	4.200	21.72	103.9	251.3	275.7	87.18	3.703	0.440	0.366	0.348	0.340	0.344	0.364	0.352	0.367
555.0	36.88	46.62	62.20	91.44	125.3	165.3	183.7	127.6	72.40	66.15	122.5	317.0	186.7	48.34	47.21	48.35	50.19	52.36	53.31	50.78	49.26	50.72	50.93	53.10	52.32	51.73	49.14	44.09	39.15	33.04	27.47	20.91	17.20	13.98	12.01	10.59	9.255	8.120	7.492	6.615	6.276	5.906	5.480	5.344	5.176	5.121	5.373	5.160	5.773	6.638	6.358	4.822	4.025	3.852	3.843	3.782	3.642	3.403	3.188	2.239	1.793	1.657	1.683	5.626	23.84	59.63	166.8	326.0	35.17	2.430	0.395	0.289	0.354	0.265	0.249	0.323	0.382
560.0	32.82	40.41	53.07	76.63	105.1	137.3	150.3	116.9	64.05	54.79	67.86	216.7	288.5	56.17	41.06	40.59	41.69	44.53	44.30	43.37	40.96	41.69	43.02	44.32	44.49	43.61	40.82	37.42	32.63	27.80	23.36	18.91	14.53	12.18	10.31	9.402	7.995	7.106	6.416	5.968	5.867	5.218	5.042	4.689	4.558	4.549	4.424	4.441	4.647	5.878	6.153	5.134	4.023	3.487	3.525	3.536	3.290	3.123	2.637	2.182	1.724	1.273	1.256	1.982	5.923	13.89	44.63	220.3	268.9	29.48	0.964	0.294	0.280	0.221	0.243	0.246	0.298
565.0	30.23	40.15	44.30	64.50	88.44	113.1	118.1	107.9	60.12	49.96	49.84	115.3	305.9	110.8	35.17	34.90	35.18	36.71	36.69	35.69	35.08	35.24	36.17	36.97	37.66	36.52	33.74	31.84	27.29	23.19	19.78	15.82	13.02	10.77	9.156	8.066	6.908	6.185	5.722	5.120	5.007	4.534	4.475	4.125	4.234	3.883	3.888	4.021	4.173	4.446	5.279	5.075	3.952	3.112	3.016	2.992	3.010	2.813	2.409	2.010	1.540	1.241	1.174	1.068	1.852	3.563	10.53	65.15	241.7	209.6	20.63	0.377	0.235	0.219	0.260	0.243	0.293
570.0	25.18	30.18	37.84	50.43	69.98	87.41	91.95	82.07	63.10	41.34	39.40	55.25	180.2	224.0	47.98	27.64	27.38	28.21	29.00	27.40	27.11	26.85	28.63	28.86	28.64	28.02	26.73	24.45	21.84	18.14	15.50	12.86	9.921	8.467	7.373	6.515	5.617	5.048	4.747	4.375	4.007	3.670	3.654	3.511	3.562	3.295	3.276	3.153	3.338	3.284	3.771	4.230	4.032	3.047	2.803	2.529	2.523	2.373	2.074	1.748	1.445	1.180	0.928	0.780	0.852	1.182	2.738	15.00	69.60	168.7	171.4	23.09	2.037	0.239	0.212	0.252	0.191
575.0	14.53	26.77	33.35	44.66	53.40	66.01	70.93	55.03	56.88	41.38	33.09	35.63	68.94	206.0	141.4	21.23	20.97	21.26	20.90	20.86	20.41	20.45	22.05	21.81	21.55	21.17	19.77	18.73	15.99	13.59	11.79	9.962	7.926	6.567	5.486	5.254	4.604	3.942	3.738	3.390	3.184	2.828	3.198	2.928	2.930	2.973	2.613	2.428	2.555	2.646	2.663	3.054	3.605	2.935	2.495	2.220	2.040	1.669	1.585	1.519	1.291	1.143	0.864	0.670	0.545	0.635	0.898	3.591	15.89	39.99	102.5	178.0	32.47	1.411	0.197	0.138	0.160
580.0	15.01	20.93	30.39	35.97	45.08	53.29	57.58	43.32	46.15	45.14	30.06	29.51	35.41	124.2	217.7	32.61	17.17	17.33	16.57	17.02	17.00	16.88	17.55	16.61	16.82	17.30	16.59	14.69	12.97	11.48	9.389	8.159	6.354	5.370	4.968	4.359	3.861	3.153	3.025	2.909	2.618	2.673	2.500	2.537	2.428	2.568	2.346	2.221	2.138	2.241	2.135	2.229	2.705	2.816	2.423	1.987	1.872	1.454	1.368	1.289	1.053	0.921	0.815	0.595	0.510	0.543	0.489	1.047	3.801	9.106	27.94	123.9	148.4	23.34	0.445	0.208	0.172
585.0	16.53	21.72	24.95	33.11	38.10	44.45	46.73	35.97	38.89	47.44	31.92	27.12	24.72	61.02	212.3	88.46	15.09	14.80	14.30	14.23	13.44	13.74	14.59	13.67	14.07	14.09	13.59	11.93	10.06	9.709	7.666	6.378	5.239	4.761	3.770	3.728	3.259	2.873	2.627	2.490	2.232	2.192	2.253	1.933	2.310	2.257	2.017	1.909	1.854	1.954	1.892	1.852	2.035	2.631	2.349	1.934	1.865	1.469	1.164	1.208	0.936	0.831	0.690	0.637	0.429	0.438	0.373	0.440	1.129	2.263	6.407	37.49	133.1	111.3	13.87	0.277	0.086
590.0	14.89	16.14	22.36	28.32	32.30	38.08	35.42	29.94	27.09	39.72	36.72	24.44	21.12	27.39	112.0	174.1	31.37	11.56	11.41	11.43	10.88	10.72	10.88	10.99	11.05	10.88	10.51	9.565	8.580	7.475	6.200	5.321	4.190	3.722	3.299	2.905	2.545	2.392	2.107	1.971	1.891	1.817	1.840	1.694	1.852	1.776	1.699	1.614	1.465	1.598	1.523	1.491	1.549	1.850	2.193	1.836	1.557	1.274	1.041	0.981	0.798	0.666	0.577	0.526	0.477	0.389	0.316	0.326	0.490	0.669	1.631	8.562	38.76	90.72	94.23	20.13	1.210
595.0	12.27	16.44	22.06	21.65	29.59	31.41	29.36	25.14	21.16	28.81	43.41	25.27	18.37	18.15	38.58	142.1	112.1	10.01	8.400	8.505	8.259	8.137	8.131	8.832	9.227	8.829	8.276	7.608	6.709	5.973	5.236	4.055	3.373	2.818	2.446	2.333	2.020	1.901	1.867	1.656	1.423	1.453	1.467	1.337	1.377	1.380	1.310	1.302	1.249	1.280	1.122	1.179	1.275	1.268	1.446	1.632	1.496	1.188	0.788	0.785	0.700	0.585	0.469	0.423	0.523	0.348	0.328	0.260	0.293	0.264	0.567	2.035	8.761	21.55	57.44	99.37	27.66
600.0	14.57	14.94	20.67	20.44	23.18	27.25	26.99	20.60	19.90	23.18	39.26	29.46	17.39	15.18	17.77	80.56	173.4	21.73	8.064	6.984	6.901	6.752	6.824	7.207	7.293	7.254	6.744	5.810	5.415	5.018	4.320	3.236	3.239	2.278	2.133	1.936	1.819	1.533	1.536	1.366	1.301	1.207	1.258	1.161	1.289	1.078	1.206	1.041	1.027	1.049	1.018	0.961	0.998	1.036	1.045	1.327	1.450	1.047	0.822	0.735	0.574	0.434	0.446	0.387	0.368	0.391	0.273	0.238	0.240	0.185	0.268	0.573	2.104	4.967	15.64	68.10	87.10
605.0	11.37	14.85	18.88	20.62	21.85	23.80	22.51	20.62	17.02	20.73	33.10	35.03	19.71	15.81	14.91	37.15	160.0	69.05	6.552	5.825	5.867	5.776	6.008	6.050	6.135	6.146	5.477	4.895	4.448	4.183	3.376	2.811	2.736	1.978	1.750	1.784	1.575	1.217	1.204	1.034	1.167	0.965	1.076	0.982	1.139	0.941	1.018	0.935	0.925	0.972	0.813	0.949	0.777	0.878	0.905	1.049	1.403	1.053	0.818	0.615	0.494	0.423	0.318	0.332	0.384	0.388	0.372	0.243	0.187	0.226	0.254	0.241	0.603	1.187	3.651	21.01	76.09
610.0	10.13	15.55	18.64	18.47	19.75	21.39	19.94	16.82	14.92	17.61	24.97	35.45	25.98	17.67	15.46	18.93	79.59	128.9	23.42	5.149	4.680	4.634	5.019	4.788	4.951	4.832	4.411	4.010	3.822	3.311	2.649	2.143	2.129	1.816	1.558	1.445	1.284	1.041	1.009	0.892	0.928	0.824	0.846	0.794	0.862	0.789	0.872	0.858	0.736	0.757	0.727	0.741	0.671	0.735	0.691	0.774	0.920	1.016	0.725	0.550	0.425	0.351	0.302	0.323	0.304	0.359	0.302	0.320	0.193	0.175	0.181	0.187	0.233	0.354	0.904	4.842	22.52
615.0	11.02	13.82	16.20	19.57	17.39	20.32	17.05	14.14	13.85	16.94	21.05	30.85	32.69	21.09	17.91	15.47	27.63	106.7	91.91	4.769	3.706	3.629	3.732	3.895	3.792	3.919	3.415	3.345	3.164	2.453	2.295	1.844	1.558	1.171	1.307	1.092	1.046	0.806	0.844	0.902	0.770	0.634	0.658	0.662	0.652	0.710	0.630	0.599	0.657	0.689	0.572	0.668	0.618	0.599	0.524	0.629	0.628	0.736	0.730	0.613	0.433	0.316	0.257	0.309	0.230	0.258	0.199	0.244	0.261	0.228	0.158	0.181	0.187	0.162	0.274	1.151	5.117
620.0	10.36	16.40	12.70	16.29	16.06	17.23	16.88	12.49	12.52	16.25	19.93	28.49	35.82	24.68	19.27	15.56	13.68	55.70	136.6	17.05	3.175	3.155	3.334	3.254	3.112	2.878	2.860	3.064	2.397	1.920	1.727	1.516	1.389	1.130	0.902	0.996	0.838	0.790	0.658	0.602	0.617	0.668	0.599	0.530	0.589	0.623	0.564	0.546	0.565	0.521	0.520	0.581	0.531	0.496	0.386	0.523	0.532	0.538	0.569	0.599	0.434	0.292	0.247	0.273	0.222	0.244	0.158	0.211	0.278	0.224	0.190	0.098	0.143	0.091	0.120	0.360	1.227
625.0	11.53	12.96	17.11	18.69	16.78	15.60	13.89	14.64	14.04	16.11	20.59	24.98	35.01	30.06	21.47	16.63	11.29	23.90	121.5	60.62	2.889	2.885	3.069	2.911	2.557	2.573	2.447	2.376	2.422	1.809	1.500	1.211	1.170	0.900	0.915	0.804	0.642	0.650	0.553	0.519	0.523	0.443	0.441	0.487	0.486	0.515	0.444	0.495	0.433	0.457	0.452	0.487	0.466	0.426	0.370	0.471	0.396	0.387	0.494	0.546	0.399	0.265	0.207	0.218	0.201	0.206	0.176	0.203	0.234	0.247	0.183	0.127	0.115	0.116	0.073	0.142	0.369
630.0	9.527	12.04	15.21	16.46	16.02	16.30	14.45	12.40	13.05	16.02	19.45	23.30	32.32	35.46	24.49	17.85	11.20	10.20	55.90	106.5	17.49	2.181	2.317	2.180	2.233	2.142	2.185	1.879	1.845	1.407	1.202	1.129	0.915	0.759	0.671	0.748	0.584	0.541	0.525	0.492	0.501	0.382	0.372	0.360	0.413	0.440	0.367	0.390	0.383	0.352	0.378	0.412	0.385	0.360	0.358	0.339	0.368	0.323	0.365	0.453	0.409	0.265	0.236	0.253	0.188	0.176	0.153	0.205	0.199	0.189	0.241	0.168	0.123	0.092	0.091	0.115	0.134
635.0	11.55	12.72	13.43	14.34	14.35	14.78	14.00	12.62	12.87	15.92	20.19	23.18	27.56	36.16	29.56	17.93	12.05	6.937	17.07	79.91	74.05	2.493	1.956	2.124	1.737	1.836	1.851	1.561	1.319	1.100	0.895	0.893	0.673	0.557	0.549	0.576	0.475	0.449	0.442	0.377	0.329	0.391	0.364	0.362	0.355	0.366	0.345	0.352	0.325	0.314	0.361	0.274	0.293	0.284	0.313	0.329	0.307	0.296	0.243	0.341	0.352	0.315	0.254	0.222	0.147	0.138	0.142	0.119	0.178	0.149	0.144	0.173	0.172	0.107	0.139	0.100	0.047
640.0	8.453	12.75	13.61	18.43	15.88	13.27	13.52	11.82	13.19	15.52	19.21	23.34	26.43	32.48	31.12	19.78	11.48	6.478	6.341	39.28	108.5	12.86	1.581	1.745	1.482	1.651	1.436	1.204	1.155	1.069	0.838	0.691	0.546	0.532	0.524	0.481	0.378	0.401	0.375	0.339	0.302	0.315	0.319	0.307	0.298	0.321	0.342	0.272	0.241	0.304	0.268	0.229	0.267	0.219	0.233	0.267	0.287	0.272	0.214	0.209	0.266	0.249	0.236	0.163	0.164	0.112	0.154	0.135	0.148	0.131	0.157	0.183	0.208	0.154	0.107	0.135	0.050
645.0	7.659	14.24	11.65	17.06	13.32	13.70	15.16	13.52	13.90	15.11	19.14	23.28	27.94	32.05	33.26	20.30	11.21	6.155	4.140	14.88	94.77	48.67	1.695	1.464	1.334	1.329	1.073	1.103	0.821	0.944	0.729	0.634	0.519	0.437	0.417	0.432	0.352	0.373	0.348	0.301	0.237	0.275	0.301	0.226	0.274	0.256	0.316	0.263	0.245	0.242	0.269	0.244	0.237	0.228	0.256	0.210	0.256	0.217	0.186	0.169	0.250	0.274	0.227	0.173	0.150	0.174	0.170	0.132	0.177	0.129	0.177	0.122	0.248	0.132	0.115	0.115	0.070
650.0	10.63	11.44	13.13	16.57	15.18	14.05	14.96	13.39	14.28	15.05	17.22	22.65	26.99	26.40	31.53	21.37	11.54	6.056	4.036	6.090	53.67	86.62	4.893	1.329	1.183	1.157	1.062	0.999	0.852	0.818	0.624	0.570	0.548	0.502	0.318	0.345	0.323	0.398	0.380	0.239	0.229	0.231	0.254	0.282	0.240	0.238	0.301	0.221	0.216	0.231	0.223	0.250	0.244	0.231	0.215	0.240	0.220	0.169	0.181	0.184	0.192	0.190	0.252	0.180	0.178	0.179	0.153	0.108	0.186	0.111	0.126	0.174	0.208	0.191	0.108	0.127	0.049
