Sample:	'1
File name:	Default_20230221_145107.FD3
Run date:	'14:44:46, 02/21/2023
Operator:	dsjg
Comment:	'

Instrument
Model:	F-2700 FL Spectrophotometer
Serial number:	2198-001
ROM Version:	4J14000 07

Instrument parameters
Measurement type:	3-D scan
Data mode:	Fluorescence
EX  Start WL:	220.0 nm
EX  End WL:	600.0 nm
EX Sampling interval:	5.0 nm
EM  Start WL:	230.0 nm
EM  End WL:	650.0 nm
EM Sampling interval:	5.0 nm
Scan speed:	12000 nm/min
EX Slit:	5.0 nm
EM Slit:	5.0 nm
PMT Voltage:	700 V
Response:	Auto 
Corrected spectra:	Off
Contour interval:	50.000

Peak integration
Integration method:	Rectangular
Sensitivity:	1
Threshold:	1.000

Peaks
No.	ApexEX/EM(nm)	Height(Data)
1	230.0/350.0	385.7
2	230.0/375.0	377.3
3	230.0/625.0	9.209
4	235.0/380.0	385.6
5	240.0/525.0	112.6
6	245.0/395.0	400.1
7	245.0/535.0	95.89
8	250.0/400.0	476.1
9	250.0/550.0	74.90
10	255.0/280.0	191.4
11	255.0/425.0	399.9
12	255.0/440.0	397.2
13	255.0/560.0	63.42
14	260.0/290.0	209.0
15	260.0/435.0	397.7
16	260.0/570.0	47.61
17	265.0/295.0	265.4
18	265.0/440.0	397.6
19	265.0/585.0	39.48
20	270.0/300.0	335.5
21	270.0/400.0	386.5
22	270.0/415.0	388.7
23	270.0/595.0	34.57
24	275.0/305.0	393.3
25	275.0/610.0	30.02
26	280.0/310.0	376.2
27	280.0/350.0	367.4
28	280.0/360.0	368.8
29	280.0/385.0	379.5
30	280.0/620.0	26.08
31	285.0/320.0	384.6
32	285.0/635.0	18.83
33	290.0/325.0	366.1
34	305.0/345.0	257.1
35	310.0/350.0	237.0
36	315.0/355.0	236.6
37	320.0/360.0	240.7
38	325.0/370.0	235.5
39	330.0/375.0	230.4
40	335.0/380.0	226.7
41	340.0/390.0	218.2
42	350.0/400.0	198.8
43	365.0/420.0	165.8
44	430.0/505.0	24.46
45	445.0/525.0	14.70
46	545.0/300.0	2.097
47	550.0/305.0	2.130
48	560.0/310.0	2.118
49	570.0/315.0	2.499
50	580.0/325.0	2.121

Data points
	220.0	225.0	230.0	235.0	240.0	245.0	250.0	255.0	260.0	265.0	270.0	275.0	280.0	285.0	290.0	295.0	300.0	305.0	310.0	315.0	320.0	325.0	330.0	335.0	340.0	345.0	350.0	355.0	360.0	365.0	370.0	375.0	380.0	385.0	390.0	395.0	400.0	405.0	410.0	415.0	420.0	425.0	430.0	435.0	440.0	445.0	450.0	455.0	460.0	465.0	470.0	475.0	480.0	485.0	490.0	495.0	500.0	505.0	510.0	515.0	520.0	525.0	530.0	535.0	540.0	545.0	550.0	555.0	560.0	565.0	570.0	575.0	580.0	585.0	590.0	595.0	600.0
230.0	77.82	 1168	 1868	283.5	5.604	2.193	1.869	1.428	1.103	1.247	0.878	1.033	0.827	0.674	0.674	0.585	0.527	0.538	0.467	0.366	0.389	0.411	0.333	0.307	0.342	0.334	0.302	0.248	0.265	0.238	0.255	0.218	0.195	0.193	0.236	0.294	0.315	0.281	0.245	0.223	0.212	0.259	0.288	0.243	0.198	0.185	0.653	3.291	7.027	5.816	1.921	0.348	0.104	0.090	0.066	0.062	0.071	0.064	0.063	0.051	0.048	0.044	0.031	0.036	0.025	0.031	0.031	0.010	0.036	0.011	0.012	0.019	0.005	0.012	0.007	0.013	0.011
235.0	43.13	369.4	 1595	 1818	325.5	5.868	2.052	1.755	1.494	1.453	1.318	1.088	0.886	0.806	0.680	0.615	0.664	0.467	0.508	0.453	0.403	0.417	0.362	0.298	0.320	0.268	0.357	0.258	0.249	0.212	0.248	0.230	0.164	0.199	0.230	0.216	0.305	0.299	0.221	0.243	0.198	0.229	0.235	0.304	0.278	0.221	0.272	0.878	2.474	4.569	6.762	7.234	2.862	0.467	0.104	0.093	0.102	0.082	0.062	0.039	0.043	0.040	0.048	0.041	0.040	0.021	0.040	0.021	0.049	0.008	0.011	0.009	-0.002	0.024	0.006	0.002	0.016
240.0	64.69	105.8	612.8	 2052	 1842	214.6	3.504	1.807	2.091	1.826	1.308	1.156	1.202	0.888	0.747	0.531	0.549	0.508	0.457	0.439	0.506	0.493	0.424	0.387	0.249	0.308	0.317	0.231	0.332	0.228	0.266	0.207	0.214	0.186	0.231	0.191	0.230	0.284	0.250	0.296	0.261	0.176	0.180	0.286	0.349	0.380	0.268	0.328	0.701	1.405	3.355	7.897	9.286	6.433	2.018	0.245	0.080	0.103	0.052	0.046	0.036	0.042	0.058	0.066	0.048	0.040	0.026	0.012	0.015	0.009	0.012	0.020	0.001	0.004	0.039	-0.002	0.010
245.0	68.05	80.18	160.0	940.9	 2664	 1501	123.7	3.329	2.446	1.744	1.415	1.359	1.377	0.913	0.735	0.747	0.578	0.568	0.525	0.484	0.563	0.445	0.459	0.364	0.340	0.291	0.341	0.277	0.371	0.265	0.264	0.230	0.241	0.187	0.154	0.204	0.183	0.317	0.317	0.276	0.292	0.203	0.165	0.206	0.272	0.348	0.436	0.435	0.360	0.427	0.889	2.703	6.192	11.10	10.37	5.477	1.170	0.119	0.064	0.075	0.052	0.078	0.065	0.050	0.074	0.018	0.041	0.014	0.016	0.032	0.031	0.019	0.013	0.015	0.029	0.013	0.026
250.0	28.89	82.52	117.3	248.7	 1090	 2266	 1933	175.7	11.85	2.656	2.207	1.835	1.490	1.054	0.969	0.800	0.681	0.583	0.556	0.476	0.490	0.441	0.506	0.355	0.359	0.357	0.364	0.287	0.331	0.264	0.245	0.224	0.183	0.222	0.159	0.177	0.157	0.203	0.195	0.298	0.328	0.235	0.216	0.187	0.239	0.208	0.287	0.429	0.480	0.516	0.434	0.709	1.622	3.725	6.684	9.535	11.57	9.684	4.896	1.339	0.098	0.067	0.059	0.056	0.052	0.028	0.037	0.022	0.040	0.037	0.021	0.021	0.019	0.021	0.017	0.013	0.010
255.0	9.664	34.00	106.1	160.9	266.5	692.7	 2151	 2358	268.1	11.68	3.191	2.706	1.893	1.470	1.152	0.947	0.864	0.769	0.649	0.576	0.448	0.427	0.421	0.330	0.349	0.328	0.379	0.319	0.300	0.317	0.285	0.277	0.216	0.191	0.174	0.177	0.177	0.152	0.133	0.205	0.238	0.208	0.250	0.234	0.229	0.188	0.182	0.227	0.310	0.434	0.693	0.695	0.598	0.960	1.596	2.434	4.792	10.53	17.23	16.09	6.760	1.068	0.079	0.068	0.046	0.041	0.043	0.038	0.063	0.027	0.030	0.030	0.026	0.035	0.015	0.010	0.008
260.0	7.252	16.03	51.43	159.6	143.5	171.9	811.0	 2777	 2292	212.9	6.979	3.493	2.390	1.711	1.249	1.189	0.883	0.946	0.628	0.662	0.529	0.511	0.457	0.471	0.446	0.322	0.407	0.393	0.294	0.266	0.296	0.275	0.321	0.145	0.173	0.164	0.153	0.146	0.144	0.174	0.157	0.246	0.225	0.206	0.195	0.176	0.163	0.172	0.176	0.254	0.401	0.791	0.817	0.626	0.532	0.653	1.218	3.064	8.263	16.69	19.64	14.12	5.003	0.465	0.072	0.033	0.042	0.034	0.058	0.042	0.029	0.034	0.038	0.025	0.035	0.018	0.034
265.0	5.264	7.632	16.75	91.58	168.8	87.01	201.7	 1202	 3491	 1951	136.1	4.336	3.139	2.234	1.605	1.158	0.928	1.038	0.621	0.791	0.629	0.519	0.482	0.436	0.473	0.363	0.412	0.395	0.292	0.332	0.335	0.305	0.336	0.225	0.216	0.214	0.186	0.153	0.165	0.186	0.127	0.225	0.221	0.223	0.215	0.230	0.193	0.134	0.167	0.171	0.209	0.384	0.719	0.948	0.743	0.361	0.396	0.823	2.070	5.422	11.72	20.79	22.83	11.42	2.264	0.106	0.042	0.038	0.071	0.039	0.020	0.041	0.055	0.026	0.021	0.041	0.037
270.0	10.66	11.57	11.01	29.88	100.8	149.3	113.6	297.1	 1317	 2942	 2893	737.2	30.86	3.589	2.373	1.718	1.442	1.120	0.905	0.763	0.734	0.664	0.483	0.450	0.506	0.421	0.447	0.423	0.382	0.399	0.366	0.393	0.296	0.238	0.225	0.235	0.183	0.195	0.189	0.190	0.139	0.158	0.208	0.236	0.257	0.227	0.225	0.199	0.198	0.164	0.156	0.211	0.302	0.506	0.786	0.775	0.814	0.543	0.645	1.329	2.957	6.615	12.48	17.81	20.19	17.68	8.582	2.302	0.165	0.055	0.076	0.053	0.059	0.040	0.034	0.039	0.049
275.0	19.78	23.52	21.05	15.46	33.74	91.40	179.5	145.2	313.7	835.2	 2811	 4350	 1018	23.88	3.358	2.422	1.783	1.326	1.261	0.999	0.845	0.832	0.716	0.560	0.653	0.503	0.448	0.442	0.345	0.385	0.374	0.350	0.355	0.313	0.231	0.262	0.218	0.228	0.219	0.164	0.187	0.175	0.214	0.211	0.257	0.352	0.339	0.281	0.219	0.252	0.164	0.167	0.169	0.243	0.314	0.363	0.886	1.204	1.030	0.628	0.826	1.626	2.949	4.324	6.987	15.35	24.27	25.72	12.71	1.804	0.114	0.066	0.061	0.065	0.028	0.030	0.023
280.0	39.98	39.02	28.05	17.61	18.49	38.57	138.4	191.4	123.3	214.4	945.7	 3521	 4298	129.8	10.27	2.976	2.316	1.985	1.551	1.184	1.021	0.813	0.769	0.688	0.585	0.572	0.547	0.418	0.387	0.455	0.365	0.341	0.265	0.346	0.254	0.290	0.232	0.231	0.204	0.212	0.206	0.246	0.203	0.178	0.327	0.296	0.342	0.307	0.329	0.227	0.181	0.156	0.212	0.176	0.197	0.156	0.442	0.799	1.245	1.222	0.663	0.571	0.828	1.190	1.745	4.225	10.15	21.54	30.44	22.56	6.475	0.453	0.090	0.054	0.064	0.037	0.045
285.0	48.53	55.73	40.48	23.11	17.81	20.97	66.43	184.1	181.1	95.07	255.5	 1301	 4065	 3792	103.9	5.199	3.262	2.358	1.841	1.265	1.256	0.933	0.951	0.660	0.526	0.540	0.492	0.453	0.503	0.461	0.362	0.433	0.321	0.323	0.273	0.301	0.306	0.234	0.253	0.245	0.254	0.258	0.180	0.219	0.290	0.345	0.401	0.429	0.354	0.290	0.262	0.171	0.241	0.188	0.169	0.198	0.257	0.388	0.679	1.141	1.291	0.937	0.509	0.522	0.623	1.180	2.595	6.391	15.16	27.88	28.58	15.89	2.922	0.104	0.093	0.070	0.024
290.0	68.38	83.05	65.18	39.05	27.80	25.21	39.30	96.87	209.0	201.6	146.2	366.4	 1363	 3074	 3579	 1321	25.19	3.423	2.478	1.685	1.466	0.969	1.237	0.952	0.732	0.735	0.618	0.523	0.524	0.499	0.388	0.441	0.309	0.336	0.345	0.346	0.387	0.294	0.299	0.255	0.297	0.272	0.219	0.259	0.290	0.342	0.440	0.531	0.441	0.375	0.317	0.240	0.249	0.229	0.192	0.230	0.258	0.293	0.351	0.544	0.910	1.128	1.256	1.069	0.696	0.620	0.897	1.784	3.963	8.202	13.84	20.18	22.83	18.40	10.03	1.990	0.111
295.0	96.39	104.2	86.46	55.08	40.01	36.52	43.14	66.33	130.0	265.4	231.1	201.6	387.6	816.5	 2105	 4525	644.6	25.37	3.628	2.447	1.617	1.164	1.410	1.023	0.900	0.828	0.722	0.717	0.549	0.474	0.541	0.414	0.405	0.342	0.369	0.409	0.390	0.355	0.331	0.302	0.277	0.247	0.284	0.251	0.400	0.431	0.472	0.518	0.498	0.509	0.401	0.390	0.311	0.296	0.285	0.289	0.342	0.359	0.349	0.406	0.478	0.687	0.969	1.376	1.766	1.363	0.877	0.969	1.278	2.338	3.453	4.995	7.419	15.14	29.51	27.54	12.96
300.0	100.3	124.5	108.5	67.49	53.51	50.15	55.91	71.79	107.3	208.2	335.5	223.3	202.6	264.6	663.5	 2822	 4516	520.7	10.44	3.336	2.411	1.567	1.537	1.186	1.147	0.872	0.869	0.840	0.537	0.729	0.473	0.446	0.392	0.367	0.315	0.373	0.444	0.455	0.421	0.270	0.337	0.287	0.263	0.360	0.416	0.461	0.508	0.516	0.585	0.573	0.385	0.437	0.415	0.364	0.331	0.324	0.348	0.402	0.406	0.405	0.516	0.656	0.757	0.956	1.730	2.097	1.698	1.003	0.931	1.163	1.271	1.519	1.941	4.166	11.53	24.70	36.64
305.0	116.7	135.9	126.4	79.63	60.31	57.43	71.17	89.38	118.6	179.3	299.9	393.3	206.7	168.1	222.9	914.6	 3552	 4269	69.39	5.841	3.024	2.027	1.709	1.300	1.211	1.010	0.903	0.818	0.830	0.654	0.613	0.488	0.433	0.386	0.345	0.387	0.465	0.442	0.419	0.357	0.440	0.311	0.381	0.356	0.388	0.451	0.515	0.584	0.634	0.587	0.458	0.535	0.443	0.363	0.373	0.370	0.379	0.455	0.474	0.558	0.627	0.711	0.761	0.832	1.258	1.679	2.130	1.985	1.432	1.047	0.871	0.813	0.841	1.312	2.982	7.216	18.07
310.0	127.1	156.4	129.9	92.01	73.61	72.05	88.40	110.6	136.5	182.7	246.4	359.4	376.2	227.7	149.6	265.7	 1062	 2889	 3629	 1345	20.50	2.988	2.231	1.691	1.300	1.184	1.118	0.864	0.841	0.701	0.690	0.556	0.461	0.397	0.408	0.416	0.522	0.394	0.387	0.349	0.369	0.319	0.356	0.361	0.454	0.498	0.525	0.594	0.632	0.536	0.537	0.504	0.482	0.461	0.394	0.443	0.465	0.527	0.592	0.621	0.754	0.802	0.859	0.869	1.054	1.304	1.491	1.925	2.118	1.916	1.466	0.898	0.831	0.789	1.085	1.952	4.540
315.0	140.8	171.9	151.3	110.7	88.37	88.32	101.2	129.1	154.9	197.9	247.9	296.1	359.0	378.2	197.1	137.2	291.7	718.5	 1799	 4493	465.6	20.78	3.234	2.495	1.607	1.344	1.143	0.955	0.913	0.780	0.678	0.550	0.442	0.465	0.549	0.416	0.466	0.477	0.486	0.408	0.413	0.344	0.358	0.369	0.458	0.431	0.572	0.734	0.663	0.543	0.526	0.621	0.529	0.459	0.469	0.498	0.497	0.620	0.643	0.688	0.823	0.852	0.903	1.123	1.103	1.235	1.495	1.533	1.571	1.742	2.499	1.750	1.102	0.782	0.728	0.904	1.441
320.0	165.6	195.5	175.0	120.0	92.92	99.34	114.4	141.3	168.6	212.1	260.5	293.1	319.8	384.6	310.5	140.0	132.9	201.0	504.6	 2511	 3793	425.0	10.98	2.998	2.141	1.757	1.418	1.092	0.957	0.907	0.768	0.697	0.559	0.531	0.486	0.443	0.450	0.379	0.464	0.470	0.377	0.365	0.398	0.399	0.563	0.618	0.627	0.757	0.809	0.696	0.538	0.630	0.542	0.546	0.560	0.565	0.565	0.561	0.765	0.725	0.821	0.843	1.004	1.066	1.100	1.311	1.353	1.525	1.535	1.584	1.956	2.081	2.106	1.186	0.831	0.717	0.734
325.0	180.7	233.4	212.3	140.2	105.1	103.8	125.3	151.7	182.8	228.1	279.0	304.5	311.2	326.0	366.1	214.4	110.1	94.33	146.9	721.2	 3070	 3596	56.80	5.219	2.680	1.922	1.583	1.299	1.055	0.873	0.957	0.771	0.638	0.428	0.502	0.463	0.502	0.412	0.486	0.432	0.400	0.353	0.469	0.514	0.582	0.681	0.835	0.997	0.903	0.850	0.642	0.688	0.539	0.614	0.634	0.676	0.604	0.653	0.801	0.951	0.945	0.967	1.085	1.042	1.280	1.357	1.643	1.522	1.618	1.655	1.527	1.656	2.121	2.085	1.367	0.977	0.652
330.0	202.0	284.1	272.5	192.6	132.8	124.5	139.1	164.3	194.1	245.7	298.9	318.7	328.8	308.9	305.3	298.9	179.7	89.14	79.96	194.3	850.3	 2504	 3343	 1219	18.00	2.918	2.063	1.640	1.399	1.025	1.037	0.833	0.672	0.566	0.527	0.502	0.534	0.479	0.471	0.461	0.391	0.407	0.441	0.555	0.606	0.825	0.957	1.137	1.125	0.991	0.842	0.845	0.695	0.621	0.697	0.668	0.719	0.782	0.883	0.940	0.946	1.030	1.146	1.279	1.412	1.506	1.653	1.518	1.633	1.702	1.622	1.614	1.608	1.704	1.828	1.667	1.315
335.0	218.2	325.0	331.9	235.3	171.3	148.4	160.8	182.0	214.9	264.4	316.7	341.9	348.1	325.4	281.0	254.7	276.0	152.7	82.50	88.50	222.4	603.0	 1671	 4407	 1702	20.49	2.786	2.134	1.658	1.398	1.158	0.833	0.753	0.699	0.590	0.604	0.473	0.556	0.430	0.449	0.345	0.374	0.389	0.556	0.592	0.919	1.073	1.299	1.349	1.151	0.986	1.053	0.922	0.766	0.753	0.706	0.847	0.833	0.850	0.970	1.110	1.189	1.287	1.266	1.464	1.623	1.738	1.694	1.777	1.826	1.846	1.718	1.577	1.493	1.375	1.572	1.834
340.0	236.6	338.1	359.0	275.0	199.7	172.6	189.0	193.0	229.4	268.9	320.2	353.5	360.9	338.2	289.9	236.4	254.3	235.5	117.0	77.20	92.48	164.0	445.4	 2492	 4561	342.4	10.91	2.632	2.285	1.817	1.307	1.038	0.757	0.720	0.576	0.676	0.506	0.513	0.490	0.488	0.470	0.418	0.426	0.429	0.642	0.962	1.068	1.335	1.366	1.406	1.107	1.266	0.992	0.926	0.783	0.762	0.951	1.008	1.081	1.057	1.061	1.232	1.277	1.402	1.571	1.564	1.825	1.712	1.777	1.772	1.843	1.893	1.799	1.571	1.428	1.308	1.401
345.0	236.5	362.0	377.7	307.2	216.2	196.3	197.8	212.9	235.7	276.2	319.6	356.4	365.1	349.2	302.9	239.2	212.3	257.1	195.2	94.86	75.57	75.58	130.5	697.6	 3313	 2936	47.95	5.154	2.687	2.134	1.385	1.090	0.858	0.816	0.685	0.615	0.603	0.558	0.422	0.422	0.391	0.476	0.494	0.558	0.712	0.946	1.006	1.313	1.443	1.435	1.151	1.414	1.123	1.026	0.977	0.950	1.042	1.032	1.136	1.157	1.175	1.211	1.423	1.500	1.560	1.533	1.834	1.589	1.797	1.837	1.792	1.752	1.644	1.586	1.370	1.268	1.193
350.0	236.3	358.9	385.7	326.7	259.1	224.2	220.5	230.0	249.9	286.4	323.8	356.8	367.4	349.8	312.5	257.0	207.9	207.1	237.0	178.9	98.10	72.86	73.65	189.0	900.2	 2425	 3045	 1083	16.77	2.743	1.884	1.375	1.109	0.846	0.784	0.675	0.633	0.624	0.452	0.443	0.495	0.455	0.523	0.574	0.702	0.867	1.066	1.252	1.461	1.308	1.083	1.535	1.238	1.137	1.155	1.056	1.155	1.084	1.117	1.246	1.269	1.383	1.515	1.564	1.592	1.632	1.688	1.691	1.839	1.890	1.790	1.854	1.755	1.587	1.424	1.278	1.324
355.0	235.8	351.6	376.1	336.4	285.0	265.7	250.7	263.4	265.5	300.1	332.4	355.3	363.8	353.1	321.4	271.0	227.3	198.8	201.6	236.6	174.9	101.6	80.18	88.82	234.0	578.8	 1543	 4022	 1591	21.39	3.060	1.748	1.256	1.108	0.785	0.711	0.675	0.595	0.475	0.565	0.474	0.500	0.590	0.638	0.643	0.876	1.032	1.252	1.387	1.345	1.222	1.474	1.542	1.302	1.311	1.219	1.147	1.159	1.274	1.371	1.385	1.441	1.508	1.449	1.557	1.698	1.683	1.766	1.764	1.784	1.784	1.835	1.977	1.716	1.566	1.484	1.520
360.0	224.4	346.8	370.6	357.3	305.8	297.4	277.3	277.6	277.6	303.7	338.3	360.6	368.8	351.3	333.5	286.6	241.8	216.3	199.8	215.4	240.7	145.8	95.41	80.61	96.03	159.2	402.8	 2292	 4257	331.9	10.43	2.369	1.492	1.213	0.977	0.888	0.737	0.617	0.538	0.485	0.528	0.480	0.607	0.593	0.720	0.859	0.979	1.232	1.401	1.387	1.291	1.539	1.399	1.453	1.406	1.357	1.518	1.209	1.361	1.400	1.458	1.457	1.593	1.606	1.683	1.702	1.811	1.776	1.849	1.906	1.833	1.868	2.021	1.721	1.666	1.586	1.432
365.0	413.5	327.1	372.4	361.0	327.0	306.5	295.5	298.0	294.3	309.0	330.6	359.9	367.6	353.5	337.0	296.6	254.4	243.9	210.3	201.8	240.4	216.0	122.6	91.17	76.38	74.51	118.3	631.4	 3117	 2770	43.78	4.122	2.012	1.468	1.170	0.797	0.732	0.723	0.504	0.482	0.538	0.581	0.640	0.573	0.797	0.890	1.089	1.153	1.320	1.427	1.186	1.507	1.504	1.429	1.376	1.495	1.513	1.291	1.555	1.521	1.471	1.516	1.522	1.706	1.590	1.662	1.753	1.827	1.777	1.865	1.763	1.981	2.038	1.734	1.724	1.686	1.608
370.0	268.4	314.9	370.5	364.5	349.5	327.6	317.6	312.4	306.6	322.4	337.7	360.2	368.6	356.1	341.1	306.2	271.1	265.3	231.9	215.9	215.8	235.5	199.6	125.8	91.01	71.77	65.58	169.9	850.0	 2382	 2793	939.5	17.15	2.124	1.506	1.067	0.796	0.809	0.666	0.586	0.589	0.660	0.631	0.639	0.715	0.880	1.019	1.287	1.331	1.341	1.175	1.513	1.505	1.472	1.569	1.494	1.568	1.603	1.562	1.471	1.621	1.565	1.662	1.723	1.705	1.657	1.732	1.695	1.687	1.834	1.750	1.908	1.975	1.836	1.699	1.798	1.732
375.0	226.9	316.2	377.3	366.9	366.9	352.1	336.3	339.3	326.7	343.5	352.4	363.4	373.1	358.6	345.9	314.0	289.3	278.2	258.4	239.5	216.6	214.6	230.4	192.5	122.0	88.89	72.58	80.43	217.4	566.9	 1498	 3473	401.1	18.01	1.972	1.470	0.990	0.838	0.755	0.692	0.511	0.622	0.613	0.612	0.706	0.938	1.000	1.276	1.246	1.298	1.189	1.557	1.610	1.489	1.636	1.551	1.762	1.663	1.681	1.526	1.553	1.728	1.695	1.673	1.857	1.924	1.766	1.738	1.723	1.729	1.913	1.815	1.862	1.920	1.917	1.815	1.859
380.0	216.8	310.2	359.4	385.6	378.5	367.9	355.4	346.8	339.4	348.8	357.3	368.7	375.1	359.1	341.9	318.8	297.7	292.8	270.1	253.3	224.9	218.7	216.2	226.7	167.4	106.9	83.17	71.60	84.83	154.4	393.4	 2078	 3089	302.3	6.399	1.724	1.210	1.030	0.711	0.710	0.603	0.649	0.656	0.658	0.831	0.918	1.094	1.269	1.227	1.282	1.227	1.700	1.655	1.761	1.661	1.479	1.762	1.726	1.780	1.704	1.620	1.663	1.695	1.779	1.732	1.840	1.749	1.950	1.809	1.715	1.948	1.762	1.940	1.983	1.899	1.895	1.856
385.0	211.4	312.8	368.6	379.8	385.6	372.8	364.7	350.4	352.2	351.9	360.5	371.9	379.5	364.1	346.2	322.2	306.1	303.6	281.3	265.0	234.4	226.7	211.9	215.0	216.1	134.3	98.64	80.82	63.13	68.58	112.9	590.8	 2838	 2478	40.04	2.882	1.564	1.323	0.933	0.743	0.690	0.677	0.652	0.736	0.817	0.898	1.005	1.163	1.227	1.220	1.199	1.512	1.642	1.828	1.650	1.728	1.872	1.723	1.656	1.788	1.682	1.678	1.684	1.763	1.780	1.866	1.805	1.937	1.978	1.941	2.005	1.815	1.886	1.970	1.894	2.016	2.029
390.0	220.4	302.2	360.0	381.5	387.1	391.6	379.9	370.6	362.9	360.5	374.9	372.9	376.4	363.0	344.1	325.1	316.1	309.1	296.3	277.3	248.5	242.8	220.6	200.3	218.2	187.7	130.1	96.21	70.90	58.90	58.00	156.9	787.8	 1948	 2171	694.6	12.31	1.780	1.292	0.904	0.740	0.754	0.686	0.812	0.820	1.023	0.980	1.173	1.324	1.170	1.316	1.571	1.721	1.818	1.740	1.773	1.835	1.831	1.750	1.790	1.693	1.797	1.707	1.740	1.717	1.739	1.794	1.809	1.958	1.944	1.949	1.847	1.907	1.957	1.939	1.926	1.962
395.0	218.0	296.0	362.9	384.1	397.3	400.1	398.1	380.9	366.2	369.8	384.2	375.8	372.6	358.6	341.3	326.8	324.1	312.8	301.3	284.6	259.3	252.3	234.0	204.2	200.1	196.6	180.5	119.4	86.37	68.33	55.93	67.52	197.2	460.2	 1240	 2719	292.3	13.08	1.768	1.161	0.916	0.909	0.808	0.845	0.917	1.049	0.922	1.212	1.379	1.126	1.390	1.506	1.770	1.797	1.725	1.802	1.944	1.838	1.919	1.951	1.764	1.756	1.713	1.804	1.672	1.832	1.744	1.987	1.896	1.890	1.725	1.798	1.784	1.919	1.930	2.002	1.893
400.0	218.5	296.2	363.1	395.6	399.5	394.8	476.1	384.8	370.8	377.2	386.5	378.0	374.0	360.7	335.7	326.0	322.6	311.4	305.4	289.4	265.4	259.1	244.0	212.4	204.3	185.4	198.8	156.2	102.0	78.83	63.36	58.38	71.25	119.1	323.4	 1721	 2368	235.5	5.129	1.373	1.100	0.958	0.882	0.831	1.004	0.980	0.980	1.217	1.370	1.223	1.277	1.591	1.786	1.829	1.796	1.873	1.847	1.977	1.946	1.905	1.916	1.716	1.573	1.847	1.703	1.752	1.677	1.792	1.907	1.832	1.702	1.727	1.873	1.890	1.915	2.102	1.917
405.0	216.6	300.3	367.2	394.2	403.7	400.9	419.0	391.3	379.2	380.1	384.9	376.3	371.0	362.6	339.2	320.9	320.8	310.9	300.7	291.1	268.4	262.7	246.5	216.9	207.7	182.2	187.9	187.3	124.7	91.11	72.70	62.22	48.60	46.54	86.37	494.9	 2123	 1917	33.87	2.140	1.427	1.018	0.977	0.958	1.040	0.922	0.977	1.276	1.301	1.313	1.330	1.576	1.738	1.771	1.746	1.824	1.901	1.784	1.754	1.980	1.903	1.881	1.678	1.760	1.834	1.800	1.719	1.716	1.805	2.046	1.766	1.770	1.918	1.917	1.901	1.849	1.964
410.0	206.8	290.0	358.0	392.7	394.0	402.5	407.1	392.5	383.3	383.3	385.3	375.5	367.7	360.0	331.1	315.4	313.1	304.4	294.1	285.8	267.7	264.3	248.6	224.7	210.3	187.1	177.3	181.4	163.4	117.5	85.12	72.28	51.03	36.03	36.96	123.1	617.4	 1619	 1814	523.4	9.920	1.472	1.139	1.000	0.992	0.906	1.043	1.205	1.295	1.248	1.365	1.571	1.715	1.749	1.713	1.807	1.907	1.839	1.808	1.989	1.850	1.911	1.755	1.729	1.732	1.889	1.749	1.703	1.845	1.915	1.745	1.865	1.926	1.854	1.834	1.800	1.882
415.0	203.4	281.8	340.3	369.3	385.9	400.8	401.0	396.8	387.7	387.5	388.7	372.8	357.1	347.1	322.8	300.5	300.9	295.6	282.6	279.8	261.2	261.0	248.1	227.2	212.1	190.8	177.4	167.1	168.8	155.7	105.6	81.45	60.08	40.29	31.71	43.54	148.3	381.2	 1100	 2203	261.8	10.59	1.507	1.296	1.091	1.049	1.006	1.258	1.168	1.224	1.322	1.636	1.737	1.826	1.776	1.778	1.952	1.923	1.661	1.947	1.972	1.987	1.847	1.792	1.655	1.734	1.751	1.710	1.942	1.717	1.702	1.759	1.804	1.825	1.803	1.901	1.817
420.0	204.2	283.0	343.0	367.7	385.3	396.7	402.2	397.1	387.7	386.7	387.6	373.4	350.0	338.6	311.1	296.7	289.7	288.0	273.2	273.1	257.0	256.4	245.4	226.4	213.1	192.2	180.1	165.7	158.6	165.8	132.1	94.19	66.42	46.83	34.65	29.73	46.80	94.62	286.8	 1520	 1959	197.1	3.944	1.468	1.156	1.131	1.173	1.252	1.170	1.246	1.217	1.551	1.839	1.747	1.816	1.762	1.912	1.964	1.726	1.876	1.982	1.896	1.699	1.785	1.660	1.736	1.875	1.601	1.899	1.749	1.766	1.708	1.756	1.836	1.699	1.857	1.773
425.0	189.8	270.1	325.5	357.2	370.4	382.5	395.8	399.9	392.8	388.8	381.0	365.4	353.8	331.9	304.0	291.3	282.2	279.9	268.4	267.1	252.1	248.3	241.5	223.4	211.1	196.9	184.0	168.4	157.7	155.4	150.5	112.1	74.51	53.71	39.40	29.39	27.07	32.59	72.82	441.1	 1767	 1618	29.92	1.974	1.374	1.262	1.213	1.166	1.273	1.377	1.209	1.632	1.690	1.822	1.770	1.785	1.853	1.817	1.670	1.765	2.012	1.815	1.908	1.719	1.667	1.731	1.602	1.584	1.714	1.775	1.661	1.712	1.624	1.709	1.577	1.764	1.792
430.0	184.7	274.9	325.2	348.9	364.9	375.2	389.4	396.5	395.2	391.7	381.8	364.2	349.6	324.7	299.4	284.3	273.1	268.3	257.9	255.8	244.9	242.8	233.1	222.4	208.6	197.6	185.4	172.6	161.5	147.9	147.1	139.0	94.52	65.25	46.66	34.61	26.67	22.07	27.39	107.1	507.5	 1370	 1459	404.6	7.739	1.488	1.346	1.354	1.307	1.308	1.238	1.596	1.654	1.776	1.682	1.741	1.824	1.986	1.694	1.815	1.851	1.786	1.749	1.753	1.700	1.795	1.753	1.622	1.713	1.655	1.772	1.657	1.680	1.617	1.633	1.649	1.720
435.0	222.1	261.3	308.2	335.7	361.0	368.5	387.2	394.9	397.7	396.5	387.5	363.8	341.0	316.7	289.8	275.8	263.0	258.0	245.7	244.7	239.5	233.7	226.5	215.8	205.7	198.5	187.8	174.6	166.0	150.8	147.3	138.6	120.7	82.90	54.01	40.33	32.12	23.21	20.61	34.33	120.9	330.9	 1011	 1844	197.7	5.405	1.553	1.403	1.290	1.192	1.266	1.531	1.586	1.628	1.667	1.665	1.721	2.033	1.724	1.767	1.860	1.767	1.786	1.701	1.691	1.692	1.801	1.649	1.657	1.549	1.606	1.632	1.603	1.512	1.490	1.627	1.675
440.0	320.5	257.2	302.9	336.4	355.3	367.6	379.8	397.2	393.4	397.6	384.4	360.4	333.8	308.0	285.0	267.3	253.0	247.3	236.3	236.3	234.3	225.6	219.6	210.9	202.2	195.8	184.0	177.8	167.5	154.6	149.7	130.6	127.2	100.5	61.25	46.86	38.04	25.32	21.23	20.19	36.26	80.66	276.4	 1384	 1642	32.20	2.808	1.620	1.338	1.303	1.397	1.581	1.562	1.506	1.581	1.639	1.796	1.937	1.802	1.885	1.958	1.787	1.891	1.790	1.783	1.691	1.718	1.603	1.663	1.575	1.618	1.639	1.585	1.484	1.386	1.592	1.544
445.0	482.0	270.4	299.6	329.8	344.4	365.3	379.8	391.1	394.4	395.2	380.5	357.6	329.1	303.1	274.8	256.9	245.2	240.0	228.9	226.7	225.9	219.1	209.4	205.7	199.1	193.0	181.7	173.8	168.4	154.6	149.8	127.0	119.4	111.4	77.05	52.49	42.16	29.10	23.17	18.96	18.47	25.65	68.39	451.9	 1704	 1175	22.34	2.049	1.480	1.357	1.414	1.611	1.652	1.622	1.534	1.687	1.886	1.887	1.762	1.830	1.842	1.805	1.849	1.889	1.752	1.633	1.655	1.749	1.649	1.513	1.526	1.737	1.584	1.533	1.437	1.566	1.571
450.0	609.0	510.7	287.4	310.2	324.6	348.6	363.0	376.6	381.1	381.5	370.6	348.7	318.0	285.6	263.2	243.9	228.2	223.6	213.4	210.8	211.5	204.9	198.9	195.5	188.6	184.4	178.3	170.6	164.4	156.8	147.8	126.7	110.0	105.1	94.35	65.35	45.94	32.74	26.25	20.99	16.73	15.15	22.60	107.6	503.0	 1234	 1298	107.6	5.707	1.602	1.456	1.539	1.526	1.564	1.585	1.747	1.778	1.780	1.716	1.891	1.755	1.710	1.907	1.818	1.805	1.721	1.635	1.616	1.597	1.520	1.453	1.533	1.505	1.389	1.488	1.430	1.474
455.0	401.5	947.2	403.9	284.8	307.4	328.3	343.4	359.9	364.8	363.3	355.0	329.5	296.9	267.1	247.0	228.1	212.5	206.1	197.3	195.6	194.8	192.2	184.3	184.6	177.6	175.1	168.7	172.0	161.2	161.2	142.8	124.3	106.9	95.01	90.42	79.90	54.07	35.15	29.35	23.45	18.30	14.37	13.79	30.56	117.4	299.1	931.9	 1502	163.9	5.471	1.512	1.551	1.579	1.469	1.594	1.670	1.604	1.760	1.717	1.720	1.538	1.646	1.799	1.646	1.630	1.615	1.702	1.433	1.425	1.384	1.386	1.453	1.250	1.462	1.322	1.175	1.298
460.0	234.5	 1014	677.8	278.1	292.2	308.5	331.1	346.6	346.4	348.8	344.2	319.3	285.1	255.3	229.4	217.5	202.3	195.3	185.7	183.8	183.4	178.3	174.7	180.6	168.2	170.5	160.1	165.8	160.4	156.8	138.8	122.8	105.6	91.65	81.10	79.77	63.36	38.87	31.28	25.56	20.04	15.63	13.10	14.25	32.20	71.50	247.1	 1187	 1238	21.51	2.601	1.598	1.577	1.674	1.476	1.514	1.707	1.691	1.662	1.707	1.595	1.653	1.723	1.552	1.541	1.399	1.592	1.357	1.390	1.442	1.367	1.352	1.322	1.310	1.186	1.218	1.220
465.0	158.3	779.2	 1104	324.7	275.4	297.0	314.0	327.8	334.5	330.6	325.5	304.4	272.6	243.4	218.6	203.7	187.2	183.1	174.9	170.1	171.2	167.4	162.7	171.4	159.1	165.7	157.7	158.8	156.6	150.1	135.0	118.7	102.6	88.73	75.04	73.11	68.50	46.35	33.78	26.27	20.92	16.98	13.36	11.53	13.56	21.01	59.90	376.2	 1302	923.5	18.47	2.000	1.618	1.629	1.543	1.451	1.622	1.742	1.567	1.572	1.429	1.548	1.721	1.586	1.641	1.409	1.518	1.467	1.376	1.414	1.238	1.242	1.256	1.208	1.173	1.132	1.149
470.0	132.1	370.1	 1176	673.9	267.0	275.4	291.0	300.8	309.7	309.0	302.7	278.0	253.3	223.8	202.5	185.4	172.3	165.5	160.9	157.5	152.2	150.7	146.5	153.0	143.7	150.5	145.7	143.8	142.4	137.2	126.6	112.3	96.81	84.13	71.70	63.51	61.52	56.21	38.97	28.12	22.42	18.02	14.32	12.34	10.67	10.50	18.23	88.52	402.5	950.0	921.8	102.3	5.910	1.668	1.556	1.448	1.523	1.541	1.512	1.456	1.369	1.475	1.496	1.509	1.431	1.409	1.344	1.309	1.248	1.283	1.139	1.178	1.221	1.116	1.142	1.032	1.074
475.0	120.3	200.4	647.4	 1272	431.4	249.4	262.9	276.6	281.6	287.3	279.3	261.4	232.1	205.0	185.0	167.8	155.4	149.7	148.0	141.8	138.4	135.6	131.0	135.6	129.0	132.3	132.6	129.7	128.9	125.3	116.7	104.8	91.35	78.98	67.59	58.97	53.03	52.13	45.83	32.80	23.59	19.06	15.66	13.41	10.97	9.203	9.056	23.98	93.15	225.1	564.3	 1026	157.3	5.196	1.679	1.461	1.514	1.506	1.416	1.374	1.385	1.412	1.470	1.509	1.235	1.322	1.279	1.336	1.148	1.037	1.030	1.132	1.084	0.972	1.037	0.908	0.966
480.0	119.4	159.4	316.6	 1245	675.1	234.4	248.0	258.5	262.7	269.6	265.8	241.6	217.1	195.0	173.3	154.6	143.2	137.5	137.9	130.1	128.4	125.4	121.5	125.3	124.4	123.2	120.8	120.1	120.0	117.8	110.8	98.51	85.82	76.02	66.07	56.84	49.51	45.17	46.03	36.89	25.48	20.05	16.45	13.72	11.44	9.697	7.545	9.716	24.56	53.70	148.9	729.0	911.2	25.23	2.468	1.542	1.356	1.460	1.361	1.281	1.268	1.311	1.505	1.467	1.273	1.202	1.206	1.248	1.050	1.015	1.037	1.156	1.044	0.864	0.939	0.859	0.929
485.0	127.0	150.0	198.1	839.4	 1225	291.0	230.4	240.3	248.8	253.6	244.8	229.3	205.7	182.5	163.5	146.1	135.5	130.0	127.0	120.9	118.9	116.5	113.5	117.5	119.9	115.4	113.3	112.6	112.4	110.3	103.0	93.73	82.87	72.22	63.93	55.03	47.75	41.27	41.46	40.60	29.19	20.97	16.53	14.28	12.08	10.55	8.265	7.136	9.405	15.44	36.24	214.4	945.5	755.5	20.19	1.922	1.423	1.356	1.353	1.084	1.316	1.126	1.206	1.312	1.250	1.241	1.219	1.134	0.987	0.922	0.934	0.957	1.076	0.855	1.002	0.947	0.928
490.0	110.0	149.0	159.5	374.8	 1197	693.0	238.9	221.7	228.6	231.3	227.8	211.7	185.4	169.2	148.7	133.1	123.9	118.6	114.0	108.4	106.8	104.1	102.4	105.8	107.8	104.1	102.7	103.0	101.8	100.4	95.10	86.29	76.65	67.64	59.74	51.97	44.60	39.22	35.81	35.92	33.29	24.56	17.83	14.90	12.67	10.93	8.691	7.194	6.555	7.300	11.25	50.59	273.3	685.1	763.9	104.7	6.646	1.472	1.316	1.179	1.221	1.178	1.244	1.174	1.148	1.121	1.192	1.081	0.974	0.914	0.846	0.934	0.930	0.825	0.813	0.852	0.779
495.0	78.58	148.4	141.3	201.8	628.6	 1172	397.0	198.9	212.2	209.6	208.4	194.9	168.8	152.7	135.3	120.8	110.1	105.0	100.5	96.69	96.15	92.23	91.56	93.32	93.13	93.02	91.66	92.46	90.03	89.22	85.82	78.13	70.79	61.91	54.88	48.28	42.59	36.99	32.10	30.18	31.28	28.68	20.04	15.25	12.57	10.74	8.776	7.707	6.231	5.824	5.842	14.05	63.15	161.6	505.5	998.1	171.6	4.779	1.412	1.108	1.173	1.178	1.191	1.044	1.110	0.987	1.028	0.950	0.944	0.819	0.812	0.823	0.704	0.791	0.832	0.675	0.656
500.0	70.75	136.1	143.4	154.1	300.4	 1102	 1227	193.5	197.7	192.4	192.6	178.1	157.5	137.7	121.7	109.6	102.4	96.95	92.26	87.05	88.12	83.81	83.25	85.39	84.53	83.95	82.51	83.50	82.38	81.44	78.44	72.18	64.86	57.06	50.98	45.69	39.91	35.69	30.47	27.90	25.95	28.15	23.06	16.15	12.36	10.97	8.763	7.778	6.041	5.676	4.893	5.960	16.36	38.37	132.7	676.6	920.7	26.93	2.525	1.220	1.004	1.104	1.202	1.135	1.019	0.926	0.955	0.905	0.772	0.724	0.828	0.835	0.648	0.720	0.712	0.611	0.725
505.0	65.51	115.5	142.8	136.9	176.4	696.7	 1525	268.0	176.3	180.5	177.5	161.9	147.5	126.2	113.6	102.4	92.24	85.71	83.86	78.79	78.99	75.16	74.69	77.35	76.13	76.82	75.49	75.85	75.48	75.59	71.45	65.90	58.68	52.95	47.55	43.46	37.80	32.66	29.00	25.94	22.61	23.73	24.46	17.85	13.03	11.10	8.689	7.821	6.250	5.582	4.691	4.264	5.844	10.92	31.80	190.5	825.0	734.7	23.99	1.429	1.146	1.014	1.045	0.989	0.943	0.992	0.907	0.813	0.750	0.699	0.696	0.685	0.621	0.745	0.611	0.591	0.590
510.0	53.43	90.67	126.9	133.1	130.0	293.0	 1216	719.3	178.4	159.6	156.7	141.5	127.6	113.7	100.1	89.90	81.25	77.34	74.17	70.35	68.39	66.40	67.41	66.81	67.50	66.70	65.14	65.78	66.46	65.84	62.82	57.79	52.26	47.49	42.47	38.43	34.11	29.99	26.89	23.60	20.68	18.96	20.34	19.87	15.05	11.11	8.707	7.524	6.769	5.622	4.747	3.798	3.769	4.460	8.989	44.41	227.7	578.8	653.7	119.3	7.668	1.141	1.052	0.930	0.859	0.786	0.727	0.714	0.701	0.645	0.556	0.634	0.620	0.572	0.512	0.547	0.511
515.0	52.50	73.06	104.2	132.4	115.3	149.7	525.2	 1077	317.8	136.9	136.2	123.3	112.1	100.3	87.02	79.16	71.96	66.88	64.70	61.85	59.81	57.85	59.18	57.42	58.11	56.88	56.80	56.20	57.24	56.20	54.60	50.97	45.23	41.39	37.36	33.88	30.82	27.10	23.68	21.21	18.86	16.13	16.34	17.70	17.11	12.02	8.447	7.471	6.773	5.520	4.951	3.831	3.300	3.176	3.842	11.68	52.32	133.6	353.5	709.0	192.1	5.102	1.032	0.827	0.780	0.848	0.660	0.678	0.633	0.534	0.475	0.620	0.538	0.436	0.430	0.496	0.461
520.0	49.33	65.44	85.74	125.3	105.4	109.9	219.9	902.5	748.2	135.6	120.4	112.5	104.0	88.56	78.06	70.73	64.25	59.33	58.23	56.06	53.34	52.27	52.96	51.22	51.35	50.43	51.05	49.33	50.91	49.73	49.53	45.38	41.55	37.05	34.44	30.85	28.00	24.72	22.16	19.86	17.24	15.05	14.48	14.20	16.54	13.87	8.835	7.534	6.623	5.416	4.699	3.985	3.160	2.801	2.742	4.212	13.26	31.27	89.03	444.2	696.5	27.91	2.000	0.839	0.812	0.749	0.651	0.701	0.606	0.585	0.495	0.580	0.489	0.430	0.391	0.477	0.415
525.0	47.63	58.08	74.67	109.8	112.6	95.46	126.9	519.1	 1090	235.8	109.7	102.8	93.70	81.27	70.52	64.38	58.81	53.90	52.21	50.71	47.83	46.82	47.41	46.96	44.73	45.61	45.51	45.84	46.80	45.01	44.92	40.72	37.60	34.07	31.36	27.83	25.09	23.08	20.28	18.32	16.01	14.19	13.23	12.43	14.46	14.70	9.630	7.934	6.303	5.286	4.408	3.901	3.396	2.691	2.328	2.576	4.463	8.570	21.36	121.4	554.9	537.3	23.68	1.131	0.801	0.697	0.614	0.593	0.545	0.505	0.482	0.463	0.456	0.406	0.402	0.402	0.376
530.0	38.72	48.50	61.01	82.39	108.6	91.44	93.14	209.6	868.3	752.2	131.9	90.05	81.52	71.93	63.02	57.00	51.82	48.17	45.82	43.41	42.36	40.94	40.85	40.94	39.06	39.07	39.57	39.25	39.99	39.77	38.30	35.78	32.33	29.98	27.52	24.75	22.12	19.99	17.87	16.55	14.66	12.53	11.60	10.87	11.19	12.40	10.99	8.728	6.019	4.936	4.350	3.744	3.381	2.784	2.401	2.195	2.574	3.190	5.979	28.39	148.3	397.8	360.2	105.8	5.711	0.753	0.596	0.552	0.482	0.504	0.435	0.398	0.395	0.378	0.328	0.366	0.323
535.0	33.78	45.92	51.32	61.34	85.33	95.89	77.64	110.0	356.6	 1002	423.6	76.55	70.02	61.97	54.73	49.08	43.91	41.18	39.44	37.78	35.08	35.01	34.77	34.98	33.85	33.72	33.33	33.83	34.53	34.38	32.75	29.94	28.03	25.94	23.88	21.50	19.49	17.74	15.83	14.20	12.84	11.33	10.40	9.599	8.951	9.597	9.792	9.762	6.560	4.582	4.127	3.557	3.147	2.522	2.486	2.273	1.901	1.971	2.629	7.516	33.98	91.52	206.9	523.2	160.8	4.725	0.694	0.566	0.480	0.480	0.390	0.390	0.319	0.300	0.356	0.323	0.334
540.0	30.34	39.12	46.61	48.75	70.72	88.98	71.26	81.69	146.3	734.0	849.0	88.09	64.46	54.65	49.23	43.89	40.32	37.99	35.12	33.36	31.67	30.15	30.80	30.60	29.92	29.63	29.71	29.82	29.98	30.59	29.24	26.42	24.92	23.46	21.03	19.46	17.52	16.26	14.39	13.01	11.98	10.22	9.448	8.886	8.437	7.810	8.294	9.661	7.381	4.632	3.891	3.419	2.987	2.424	2.316	2.235	1.912	1.700	1.736	2.686	8.465	21.39	51.24	304.6	501.5	27.95	1.538	0.537	0.435	0.381	0.417	0.371	0.327	0.298	0.266	0.295	0.332
545.0	25.28	31.42	44.38	45.05	57.03	81.95	74.08	67.87	83.47	395.8	 1042	199.0	57.82	51.04	44.65	39.00	35.20	33.43	31.33	30.23	29.10	26.77	27.66	27.72	27.04	27.00	27.06	26.83	27.09	27.39	25.84	23.89	22.54	20.91	19.37	17.54	16.36	14.65	13.12	12.11	10.91	9.415	8.847	8.118	7.801	7.107	6.938	8.459	7.852	5.240	3.809	3.172	2.834	2.491	2.193	2.097	2.012	1.621	1.532	1.571	2.968	5.627	12.33	82.27	387.1	398.9	22.77	0.828	0.449	0.396	0.325	0.306	0.251	0.264	0.271	0.211	0.262
550.0	21.45	29.13	37.00	41.74	46.71	62.13	74.90	62.05	62.62	150.9	679.3	666.3	87.05	43.95	38.15	33.73	30.85	29.02	27.08	26.45	25.11	23.87	24.07	23.99	23.27	23.35	23.17	22.87	22.95	22.90	22.18	21.23	19.53	17.78	16.36	15.03	13.58	12.94	11.45	10.42	9.294	7.988	7.585	7.111	6.858	6.334	5.923	6.157	6.919	5.796	4.368	3.144	2.630	2.161	2.156	1.861	1.756	1.718	1.515	1.277	1.512	2.075	3.570	19.15	107.1	280.1	276.7	96.32	4.904	0.397	0.322	0.278	0.254	0.221	0.272	0.165	0.200
555.0	21.52	27.34	31.44	33.88	37.86	46.49	67.77	62.94	51.98	72.85	236.9	748.9	403.8	37.93	32.64	28.62	26.16	24.31	23.24	21.89	20.52	20.83	19.05	19.43	19.20	19.76	18.70	19.17	19.19	18.78	18.64	17.66	16.13	14.50	13.86	12.94	11.71	10.89	9.689	8.909	7.846	6.992	6.541	6.129	5.828	5.362	4.833	4.517	4.984	5.418	4.871	3.218	2.497	1.908	1.920	1.700	1.494	1.586	1.530	1.149	1.109	1.203	1.571	4.878	24.45	64.02	143.3	359.6	135.6	3.076	0.320	0.276	0.235	0.183	0.252	0.175	0.183
560.0	16.10	27.18	26.94	29.82	33.44	36.70	55.01	63.42	44.48	49.71	90.42	494.4	721.8	61.97	29.23	23.62	22.96	20.30	19.88	18.83	17.88	17.45	16.99	16.17	16.81	16.38	16.40	16.35	16.41	16.78	16.38	15.13	13.76	12.75	12.04	11.00	10.03	9.322	8.275	7.514	6.729	5.969	5.591	5.399	4.867	4.670	4.356	3.974	3.782	4.192	4.687	3.628	2.210	2.021	1.902	1.517	1.479	1.424	1.422	1.250	0.995	0.884	1.012	1.709	5.985	14.81	35.27	199.9	341.9	27.85	1.085	0.288	0.251	0.228	0.192	0.190	0.142
565.0	14.68	24.66	25.35	27.59	27.90	29.83	39.84	60.15	44.90	40.13	50.58	232.9	779.2	138.8	24.37	20.40	20.13	16.84	17.38	16.47	14.70	14.75	14.87	14.46	14.72	14.04	13.69	14.00	13.80	13.90	13.52	12.94	11.82	10.79	10.16	9.460	8.470	8.249	7.263	6.376	5.810	5.357	4.998	4.608	4.239	4.248	3.724	3.541	3.181	3.197	3.864	3.829	2.426	1.725	1.656	1.399	1.344	1.303	1.305	1.179	1.057	0.817	0.832	0.936	1.878	3.790	8.358	52.13	238.6	228.7	20.89	0.470	0.295	0.182	0.166	0.162	0.160
570.0	16.32	21.64	21.08	21.56	22.30	22.32	27.95	45.51	47.61	34.27	36.30	81.35	427.3	555.5	61.11	17.06	15.41	14.01	13.30	13.04	11.94	11.93	11.69	11.42	11.63	11.01	10.83	10.93	11.10	10.97	10.78	10.15	9.378	8.411	7.916	7.298	6.803	6.321	5.711	5.280	4.866	4.204	3.994	3.695	3.649	3.316	2.979	2.728	2.453	2.351	2.523	3.109	2.742	1.902	1.406	1.154	1.101	1.122	1.026	0.911	0.950	0.757	0.686	0.662	0.826	1.208	2.272	12.06	61.70	161.1	194.9	61.24	2.564	0.203	0.169	0.130	0.158
575.0	15.44	18.90	19.00	16.20	16.21	18.11	20.10	28.34	44.83	34.34	27.80	37.79	136.5	510.5	353.4	15.29	11.98	11.36	10.04	10.24	9.775	9.472	9.061	8.573	8.701	8.431	8.407	8.156	8.407	8.675	8.072	7.781	7.020	6.694	6.080	5.677	5.283	4.790	4.383	4.017	3.876	3.327	3.117	2.908	2.667	2.485	2.365	2.004	1.894	1.855	1.644	1.992	2.403	2.206	1.356	0.965	0.922	0.863	0.798	0.728	0.687	0.748	0.590	0.523	0.555	0.646	0.843	3.025	14.03	36.73	89.26	186.5	28.27	1.439	0.161	0.094	0.119
580.0	12.12	18.65	15.77	14.13	14.91	16.89	16.46	21.80	37.29	37.88	24.55	25.11	46.51	288.2	583.2	44.98	9.726	9.539	8.190	8.299	7.963	7.303	7.773	7.124	6.818	6.907	6.941	6.726	6.752	7.013	6.650	6.274	5.669	5.596	4.966	4.685	4.303	4.020	3.323	3.345	3.195	2.808	2.512	2.348	2.240	2.246	2.063	1.712	1.526	1.402	1.166	1.405	1.718	2.041	1.598	0.894	0.716	0.683	0.657	0.665	0.596	0.619	0.613	0.492	0.491	0.434	0.429	0.988	3.368	8.445	21.62	103.2	169.0	22.93	0.447	0.127	0.089
585.0	11.48	13.64	14.60	14.00	13.18	12.00	15.68	17.08	28.80	39.48	23.96	21.82	24.57	122.5	557.0	213.7	8.249	7.964	7.344	7.050	6.140	6.196	6.129	5.979	5.614	5.789	5.805	5.773	5.661	5.839	5.521	5.353	4.794	4.383	4.099	4.269	3.682	3.171	2.783	2.816	2.765	2.512	2.211	2.000	1.749	1.920	1.746	1.499	1.376	1.153	1.065	1.048	1.290	1.704	1.544	1.061	0.703	0.629	0.598	0.510	0.499	0.408	0.524	0.448	0.367	0.384	0.293	0.425	0.983	2.097	5.075	26.83	124.6	134.4	15.72	0.203	0.087
590.0	11.53	13.34	13.50	12.03	10.21	10.95	11.97	14.26	20.92	34.46	29.14	20.05	18.54	40.16	269.3	459.1	39.95	6.447	5.870	5.599	5.240	5.077	4.948	4.942	4.628	4.757	4.536	4.482	4.449	4.327	4.355	4.164	3.828	3.500	3.294	3.185	3.002	2.734	2.354	2.284	2.050	2.103	1.695	1.698	1.533	1.454	1.324	1.279	1.117	0.936	0.873	0.868	0.915	1.110	1.406	1.213	0.840	0.516	0.521	0.481	0.470	0.337	0.425	0.468	0.438	0.374	0.265	0.318	0.440	0.681	1.325	6.189	32.40	87.75	102.1	18.42	1.350
595.0	12.10	12.85	11.48	10.04	9.566	9.808	9.467	12.67	14.64	24.16	34.57	19.44	15.96	19.11	78.32	362.2	252.2	6.882	4.793	4.327	4.005	3.979	3.766	3.896	3.412	3.644	3.378	3.460	3.499	3.592	3.372	3.143	2.790	2.764	2.452	2.442	2.334	2.008	1.839	1.850	1.598	1.648	1.324	1.424	1.175	1.168	1.194	0.965	0.840	0.737	0.769	0.718	0.724	0.673	0.952	1.044	1.006	0.603	0.446	0.366	0.394	0.345	0.390	0.392	0.421	0.399	0.226	0.245	0.257	0.363	0.471	1.511	7.340	19.97	46.35	104.1	26.83
600.0	9.472	12.07	10.63	9.214	7.794	9.332	9.699	11.31	12.93	19.01	34.02	23.20	15.63	13.52	24.07	177.3	401.1	33.96	4.151	3.750	3.680	3.318	3.125	3.215	3.049	3.127	2.986	2.766	2.820	3.000	2.837	2.600	2.375	2.283	2.231	2.134	1.780	1.694	1.492	1.600	1.395	1.386	1.330	1.058	1.004	1.017	1.034	0.833	0.748	0.601	0.621	0.586	0.616	0.567	0.629	0.864	1.045	0.681	0.405	0.312	0.349	0.293	0.299	0.312	0.336	0.402	0.248	0.225	0.212	0.257	0.251	0.465	1.742	4.568	11.25	58.62	95.61
605.0	8.880	10.55	10.95	8.129	7.742	7.956	9.679	11.50	12.39	15.57	28.18	29.50	15.10	11.88	12.00	68.33	378.3	167.1	3.852	3.353	3.485	2.952	2.496	2.861	2.768	2.596	2.449	2.459	2.510	2.511	2.611	2.134	2.016	1.904	1.962	1.768	1.627	1.537	1.439	1.387	1.158	1.131	1.015	0.974	0.903	0.835	0.769	0.775	0.630	0.573	0.599	0.549	0.479	0.493	0.482	0.623	0.937	0.694	0.406	0.303	0.322	0.267	0.235	0.281	0.312	0.359	0.305	0.223	0.174	0.201	0.178	0.201	0.497	1.110	2.622	15.48	69.39
610.0	8.231	10.11	9.142	8.419	6.848	6.909	8.274	10.12	10.92	14.31	21.43	30.02	18.23	11.37	9.478	21.33	176.1	341.3	35.83	2.796	2.643	2.542	2.306	2.205	2.187	2.069	1.905	1.940	2.131	1.975	1.955	1.704	1.610	1.521	1.667	1.379	1.386	1.265	1.097	1.002	0.924	0.909	0.862	0.736	0.746	0.711	0.622	0.620	0.536	0.502	0.453	0.452	0.378	0.363	0.387	0.398	0.587	0.662	0.499	0.336	0.286	0.229	0.223	0.242	0.238	0.258	0.240	0.287	0.219	0.182	0.159	0.161	0.223	0.343	0.672	3.542	18.15
615.0	6.397	9.630	8.573	6.730	5.543	7.314	7.310	9.486	10.07	12.70	16.74	24.92	23.63	11.03	8.764	9.246	48.95	247.8	234.1	3.886	2.118	1.999	1.776	1.835	1.622	1.713	1.553	1.672	1.567	1.646	1.452	1.458	1.282	1.079	1.177	1.052	1.066	1.028	0.895	0.826	0.697	0.765	0.753	0.618	0.590	0.517	0.494	0.527	0.488	0.433	0.355	0.319	0.285	0.260	0.309	0.342	0.351	0.449	0.460	0.387	0.267	0.259	0.218	0.198	0.217	0.183	0.170	0.268	0.235	0.164	0.144	0.172	0.121	0.201	0.253	0.879	4.073
620.0	7.798	9.294	5.866	6.650	6.520	7.050	6.193	8.064	9.845	10.95	14.34	19.41	26.08	11.80	7.983	6.560	14.37	116.7	351.3	33.24	1.646	1.948	1.663	1.400	1.338	1.369	1.216	1.299	1.236	1.537	1.344	1.136	1.034	0.988	0.972	0.908	0.894	0.858	0.656	0.676	0.612	0.680	0.613	0.566	0.493	0.426	0.394	0.486	0.384	0.351	0.319	0.290	0.255	0.235	0.250	0.250	0.285	0.296	0.403	0.381	0.259	0.213	0.189	0.158	0.223	0.148	0.149	0.208	0.219	0.239	0.136	0.134	0.096	0.135	0.129	0.247	0.976
625.0	5.321	7.892	9.209	6.878	5.591	5.553	5.987	7.874	9.642	10.44	12.58	16.52	23.83	14.36	7.951	5.653	6.129	41.57	295.9	152.9	1.806	1.602	1.403	1.131	1.218	1.210	1.157	1.191	1.117	1.136	1.113	1.026	0.792	0.886	0.827	0.811	0.777	0.655	0.601	0.540	0.542	0.517	0.487	0.400	0.458	0.363	0.435	0.402	0.302	0.292	0.300	0.231	0.236	0.210	0.204	0.231	0.253	0.207	0.314	0.370	0.271	0.191	0.179	0.134	0.174	0.139	0.121	0.153	0.173	0.238	0.175	0.157	0.147	0.096	0.110	0.110	0.293
630.0	6.074	7.826	6.790	5.969	5.969	5.372	5.909	7.721	8.938	10.13	12.35	13.93	19.16	18.49	8.196	5.666	4.516	12.04	118.1	278.7	30.03	1.454	1.069	1.118	1.139	0.975	0.965	0.967	0.926	0.952	0.928	0.837	0.661	0.689	0.622	0.641	0.609	0.611	0.556	0.480	0.473	0.373	0.419	0.426	0.386	0.417	0.375	0.310	0.259	0.302	0.267	0.249	0.203	0.200	0.158	0.170	0.178	0.169	0.189	0.274	0.342	0.265	0.148	0.130	0.143	0.125	0.110	0.149	0.112	0.175	0.194	0.134	0.105	0.091	0.081	0.055	0.117
635.0	6.679	8.375	6.818	5.127	4.550	5.741	6.279	7.093	7.847	10.29	12.57	12.88	15.21	18.83	11.55	5.346	4.316	4.811	30.34	181.8	177.7	2.825	0.997	0.956	0.977	0.876	0.809	0.670	0.759	0.782	0.713	0.655	0.627	0.599	0.497	0.514	0.462	0.489	0.455	0.404	0.328	0.387	0.311	0.365	0.281	0.305	0.251	0.300	0.216	0.228	0.209	0.229	0.195	0.161	0.130	0.125	0.145	0.122	0.136	0.174	0.306	0.250	0.156	0.137	0.136	0.103	0.103	0.172	0.122	0.121	0.162	0.185	0.112	0.092	0.075	0.037	0.076
640.0	8.252	9.474	7.460	5.740	4.509	4.995	4.813	7.751	7.575	9.515	11.71	12.08	12.34	16.35	14.73	6.100	4.330	3.468	8.944	75.31	260.4	29.80	0.955	0.850	0.876	0.787	0.717	0.659	0.643	0.580	0.678	0.595	0.598	0.605	0.531	0.491	0.412	0.360	0.387	0.441	0.293	0.345	0.347	0.268	0.218	0.203	0.223	0.196	0.199	0.169	0.180	0.180	0.172	0.152	0.165	0.163	0.124	0.097	0.136	0.165	0.201	0.223	0.174	0.114	0.124	0.108	0.134	0.102	0.109	0.115	0.127	0.135	0.143	0.077	0.071	0.036	0.056
645.0	7.591	9.415	8.649	4.891	4.667	5.674	5.079	6.675	6.865	8.559	11.75	11.96	12.01	13.34	16.06	7.103	4.063	3.368	3.898	23.80	208.5	130.3	1.095	0.812	0.696	0.691	0.688	0.578	0.533	0.544	0.546	0.509	0.440	0.451	0.375	0.474	0.366	0.340	0.334	0.358	0.285	0.281	0.276	0.235	0.187	0.210	0.249	0.246	0.215	0.192	0.164	0.169	0.150	0.127	0.139	0.131	0.113	0.108	0.094	0.106	0.110	0.196	0.176	0.136	0.091	0.103	0.106	0.071	0.127	0.142	0.118	0.100	0.139	0.110	0.111	0.047	0.048
650.0	6.465	12.33	8.520	5.475	5.174	4.732	5.705	6.226	7.285	8.539	10.72	11.23	11.91	11.45	15.31	9.169	4.384	3.255	2.696	7.351	105.6	232.9	9.433	0.650	0.662	0.640	0.648	0.548	0.533	0.546	0.489	0.489	0.412	0.363	0.394	0.379	0.339	0.334	0.311	0.289	0.268	0.209	0.304	0.221	0.263	0.162	0.235	0.178	0.185	0.183	0.158	0.149	0.124	0.122	0.135	0.132	0.106	0.095	0.108	0.099	0.096	0.153	0.192	0.124	0.136	0.087	0.131	0.092	0.095	0.124	0.096	0.147	0.118	0.134	0.120	0.039	0.053
