Sample:	'1
File name:	Default_20230321_130642.FD3
Run date:	'13:00:20, 03/21/2023
Operator:	dsjg
Comment:	'

Instrument
Model:	F-2700 FL Spectrophotometer
Serial number:	2198-001
ROM Version:	4J14000 07

Instrument parameters
Measurement type:	3-D scan
Data mode:	Fluorescence
EX  Start WL:	220.0 nm
EX  End WL:	600.0 nm
EX Sampling interval:	5.0 nm
EM  Start WL:	230.0 nm
EM  End WL:	650.0 nm
EM Sampling interval:	5.0 nm
Scan speed:	12000 nm/min
EX Slit:	5.0 nm
EM Slit:	5.0 nm
PMT Voltage:	700 V
Response:	Auto 
Corrected spectra:	Off
Contour interval:	50.000

Peak integration
Integration method:	Rectangular
Sensitivity:	1
Threshold:	1.000

Peaks
No.	ApexEX/EM(nm)	Height(Data)
1	225.0/340.0	 1635
2	225.0/585.0	67.46
3	225.0/595.0	69.22
4	225.0/615.0	64.67
5	265.0/585.0	58.45
6	270.0/595.0	63.64
7	275.0/340.0	 1716
8	275.0/610.0	63.51
9	280.0/620.0	58.05
10	455.0/335.0	5.956
11	555.0/345.0	8.922
12	560.0/340.0	8.863

Data points
	220.0	225.0	230.0	235.0	240.0	245.0	250.0	255.0	260.0	265.0	270.0	275.0	280.0	285.0	290.0	295.0	300.0	305.0	310.0	315.0	320.0	325.0	330.0	335.0	340.0	345.0	350.0	355.0	360.0	365.0	370.0	375.0	380.0	385.0	390.0	395.0	400.0	405.0	410.0	415.0	420.0	425.0	430.0	435.0	440.0	445.0	450.0	455.0	460.0	465.0	470.0	475.0	480.0	485.0	490.0	495.0	500.0	505.0	510.0	515.0	520.0	525.0	530.0	535.0	540.0	545.0	550.0	555.0	560.0	565.0	570.0	575.0	580.0	585.0	590.0	595.0	600.0
230.0	227.3	 3891	 7113	 1651	37.02	8.091	6.233	5.015	4.411	3.796	3.827	3.216	2.884	2.619	2.020	1.739	1.722	1.492	1.567	1.390	1.398	1.309	1.255	1.225	1.229	1.244	1.157	1.087	1.002	1.004	1.005	0.934	0.946	0.809	0.797	0.810	0.821	0.781	0.677	0.649	0.664	0.782	0.817	0.654	0.537	0.526	1.903	12.63	29.13	27.48	10.73	2.032	0.449	0.321	0.326	0.298	0.284	0.309	0.248	0.228	0.223	0.210	0.186	0.196	0.202	0.208	0.167	0.149	0.183	0.126	0.130	0.147	0.118	0.106	0.131	0.110	0.113
235.0	106.2	 1129	 5167	 7126	 1888	52.67	9.736	6.650	5.952	4.603	4.113	3.716	3.432	2.614	2.389	1.946	1.991	1.446	1.532	1.646	1.376	1.391	1.350	1.322	1.427	1.228	1.214	1.157	1.055	1.056	1.003	0.818	0.891	0.828	0.784	0.768	0.785	0.805	0.707	0.722	0.575	0.622	0.673	0.824	0.710	0.625	0.816	3.347	9.042	17.85	26.90	20.81	14.63	3.600	0.444	0.323	0.329	0.298	0.251	0.221	0.252	0.225	0.225	0.216	0.198	0.187	0.210	0.162	0.140	0.138	0.177	0.160	0.101	0.122	0.144	0.118	0.096
240.0	109.7	295.0	 1770	 6925	 7164	360.3	26.91	8.639	7.979	6.374	5.128	4.260	3.555	3.090	2.727	2.155	2.174	1.429	1.773	1.540	1.504	1.570	1.368	1.255	1.419	1.128	1.127	1.132	1.307	1.102	1.008	0.855	0.890	0.907	0.778	0.671	0.697	0.747	0.691	0.706	0.628	0.619	0.637	0.732	0.719	0.802	0.795	1.174	2.406	4.931	11.85	28.36	43.79	21.18	11.15	1.563	0.375	0.314	0.282	0.276	0.256	0.216	0.212	0.226	0.209	0.232	0.215	0.175	0.164	0.137	0.194	0.156	0.127	0.130	0.099	0.095	0.096
245.0	90.89	151.2	437.6	 2782	 8572	 6579	274.7	16.07	10.21	7.239	6.137	5.551	3.855	3.720	2.843	2.391	2.120	1.638	1.936	1.630	1.586	1.512	1.342	1.491	1.370	1.305	1.311	1.219	1.278	1.096	1.028	1.022	0.871	0.872	0.786	0.731	0.748	0.723	0.813	0.769	0.644	0.597	0.587	0.606	0.680	0.711	0.868	0.884	1.064	1.490	3.109	9.262	25.73	42.52	49.64	19.13	7.041	0.673	0.338	0.288	0.263	0.225	0.250	0.253	0.198	0.246	0.171	0.175	0.203	0.180	0.152	0.137	0.135	0.130	0.143	0.093	0.086
250.0	42.95	107.5	188.2	680.8	 3132	 7760	 8150	 1093	69.74	11.46	8.512	7.245	4.985	3.941	3.451	2.778	2.544	2.260	1.978	1.821	1.658	1.495	1.540	1.554	1.448	1.269	1.310	1.378	1.254	1.226	1.073	1.065	0.936	0.867	0.851	0.752	0.737	0.721	0.695	0.755	0.667	0.641	0.626	0.663	0.605	0.578	0.644	0.764	0.982	0.921	1.141	2.442	6.381	13.74	27.27	38.47	51.48	41.00	13.11	5.997	0.744	0.315	0.271	0.282	0.271	0.247	0.215	0.188	0.218	0.204	0.195	0.158	0.126	0.178	0.119	0.112	0.108
255.0	22.93	43.35	117.3	262.4	735.3	 2133	 7499	9999.9	 1627	85.47	12.70	9.477	6.210	5.658	4.235	3.491	2.643	2.434	2.292	2.023	1.869	1.767	1.654	1.551	1.576	1.339	1.474	1.407	1.328	1.259	1.082	1.044	0.955	0.886	0.904	0.757	0.699	0.726	0.708	0.738	0.740	0.743	0.686	0.626	0.587	0.596	0.551	0.597	0.646	0.701	0.958	1.284	1.925	3.463	6.407	9.477	19.24	41.51	69.31	72.17	20.61	6.947	0.545	0.344	0.320	0.252	0.275	0.201	0.215	0.207	0.183	0.167	0.155	0.130	0.148	0.109	0.164
260.0	21.48	23.05	55.47	158.3	253.7	506.9	 2526	9999.9	9999.9	 1328	54.90	12.88	7.925	6.577	5.377	4.283	3.275	2.937	2.711	2.154	2.113	1.942	1.952	1.851	1.605	1.498	1.526	1.431	1.264	1.329	1.218	1.101	1.078	0.985	0.838	0.780	0.766	0.684	0.664	0.696	0.733	0.731	0.722	0.639	0.644	0.518	0.559	0.557	0.568	0.529	0.707	0.962	1.245	1.415	1.779	2.486	4.730	11.64	31.75	67.10	87.57	69.23	16.59	3.010	0.395	0.308	0.269	0.259	0.224	0.236	0.199	0.204	0.178	0.161	0.210	0.143	0.170
265.0	24.42	22.35	27.66	80.31	175.0	179.5	602.7	 3787	9999.9	9999.9	 1035	28.25	11.71	8.467	6.286	4.792	3.653	3.284	2.895	2.405	2.394	2.258	1.905	1.802	1.813	1.698	1.625	1.432	1.395	1.294	1.328	1.179	1.134	0.993	0.897	0.842	0.864	0.699	0.691	0.622	0.629	0.680	0.743	0.685	0.598	0.630	0.552	0.525	0.567	0.512	0.487	0.591	0.927	1.182	1.216	1.035	1.445	3.012	7.774	20.84	50.48	92.37	97.81	24.78	11.40	0.906	0.361	0.299	0.264	0.279	0.245	0.247	0.224	0.206	0.226	0.207	0.178
270.0	62.49	54.15	41.48	39.78	90.19	152.9	213.6	901.3	 3700	9999.9	9999.9	 4010	62.93	12.72	9.002	6.224	5.364	4.000	3.402	2.798	2.597	2.335	2.114	2.112	1.854	1.984	1.735	1.723	1.450	1.497	1.444	1.288	1.196	1.162	1.045	0.955	0.899	0.819	0.809	0.751	0.696	0.744	0.796	0.828	0.752	0.729	0.667	0.691	0.597	0.579	0.479	0.487	0.598	0.735	1.049	1.098	1.131	1.309	2.110	5.081	12.23	27.60	49.88	67.13	86.38	65.28	44.69	8.582	1.210	0.357	0.302	0.256	0.255	0.266	0.232	0.217	0.225
275.0	161.6	146.2	95.56	43.77	41.77	83.59	179.4	303.2	874.8	 2608	 8448	9999.9	 6186	76.18	14.35	9.478	7.194	5.322	4.152	3.682	3.266	2.639	2.809	2.395	2.067	2.085	1.885	1.611	1.627	1.651	1.595	1.308	1.243	1.360	1.260	1.096	1.037	0.978	0.976	0.827	0.817	0.898	1.016	0.945	0.977	1.064	1.015	0.943	0.863	0.718	0.657	0.506	0.461	0.529	0.645	0.725	0.986	1.375	1.425	1.724	3.131	6.592	11.61	16.07	28.58	56.59	106.5	116.7	24.74	10.84	0.689	0.368	0.298	0.301	0.243	0.263	0.250
280.0	255.6	237.3	156.6	60.27	32.25	46.88	128.9	227.3	296.8	658.0	 2619	9999.9	9999.9	 4669	54.87	12.85	9.364	6.875	5.197	4.151	3.716	3.252	2.991	2.633	2.443	2.095	2.049	1.898	1.762	1.607	1.564	1.337	1.362	1.287	1.449	1.422	1.300	1.169	1.154	1.056	1.028	1.026	1.197	1.264	1.259	1.468	1.492	1.326	1.123	0.917	0.719	0.597	0.542	0.545	0.565	0.571	0.740	1.031	1.386	1.640	1.521	2.054	3.135	4.273	7.040	15.33	42.25	89.81	120.9	106.6	20.46	4.724	0.388	0.292	0.269	0.316	0.288
285.0	374.8	349.4	227.6	87.80	42.48	45.02	84.84	200.2	256.8	284.8	727.8	 3575	9999.9	9999.9	719.8	32.56	12.75	8.922	6.604	5.195	4.143	3.536	3.329	2.989	2.717	2.367	2.156	2.114	1.913	1.813	1.733	1.471	1.359	1.398	1.596	1.702	1.741	1.575	1.343	1.359	1.269	1.329	1.354	1.547	1.748	1.840	1.733	1.608	1.488	1.177	0.874	0.695	0.612	0.607	0.573	0.566	0.650	0.763	1.027	1.548	1.662	1.735	1.589	1.766	2.391	4.322	10.56	25.99	58.49	110.9	129.5	27.69	14.21	1.051	0.416	0.349	0.333
290.0	537.3	519.4	366.1	158.3	73.63	67.14	90.40	170.6	301.0	390.3	469.0	 1091	 3478	 9639	9999.9	 6667	44.83	13.71	9.331	6.799	5.274	4.362	3.839	3.363	3.073	2.785	2.453	2.322	2.089	1.945	1.784	1.607	1.657	1.589	1.993	2.099	2.064	2.016	1.768	1.693	1.635	1.600	1.784	1.834	2.104	2.263	2.214	2.200	2.018	1.540	1.071	0.896	0.765	0.690	0.683	0.686	0.777	0.867	0.947	1.239	1.488	1.992	2.256	2.335	2.161	2.593	4.104	7.400	15.05	32.12	55.91	74.58	103.6	78.74	58.56	9.138	1.219
295.0	724.6	702.1	521.4	241.7	116.6	103.3	126.6	205.7	319.9	514.4	662.5	726.4	 1161	 2572	 6412	9999.9	 4349	53.68	14.50	10.36	7.295	5.942	4.691	4.040	3.669	3.103	2.906	2.447	2.374	2.257	1.921	1.910	1.749	1.703	2.327	2.632	2.647	2.502	2.235	2.172	1.983	1.984	2.297	2.249	2.517	2.876	2.707	2.741	2.680	2.057	1.400	1.283	1.038	0.864	0.851	0.850	0.956	1.106	1.260	1.341	1.634	2.049	2.515	3.077	3.636	3.797	3.453	4.208	5.737	9.334	14.22	18.57	31.19	55.87	120.6	147.7	27.86
300.0	843.4	850.0	645.3	323.2	161.8	135.5	168.9	256.8	375.6	569.1	820.0	840.8	759.0	906.2	 1965	 8093	9999.9	 3540	40.94	13.53	9.569	7.030	6.065	4.765	4.211	3.871	3.337	2.759	2.581	2.544	2.303	2.015	1.972	1.979	2.515	2.902	3.032	2.759	2.658	2.423	2.501	2.302	2.403	2.586	2.837	3.182	2.913	3.023	2.950	2.311	1.761	1.514	1.182	0.988	1.061	1.006	1.180	1.316	1.336	1.672	1.982	2.176	2.813	3.364	3.998	4.874	4.741	4.346	4.176	4.762	5.431	5.759	8.339	15.10	43.22	98.60	148.2
305.0	914.5	958.4	744.8	376.9	197.5	168.8	205.4	302.0	440.7	626.9	879.6	 1007	820.4	615.6	668.6	 2619	9999.9	9999.9	458.7	29.07	12.61	9.075	7.176	5.744	4.901	4.238	3.521	3.093	2.937	2.715	2.292	2.239	1.963	2.116	2.683	3.114	2.946	3.059	2.822	2.754	2.558	2.595	2.703	2.798	3.159	3.433	3.356	3.395	3.093	2.542	1.975	1.697	1.428	1.112	1.160	1.094	1.407	1.317	1.511	1.855	2.239	2.603	3.111	3.659	4.048	4.814	5.517	5.451	4.853	4.395	3.983	3.314	3.549	4.709	10.88	27.48	64.86
310.0	 1019	 1089	851.5	450.9	244.9	215.0	262.1	378.5	534.5	733.8	961.2	 1102	 1037	731.6	478.4	749.0	 2987	 9252	9999.9	 7579	35.08	13.51	9.806	7.259	6.006	4.815	4.078	3.560	3.131	2.958	2.738	2.288	2.032	2.292	2.636	3.135	3.161	3.437	3.061	2.733	2.793	2.667	2.985	3.183	3.363	3.673	3.825	3.747	3.531	2.826	2.162	1.930	1.635	1.435	1.316	1.300	1.553	1.622	1.895	2.216	2.522	3.170	3.558	4.218	4.826	5.359	5.749	5.951	6.072	5.701	4.773	3.684	3.077	2.898	3.710	7.086	15.84
315.0	 1143	 1236	960.2	516.8	298.3	271.1	330.3	466.7	647.5	869.6	 1105	 1216	 1169	968.2	598.1	397.7	783.0	 2239	 5504	9999.9	9999.9	43.28	14.03	10.53	7.776	6.072	4.811	4.449	3.710	3.341	3.331	2.305	2.313	2.343	2.802	3.070	3.338	3.361	3.310	2.991	2.705	3.042	3.243	3.461	3.646	4.095	4.188	4.207	4.079	3.056	2.404	2.185	1.893	1.787	1.571	1.551	1.728	2.008	2.383	2.836	2.985	3.805	4.252	4.906	5.318	5.972	6.177	6.148	6.450	6.625	6.433	5.182	4.016	2.988	2.540	3.028	4.640
320.0	 1227	 1316	 1053	586.2	337.5	314.5	383.3	546.6	748.1	983.8	 1228	 1329	 1266	 1065	765.2	390.8	328.9	587.0	 1515	 7444	9999.9	 2738	33.79	13.27	10.18	7.284	5.921	4.860	4.427	3.822	3.485	2.738	2.646	2.642	2.817	3.234	3.614	3.403	3.376	3.121	2.845	3.170	3.347	3.642	3.948	4.384	4.445	4.807	4.223	3.400	2.562	2.333	2.082	1.861	1.751	1.825	1.916	2.162	2.557	3.002	3.553	4.080	4.701	5.284	6.065	6.357	6.767	6.578	6.910	6.659	6.410	5.919	5.212	3.956	2.713	2.384	2.396
325.0	 1298	 1447	 1137	639.6	374.1	359.0	435.4	611.4	829.6	 1083	 1340	 1443	 1364	 1130	877.3	490.8	263.9	237.1	407.2	 2154	9999.9	9999.9	 2109	26.61	12.47	9.374	7.126	5.580	4.803	4.044	3.723	3.194	2.699	2.756	2.920	3.085	3.701	3.587	3.394	3.270	3.176	3.404	3.595	3.839	4.487	4.694	4.747	5.222	4.597	3.631	2.721	2.628	2.254	1.966	1.938	2.004	2.166	2.573	2.891	3.262	3.792	4.634	5.144	5.785	6.590	6.855	7.529	7.436	7.313	7.395	6.809	5.968	5.747	4.782	3.639	2.549	2.050
330.0	 1408	 1553	 1223	687.8	434.4	401.3	495.7	681.2	925.7	 1204	 1471	 1579	 1489	 1236	930.3	597.2	351.9	198.1	177.7	539.3	 2734	 9322	9999.9	 7697	31.09	13.06	10.06	7.361	5.905	5.058	4.515	3.599	3.128	2.914	3.006	3.211	3.544	3.515	3.459	3.299	3.223	3.605	3.652	4.255	4.638	4.923	5.089	5.457	4.973	3.893	2.904	2.822	2.323	2.102	2.092	2.090	2.487	2.878	3.297	3.582	4.348	5.025	5.771	6.517	7.261	7.447	7.970	8.216	8.085	7.915	7.349	6.364	6.138	4.952	4.297	3.430	2.790
335.0	 1511	 1586	 1254	735.8	478.6	452.9	543.7	748.0	 1010	 1299	 1574	 1678	 1597	 1338	990.6	614.8	441.2	265.2	152.5	190.0	653.6	 2175	 5540	9999.9	9999.9	38.37	13.76	10.05	7.788	6.244	5.421	4.259	3.462	3.232	3.126	3.436	3.603	3.507	3.401	3.528	3.448	3.543	3.750	4.311	4.554	5.345	5.321	5.956	5.144	4.047	3.169	2.883	2.520	2.198	2.202	2.374	2.759	3.134	3.581	4.036	4.688	5.588	6.223	6.856	7.489	7.971	8.518	8.854	8.659	8.356	7.568	7.057	6.368	5.217	4.178	3.349	3.279
340.0	 1576	 1635	 1288	753.7	498.6	475.0	566.2	783.3	 1051	 1328	 1612	 1716	 1637	 1377	 1036	621.4	433.8	336.6	178.0	124.9	199.9	525.8	 1433	 8255	9999.9	 2394	31.71	12.88	9.768	7.357	5.817	4.762	3.963	3.336	3.561	3.484	3.651	3.632	3.533	3.431	3.535	3.655	3.886	4.376	4.803	5.571	5.374	5.799	5.076	3.937	3.182	2.954	2.601	2.230	2.300	2.428	2.865	3.124	3.740	4.248	4.831	5.700	6.319	7.082	7.788	8.535	8.371	8.647	8.863	8.681	8.068	7.363	6.612	5.417	4.068	3.540	2.963
345.0	 1532	 1623	 1290	762.7	516.1	498.5	579.4	799.7	 1057	 1340	 1601	 1710	 1622	 1376	 1047	634.3	419.7	344.1	243.6	131.8	112.1	167.6	362.9	 2291	9999.9	9999.9	 1849	24.65	11.91	9.146	7.159	5.545	4.335	3.793	3.715	3.657	3.606	3.473	3.604	3.371	3.571	3.641	3.941	4.462	4.707	5.476	5.482	5.820	5.292	4.032	3.156	3.049	2.616	2.384	2.380	2.388	2.910	3.315	3.696	4.305	4.814	5.807	6.648	7.307	7.970	8.498	8.334	8.922	8.571	8.715	7.994	7.133	6.608	5.468	4.279	3.407	2.965
350.0	 1469	 1535	 1224	753.8	515.1	504.8	583.4	788.2	 1033	 1294	 1542	 1634	 1558	 1338	 1026	632.8	423.9	317.3	279.7	207.2	125.4	110.2	140.8	561.5	 2762	9999.9	9999.9	 6940	29.36	13.07	9.235	6.885	5.267	4.249	3.903	3.645	3.944	3.650	3.517	3.524	3.381	3.575	3.837	4.317	4.697	5.379	5.190	5.680	4.935	4.001	3.052	3.121	2.671	2.418	2.360	2.484	2.838	3.229	3.553	4.184	4.938	5.706	6.407	7.007	7.544	7.896	8.251	8.363	8.664	8.319	7.958	7.033	6.494	5.498	4.413	3.537	3.114
355.0	 1382	 1416	 1135	717.0	512.3	500.2	568.9	753.7	983.1	 1234	 1456	 1530	 1454	 1259	982.3	627.2	432.4	321.9	265.5	260.0	200.2	130.2	116.3	193.2	667.9	 2321	 5845	9999.9	 9659	36.46	12.76	9.318	6.713	5.068	4.541	3.995	3.939	3.814	3.625	3.573	3.526	3.481	3.834	4.055	4.506	5.122	4.985	5.098	4.749	3.847	3.000	2.895	2.629	2.476	2.523	2.546	2.733	3.042	3.625	4.034	4.805	5.494	6.346	6.664	7.119	7.372	7.704	7.932	7.894	7.942	7.328	6.809	6.288	5.198	4.468	3.561	3.059
360.0	 1276	 1324	 1090	687.3	509.2	493.3	562.2	738.8	940.2	 1169	 1368	 1442	 1377	 1188	937.4	614.8	441.8	335.0	277.3	255.2	257.9	179.9	134.4	130.3	215.3	566.7	 1477	 8428	9999.9	 2273	29.51	11.51	8.584	6.112	4.978	4.433	4.025	3.853	3.693	3.482	3.579	3.534	3.676	3.840	4.377	4.777	4.842	5.152	4.872	3.608	2.983	2.838	2.609	2.393	2.535	2.575	2.808	3.120	3.561	3.943	4.611	5.286	5.978	6.606	6.805	7.187	6.851	7.362	7.662	7.518	6.908	6.419	6.222	5.013	4.362	3.495	3.048
365.0	 1188	 1243	 1030	675.0	504.6	492.1	553.6	710.2	894.8	 1103	 1293	 1355	 1294	 1124	904.7	605.4	444.2	355.4	294.2	262.3	269.6	248.2	169.8	135.8	130.1	187.2	375.2	 2294	9999.9	9999.9	 1769	22.63	10.37	7.697	5.589	4.769	4.247	3.934	3.679	3.508	3.638	3.318	3.558	3.897	4.217	4.642	4.657	4.869	4.436	3.376	2.949	2.799	2.639	2.491	2.502	2.660	2.869	3.105	3.450	3.730	4.199	4.933	5.481	5.991	6.441	6.779	6.712	6.984	7.253	6.776	6.377	6.166	5.745	5.040	3.965	3.504	3.169
370.0	 1122	 1136	960.4	646.6	505.0	499.5	539.9	681.4	837.7	 1014	 1182	 1231	 1175	 1036	842.8	587.9	453.4	381.0	330.1	298.2	281.5	285.5	253.9	182.2	141.5	125.2	144.0	556.3	 2787	9999.9	9999.9	 6447	25.52	10.69	7.623	5.581	4.660	4.292	3.860	3.621	3.588	3.464	3.707	3.896	4.077	4.484	4.320	4.495	4.164	3.352	2.735	2.759	2.669	2.574	2.493	2.749	2.738	3.044	3.273	3.550	4.058	4.504	5.155	5.585	5.970	6.267	6.141	6.516	6.355	6.136	6.105	6.044	5.291	4.647	4.017	3.591	3.278
375.0	 1008	 1048	883.4	642.4	506.6	494.5	526.0	645.5	777.1	921.8	 1065	 1107	 1055	944.2	782.2	567.3	462.3	402.9	368.5	339.0	317.8	300.7	306.5	267.1	183.3	138.7	113.5	183.5	662.7	 2310	 6298	9999.9	 8772	31.03	10.32	7.203	5.628	4.990	4.357	3.689	3.724	3.533	3.825	3.486	4.046	4.098	4.238	4.155	3.737	3.228	2.754	2.729	2.686	2.729	2.661	2.669	2.845	2.823	3.197	3.450	3.912	4.100	4.807	5.251	5.381	5.769	5.562	5.809	6.055	5.560	5.498	5.339	5.051	4.284	3.828	3.626	3.208
380.0	958.9	973.6	838.4	625.2	521.7	499.2	525.6	628.0	742.8	869.9	986.8	 1020	970.2	877.6	734.1	556.3	468.2	426.2	392.8	372.5	350.9	325.8	315.5	315.3	237.0	165.0	122.1	112.6	199.6	554.9	 1574	 8551	9999.9	 1973	24.81	8.813	6.776	5.710	4.570	4.078	3.843	3.652	3.926	3.556	3.911	4.118	4.090	4.141	3.726	3.057	2.644	2.746	2.607	2.745	2.634	2.734	2.824	2.857	3.071	3.298	3.770	4.081	4.401	4.545	5.002	5.345	5.307	5.687	5.476	5.409	5.201	4.930	4.698	4.341	3.838	3.444	3.451
385.0	891.9	910.4	820.1	631.7	524.7	500.5	523.1	609.6	707.4	811.7	915.1	946.6	902.5	826.9	703.0	544.3	478.3	441.6	411.7	394.6	378.2	350.8	335.2	322.1	291.2	201.2	144.1	114.0	109.5	173.1	390.0	 2324	9999.9	9999.9	 1456	17.27	8.008	6.588	5.499	4.637	3.992	3.778	3.890	3.695	3.819	3.878	4.031	3.792	3.661	2.964	2.774	2.739	2.773	2.711	2.688	2.729	2.774	2.914	3.177	3.177	3.542	3.928	4.239	4.464	4.671	4.872	4.922	5.073	5.321	5.021	4.912	4.874	4.579	4.046	3.723	3.397	3.259
390.0	846.1	869.1	785.5	617.5	539.3	513.5	512.8	588.5	664.6	750.8	838.3	862.5	827.1	757.1	660.5	534.4	482.1	457.3	436.8	422.9	409.2	388.6	366.3	335.9	318.0	270.1	190.4	142.8	112.8	107.4	139.7	558.4	 2751	 9328	9999.9	 4959	20.79	8.943	6.671	5.494	4.406	3.860	3.876	3.757	3.849	3.909	3.666	3.638	3.541	3.023	2.780	2.877	2.880	2.622	2.635	2.677	2.932	2.874	3.077	3.232	3.397	3.678	4.047	4.230	4.344	4.532	4.637	4.699	4.856	4.679	4.596	4.573	4.458	3.903	3.628	3.433	3.284
395.0	783.0	809.6	750.2	628.9	544.1	529.0	516.0	577.0	641.5	704.3	781.0	797.0	760.5	700.1	622.4	523.0	485.1	469.8	453.7	445.7	437.2	417.4	400.9	367.1	328.5	303.9	261.5	187.8	143.8	118.1	104.2	178.9	651.9	 2142	 5508	9999.9	 6933	26.67	8.647	6.687	5.291	4.449	4.058	3.900	3.896	4.004	3.771	3.885	3.636	2.861	2.744	2.912	2.862	2.786	2.834	2.752	2.875	2.908	3.064	3.158	3.375	3.439	3.651	3.893	3.974	4.251	4.189	4.218	4.390	4.379	4.155	4.384	4.100	3.925	3.763	3.554	3.520
400.0	739.4	783.0	740.6	625.6	546.6	528.9	521.2	570.1	617.3	676.5	747.5	745.9	713.4	660.2	598.7	514.4	483.4	473.6	462.0	455.8	452.6	433.2	421.3	387.7	347.8	311.8	293.5	234.9	171.8	138.5	110.4	105.7	192.6	513.1	 1360	 7194	9999.9	 1668	21.74	7.878	6.142	5.013	4.438	4.086	3.899	3.876	3.702	3.676	3.498	2.941	2.628	2.959	2.922	2.930	2.803	2.719	2.807	2.923	3.140	3.267	3.339	3.362	3.537	3.733	3.917	4.076	4.063	4.070	4.253	4.079	3.953	4.079	4.062	3.917	3.585	3.597	3.571
405.0	699.2	735.1	734.5	617.6	561.2	531.7	523.0	562.9	598.3	659.8	717.4	719.5	680.2	635.4	578.8	499.5	479.9	477.2	463.1	460.3	458.6	442.2	432.7	403.9	363.7	322.7	298.2	275.9	207.7	161.7	128.6	102.1	101.3	156.5	335.7	 1908	 9331	9999.9	 1288	16.29	7.135	5.786	4.876	4.421	3.987	4.038	3.622	3.756	3.506	2.992	2.675	3.074	3.074	2.872	2.894	2.801	2.893	2.926	3.158	3.177	3.316	3.324	3.528	3.670	3.865	3.839	3.977	4.002	3.959	3.885	3.823	4.005	3.857	3.810	3.487	3.457	3.375
410.0	655.7	704.1	699.2	622.3	564.9	545.9	525.0	566.7	595.2	642.4	693.8	686.7	647.5	602.4	554.8	488.8	474.2	470.0	462.6	459.8	459.1	448.7	442.5	419.5	385.1	344.8	307.8	290.5	260.8	205.6	158.1	123.3	97.20	90.76	114.8	455.3	 2417	 7690	9999.9	 4249	18.94	7.534	5.767	4.988	4.324	4.247	3.818	3.826	3.472	3.100	2.812	3.108	3.015	2.965	2.865	2.874	2.940	2.995	3.022	3.205	3.309	3.388	3.497	3.436	3.741	3.971	3.704	3.737	3.998	3.734	3.654	3.834	3.478	3.506	3.267	3.459	3.392
415.0	616.3	658.9	682.3	633.2	568.3	547.6	524.1	562.8	590.1	629.6	680.6	669.5	620.7	566.1	530.3	475.9	461.2	458.4	450.5	453.9	450.0	446.5	443.5	424.0	397.6	363.5	326.3	297.4	281.3	258.9	196.6	148.2	113.3	89.22	76.70	139.0	565.2	 1757	 4704	9999.9	 1646	24.45	7.690	5.532	4.856	4.608	3.863	3.746	3.532	3.108	2.864	3.116	3.132	3.119	3.049	2.939	2.984	3.048	3.050	3.310	3.409	3.457	3.509	3.304	3.653	3.934	3.693	3.692	3.736	3.506	3.490	3.749	3.294	3.326	3.224	3.300	3.169
420.0	581.5	629.4	666.2	616.8	574.6	540.9	525.8	562.3	593.6	626.4	671.2	657.6	600.0	547.8	507.5	457.8	449.5	446.1	441.9	444.1	445.3	439.8	439.0	423.4	403.3	372.6	339.5	308.8	284.1	278.1	230.8	169.1	128.8	98.16	76.11	73.57	158.0	415.8	 1137	 5878	9999.9	 1554	20.27	7.201	5.526	4.944	4.135	3.901	3.633	3.090	2.829	3.216	3.165	3.068	3.157	2.978	3.209	3.108	3.131	3.249	3.364	3.352	3.644	3.546	3.742	3.717	3.567	3.843	3.644	3.527	3.303	3.467	3.304	3.227	3.041	3.211	3.183
425.0	557.0	622.3	662.6	605.8	574.0	551.1	529.8	568.9	587.8	625.5	665.4	642.3	588.1	534.1	490.2	443.4	439.4	436.3	429.2	433.9	434.0	433.5	433.8	421.5	404.9	379.4	346.7	319.8	293.0	277.7	260.9	195.0	142.8	109.0	83.98	66.02	72.54	120.8	275.7	 1509	 7742	9999.9	 1230	14.95	6.455	5.372	4.576	4.145	3.641	3.129	2.628	3.217	3.059	3.043	3.123	3.091	3.212	3.145	3.175	3.160	3.195	3.269	3.619	3.592	3.586	3.705	3.527	3.542	3.681	3.410	3.158	3.442	3.303	3.060	2.950	3.294	3.170
430.0	607.9	586.3	635.2	607.9	569.4	545.1	522.3	563.4	589.2	619.2	659.8	637.3	572.9	511.8	470.7	428.7	423.8	420.4	413.9	415.2	418.0	417.2	424.0	414.9	403.4	382.2	353.4	329.0	306.8	283.3	262.8	226.9	170.3	126.3	96.89	74.28	62.75	62.16	88.46	356.9	 1993	 6387	 9198	 3596	17.76	6.835	5.035	4.717	3.896	3.205	2.900	3.237	3.120	3.321	3.187	2.951	3.244	3.178	3.262	3.290	3.211	3.375	3.585	3.567	3.618	3.679	3.617	3.637	3.426	3.404	3.133	3.216	3.042	2.990	2.959	2.902	2.982
435.0	 1125	565.0	613.5	598.5	556.6	537.3	522.4	566.1	584.3	619.6	651.1	622.0	558.5	491.0	451.9	415.5	408.0	402.1	395.4	394.6	400.5	402.0	408.4	408.0	397.0	379.8	357.1	335.5	312.5	291.3	264.6	234.8	200.8	149.6	111.0	85.76	68.88	56.85	52.20	104.7	462.9	 1452	 3878	9999.9	 1561	22.96	6.562	5.385	4.123	3.661	3.149	3.382	3.315	3.236	3.259	3.010	3.212	3.200	3.457	3.403	3.301	3.380	3.392	3.540	3.566	3.658	3.602	3.372	3.497	3.229	3.227	2.952	2.920	3.049	2.888	2.986	3.040
440.0	 2070	607.9	611.1	589.5	545.7	537.8	526.6	560.7	584.4	611.5	637.9	610.3	541.6	478.8	437.5	397.2	392.2	387.0	380.2	376.3	382.9	387.1	396.9	394.8	386.3	373.6	354.9	333.2	317.5	296.4	267.6	233.3	207.5	167.8	123.1	95.37	76.92	60.48	48.75	51.94	125.2	341.2	929.3	 5549	9999.9	 1410	16.96	6.483	4.827	4.122	3.477	3.443	3.373	3.308	3.189	3.289	3.383	3.186	3.346	3.180	3.383	3.358	3.519	3.475	3.553	3.793	3.438	3.240	3.438	3.179	2.879	3.013	2.747	2.750	2.724	2.879	2.967
445.0	 3113	870.3	587.2	569.9	533.9	523.8	516.5	549.8	572.2	594.7	624.4	596.2	524.6	458.0	424.6	381.9	375.3	369.3	360.2	363.0	367.3	367.9	378.6	380.4	375.5	363.5	345.5	332.1	316.7	298.8	270.7	230.9	202.6	179.4	137.3	102.7	83.87	65.65	51.81	43.58	53.07	95.86	224.9	 1441	 7655	 9951	179.2	12.72	5.469	4.312	3.744	3.702	3.466	3.353	3.362	3.184	3.167	3.366	3.212	3.061	3.248	3.395	3.462	3.537	3.552	3.542	3.447	3.416	3.111	3.054	2.948	2.825	2.755	2.755	2.640	2.828	2.895
450.0	 2987	 2353	649.1	546.7	509.8	502.9	496.3	531.1	554.8	573.3	597.5	564.4	495.6	433.7	394.0	355.0	347.6	344.1	335.5	337.0	341.4	343.9	353.3	358.1	353.7	344.8	331.6	321.1	306.1	292.5	265.9	231.0	197.2	175.1	149.9	115.4	91.24	72.73	57.94	47.25	42.24	45.02	70.19	337.7	 1958	 6250	 8340	 3156	14.93	5.449	4.287	4.187	3.682	3.459	3.256	3.252	3.146	3.345	3.376	3.278	3.234	3.262	3.257	3.345	3.516	3.319	3.232	3.102	3.029	2.938	2.792	2.799	2.667	2.531	2.466	2.590	2.711
455.0	 1488	 3837	 1470	509.2	479.6	475.6	466.6	502.7	521.7	534.5	552.0	523.9	459.4	395.7	361.1	325.9	318.2	313.2	306.7	306.3	309.7	312.4	322.7	326.5	329.1	321.6	310.0	300.0	289.2	279.5	257.2	225.1	192.4	166.4	145.8	128.5	102.0	78.84	64.84	53.67	43.91	37.68	38.79	93.21	450.1	 1418	 3574	 9298	 1332	17.30	5.396	4.668	3.992	3.581	3.364	3.026	3.112	3.247	3.215	3.069	3.231	3.169	3.103	3.193	3.453	3.113	3.011	2.986	2.845	2.816	2.765	2.547	2.366	2.459	2.386	2.474	2.475
460.0	676.2	 3581	 2918	559.9	449.7	452.1	449.8	483.6	493.7	507.1	523.3	488.5	431.7	369.5	339.7	307.1	296.4	288.0	284.8	285.8	285.5	290.1	300.8	304.1	305.4	301.7	292.2	283.4	274.5	267.1	248.1	217.6	188.7	160.5	140.3	128.0	111.3	83.68	68.18	56.73	46.54	37.87	33.35	40.43	116.0	328.5	847.3	 4748	 9113	 1074	13.64	5.221	4.489	3.883	3.545	3.170	3.145	3.251	3.160	2.960	3.080	3.043	2.979	3.079	3.084	3.023	2.941	2.717	2.629	2.696	2.616	2.504	2.454	2.387	2.157	2.382	2.233
465.0	420.7	 2250	 4325	995.9	434.4	429.2	429.7	450.9	471.3	482.4	490.9	462.3	410.2	347.8	315.0	284.1	273.7	269.8	262.5	265.3	265.6	268.6	279.4	286.1	284.6	280.7	272.1	265.4	259.1	253.3	237.3	208.9	180.9	156.9	134.5	120.3	113.9	89.88	70.43	58.49	49.28	40.87	33.55	29.92	42.57	86.69	200.9	 1204	 6460	 7901	780.1	10.95	4.924	4.174	3.707	3.303	3.259	3.065	3.118	2.944	2.962	2.907	2.892	2.967	3.101	2.872	2.840	2.580	2.663	2.589	2.426	2.380	2.214	2.236	2.154	2.207	2.036
470.0	331.2	898.1	 3822	 2953	472.5	390.9	388.6	416.4	426.6	435.6	447.3	416.4	370.8	319.2	284.5	256.1	245.2	241.1	234.0	237.0	235.7	237.5	250.1	253.3	254.3	252.8	245.7	241.5	236.1	231.8	217.3	195.6	170.7	148.8	127.6	112.5	104.3	94.60	76.25	60.76	51.08	42.29	35.50	29.04	27.49	33.63	56.54	278.9	 1655	 5015	 6576	 2540	14.37	5.174	4.188	3.714	3.404	3.235	3.013	2.818	2.719	2.727	2.812	2.758	2.797	2.542	2.539	2.535	2.486	2.295	2.136	2.117	1.987	1.955	1.901	1.918	1.852
475.0	299.5	433.1	 1703	 4602	 1508	353.4	353.2	373.1	384.0	397.5	398.6	371.2	330.2	283.3	256.0	228.3	217.1	214.1	205.6	206.7	207.0	209.3	219.5	222.0	225.5	223.2	217.6	214.6	211.8	208.6	197.2	178.6	157.3	137.5	119.7	105.0	94.82	88.22	80.69	64.68	51.84	42.72	36.31	30.18	25.18	23.14	25.02	72.47	376.9	 1135	 2628	 7100	 1315	17.99	5.007	3.813	3.563	3.348	3.011	2.842	2.801	2.646	2.626	2.577	2.438	2.307	2.297	2.195	2.270	2.132	1.926	1.973	1.945	1.753	1.700	1.595	1.798
480.0	285.5	334.8	700.1	 3866	 3146	403.7	325.0	344.6	356.9	359.7	368.9	346.1	299.8	259.9	232.2	208.9	200.3	194.9	186.0	185.9	187.4	190.6	198.9	203.0	205.5	203.1	200.0	196.6	194.2	192.7	181.9	166.4	148.2	130.1	113.8	101.8	89.96	81.96	78.35	68.08	52.82	42.62	37.39	30.76	25.90	21.07	18.58	27.23	93.29	260.9	621.4	 3455	 6726	 1133	14.29	4.674	3.885	3.495	3.060	2.641	2.629	2.571	2.492	2.448	2.341	2.258	2.192	2.177	1.967	1.920	1.735	1.809	1.800	1.549	1.529	1.616	1.533
485.0	271.1	303.2	394.1	 2163	 4535	982.2	300.6	319.7	334.2	336.4	340.6	318.2	280.8	240.8	212.5	191.0	184.3	179.9	173.2	171.2	173.9	175.7	182.1	185.9	189.2	187.4	183.4	181.7	180.0	179.1	168.9	155.2	139.6	124.4	108.7	97.01	86.44	77.27	72.23	68.82	56.01	43.69	37.96	31.31	26.40	21.11	18.32	17.81	31.03	66.61	146.9	859.7	 4728	 6377	175.4	10.48	4.712	3.799	3.197	2.791	2.612	2.397	2.342	2.353	2.274	2.213	2.184	2.209	2.008	1.846	1.847	1.713	1.644	1.620	1.460	1.484	1.622
490.0	238.6	272.0	298.8	790.9	 3679	 3050	441.1	292.6	305.4	306.7	310.4	285.7	253.8	217.2	193.5	172.1	164.3	159.0	154.8	152.7	154.0	155.3	162.0	166.0	168.2	166.7	163.9	162.1	161.4	161.5	153.9	142.3	128.0	113.5	101.3	91.39	82.05	74.10	66.49	62.48	58.14	47.10	38.98	32.57	27.76	22.90	20.01	17.59	18.61	25.21	42.03	200.9	 1196	 3830	 5449	 2147	14.70	4.922	3.606	3.149	2.720	2.439	2.373	2.212	2.047	2.028	2.071	1.892	1.924	1.655	1.676	1.589	1.545	1.513	1.350	1.326	1.486
495.0	187.0	256.6	270.5	364.6	 1498	 4416	 1549	273.2	272.0	277.9	277.3	255.3	225.2	192.7	170.5	153.6	146.0	139.2	135.8	134.1	135.2	135.4	141.5	145.8	148.1	146.4	145.4	143.1	143.1	143.3	136.5	128.0	115.1	104.4	92.61	84.07	77.08	69.98	62.62	57.03	53.48	49.40	41.91	32.84	29.27	24.95	21.53	18.82	17.62	17.55	20.48	55.74	276.9	872.8	 2570	 6610	 1385	18.38	4.703	3.441	2.826	2.579	2.327	2.171	1.972	1.974	2.078	1.789	1.737	1.593	1.426	1.441	1.360	1.295	1.255	1.353	1.263
500.0	165.1	223.9	250.6	249.9	552.4	 3504	 2714	308.2	251.6	255.7	258.5	231.7	206.4	174.3	156.0	137.7	130.9	125.7	122.5	120.5	119.7	122.2	126.8	130.9	132.5	131.4	130.7	129.6	129.6	131.2	125.8	117.3	106.6	96.33	85.85	78.62	72.30	66.41	59.37	53.79	49.14	47.07	44.14	34.31	29.52	26.11	22.71	20.18	18.20	17.18	16.95	24.00	72.61	205.9	619.1	 3379	 6468	 1158	14.21	3.870	2.994	2.723	2.178	2.091	1.945	1.823	1.917	1.699	1.598	1.547	1.342	1.400	1.331	1.258	1.312	1.157	1.159
505.0	147.1	187.8	236.8	212.8	276.0	 1835	 4377	 1000	237.2	234.2	236.4	214.9	186.8	161.5	142.1	124.2	116.7	113.4	110.8	107.9	109.0	109.7	113.9	117.7	119.1	118.9	118.5	118.7	119.2	119.7	114.6	109.4	98.15	89.85	80.34	73.69	68.04	62.66	55.85	51.76	45.93	43.43	44.05	36.31	30.19	26.50	23.38	21.16	18.82	17.56	16.31	17.25	27.39	57.05	149.4	855.8	 4515	 5759	186.5	7.554	3.379	2.808	2.268	2.208	1.938	1.731	1.687	1.512	1.448	1.498	1.295	1.204	1.226	1.084	1.166	1.216	1.092
510.0	128.4	155.6	203.0	195.0	191.6	619.8	 3291	 2965	409.7	212.8	209.4	190.4	163.4	141.4	124.1	109.5	101.9	98.68	94.79	93.33	94.56	94.66	99.15	102.1	103.5	104.2	102.8	103.0	104.1	104.2	101.7	95.52	87.28	79.49	71.46	66.33	61.23	56.32	51.39	47.43	42.98	39.16	39.06	37.01	31.70	26.68	23.53	21.28	19.32	17.64	16.41	15.94	17.28	23.52	43.33	200.2	 1147	 3506	 4528	772.8	13.38	3.324	2.588	2.330	1.853	1.766	1.659	1.426	1.468	1.306	1.175	1.097	1.059	1.063	1.098	1.038	1.051
515.0	105.4	132.2	160.7	178.7	160.9	256.4	 1203	 4114	 1520	191.8	183.4	165.8	144.5	122.5	105.5	92.96	87.41	84.15	80.24	79.11	79.70	81.68	84.26	86.92	88.01	89.12	87.40	88.58	90.30	89.72	87.25	82.29	75.59	69.54	63.46	58.25	54.18	50.63	46.42	43.34	39.54	35.42	34.27	33.56	32.69	27.75	23.08	21.02	18.80	17.18	16.32	15.21	14.40	15.27	18.87	52.46	261.9	793.0	 1972	 4869	 1343	16.87	3.272	2.328	2.007	1.740	1.571	1.449	1.303	1.226	1.113	1.073	1.069	0.929	0.936	0.895	0.920
520.0	100.9	116.6	139.7	163.8	150.5	160.2	409.1	 3029	 3269	223.7	168.3	150.4	128.9	109.4	93.38	82.66	76.92	74.45	70.88	69.51	71.00	72.82	74.22	76.76	78.15	79.54	77.98	79.55	79.86	79.84	77.97	74.08	67.41	63.28	56.90	53.08	50.13	45.80	42.86	39.59	36.03	33.16	31.87	30.53	30.87	28.42	23.11	20.61	18.24	17.19	16.01	14.60	13.61	12.90	12.91	19.09	64.42	181.9	468.5	 2593	 4822	 1007	11.05	2.588	2.071	1.737	1.656	1.361	1.257	1.047	1.098	1.024	0.944	0.840	0.874	0.868	0.775
525.0	89.81	102.1	120.0	142.5	145.2	131.2	189.0	 1466	 4204	 1028	155.7	135.5	118.0	99.90	84.99	74.79	69.89	66.37	63.72	63.96	63.60	65.24	66.48	69.02	69.86	71.25	69.90	71.77	71.47	71.78	70.57	67.38	61.75	57.90	52.15	47.62	45.68	42.07	39.62	36.36	33.46	30.39	29.66	27.70	27.71	27.38	23.95	19.89	17.89	16.50	15.18	13.87	12.82	12.27	10.84	11.60	20.11	45.28	109.2	656.6	 3282	 4136	177.7	5.502	2.261	1.770	1.697	1.391	1.184	1.024	0.961	1.028	0.872	0.848	0.796	0.757	0.781
530.0	81.22	92.06	102.6	111.8	130.6	119.7	125.8	473.1	 2834	 3028	402.3	119.6	103.9	86.14	74.24	64.94	60.89	58.20	55.21	54.81	54.46	56.12	57.65	59.40	60.15	60.59	60.35	61.28	62.40	62.37	61.28	58.58	53.82	50.16	45.67	42.10	40.25	37.50	35.13	32.37	30.39	27.81	26.78	25.46	24.18	24.55	23.44	20.16	16.91	15.41	14.42	13.03	12.04	11.21	9.994	8.982	9.815	14.36	27.99	149.9	827.2	 2544	 3212	750.7	12.26	2.173	1.709	1.411	1.187	1.063	0.914	0.852	0.734	0.777	0.689	0.670	0.638
535.0	72.75	80.26	91.19	93.10	104.8	115.9	104.3	188.1	967.3	 3487	 1371	118.6	91.50	74.98	63.10	55.61	52.08	50.48	47.12	46.75	46.16	46.80	48.70	49.61	50.91	52.56	51.29	51.02	52.73	52.90	52.62	49.91	46.15	42.99	39.90	36.62	34.54	32.73	30.63	28.57	27.09	24.92	24.37	22.62	21.33	20.57	20.87	19.76	16.35	14.52	13.21	12.04	10.89	10.15	8.983	7.839	7.060	7.018	9.512	36.38	186.9	574.3	 1374	 3506	 1241	16.16	1.975	1.460	1.231	1.160	0.908	0.818	0.718	0.659	0.617	0.601	0.621
540.0	64.93	70.98	86.53	78.82	84.93	107.3	94.27	115.8	311.5	 2325	 3233	167.6	79.76	68.46	57.36	48.59	45.66	43.92	42.36	41.08	41.90	41.08	42.62	44.62	44.70	46.74	45.98	45.19	46.03	47.34	46.81	44.17	41.43	38.93	35.49	32.65	31.33	29.16	27.62	26.25	24.16	22.81	22.41	20.72	19.55	18.47	18.24	18.88	16.68	13.90	12.24	11.33	10.27	9.282	8.369	7.340	6.218	5.291	5.118	10.86	44.24	130.4	325.0	 1831	 3559	202.5	10.20	1.576	1.305	1.110	0.910	0.947	0.714	0.678	0.607	0.594	0.545
545.0	62.15	68.47	74.47	72.07	74.69	91.81	91.95	92.70	141.1	 1071	 3684	 1025	75.28	61.90	51.42	44.14	41.37	39.59	38.27	36.82	36.85	36.66	38.64	40.18	40.11	40.90	40.83	40.76	41.93	43.52	41.92	39.51	36.99	35.02	31.46	29.79	28.48	26.56	24.82	23.74	22.42	20.47	20.28	18.83	17.92	16.83	16.13	16.68	16.45	13.80	11.75	10.66	9.544	8.371	7.647	6.628	5.590	4.666	3.973	4.997	12.22	31.26	75.14	461.5	 2397	 2896	176.9	4.071	1.461	1.150	0.999	0.906	0.703	0.642	0.617	0.576	0.606
550.0	60.46	68.17	68.06	62.38	60.37	72.38	86.89	83.39	93.74	336.2	 2172	 2839	351.8	54.15	45.05	38.25	35.33	34.33	32.11	31.96	31.83	31.75	33.47	33.74	34.88	34.69	34.87	34.92	35.76	36.72	35.56	33.83	31.76	29.79	27.22	25.76	24.30	23.05	21.50	20.98	19.76	18.31	17.82	17.14	16.18	14.95	14.55	13.95	14.17	13.18	11.46	9.628	8.271	7.706	6.926	5.900	5.123	4.396	3.700	3.408	4.968	8.917	18.77	105.1	603.8	 1807	 1994	715.6	11.28	1.523	1.134	0.913	0.707	0.633	0.537	0.502	0.522
555.0	57.02	62.95	64.12	53.13	50.34	55.46	73.12	77.92	72.63	129.6	681.7	 2738	 1703	58.03	38.16	32.93	29.71	28.67	27.03	26.75	26.75	26.94	27.52	27.84	29.05	28.67	28.72	29.00	29.80	29.99	30.02	28.34	26.48	24.49	22.67	21.74	20.59	19.19	18.54	17.76	16.44	15.10	15.17	14.61	13.97	13.37	12.34	11.82	11.38	11.49	10.92	8.974	7.304	6.723	6.088	5.275	4.390	4.031	3.440	2.925	3.050	4.001	5.915	25.12	136.0	407.7	903.4	 2555	 1062	14.86	1.387	0.908	0.673	0.614	0.577	0.486	0.417
560.0	60.83	61.91	56.68	46.80	42.42	47.27	59.64	73.30	63.97	78.05	211.7	 1633	 2787	115.4	34.16	27.43	25.73	24.25	23.04	23.31	22.84	23.19	23.31	24.48	24.46	24.73	25.04	24.98	25.81	26.24	25.32	24.33	22.88	21.54	19.82	18.49	17.79	16.57	15.97	15.29	14.42	13.72	13.23	12.85	12.12	11.55	10.88	10.16	9.523	9.632	10.02	8.562	6.757	5.925	5.395	4.757	4.039	3.578	2.973	2.792	2.493	2.547	2.863	7.217	32.03	92.46	213.6	 1284	 2478	206.0	8.053	1.143	0.747	0.594	0.563	0.548	0.389
565.0	63.94	57.09	51.33	44.35	37.64	39.29	47.09	66.04	61.26	62.54	93.33	677.3	 2762	810.5	31.48	24.64	22.55	21.13	20.19	20.38	19.48	19.89	20.13	20.53	20.84	21.07	21.25	21.34	21.38	22.15	21.99	21.11	19.85	18.19	16.78	15.94	15.20	14.36	13.56	13.15	12.23	11.77	11.85	10.99	10.39	10.25	9.655	9.222	7.966	8.090	8.594	7.971	6.530	5.301	4.722	4.248	3.597	3.250	2.734	2.497	2.428	2.114	2.156	2.997	8.601	21.99	49.38	317.4	 1565	 1679	165.6	2.694	0.873	0.651	0.535	0.528	0.462
570.0	61.13	61.89	48.45	37.97	31.96	32.86	36.15	52.77	60.70	54.92	61.41	203.7	 1436	 2206	309.7	21.67	18.84	17.34	16.55	15.92	15.70	15.82	15.83	16.61	16.90	16.75	17.01	17.00	17.28	17.69	17.33	16.92	15.78	14.47	13.53	12.59	12.23	11.56	11.34	10.75	9.991	9.615	9.507	9.156	8.630	8.183	8.007	7.578	6.636	6.400	6.323	6.435	5.644	4.776	4.002	3.556	2.951	2.757	2.391	2.150	2.111	1.847	1.790	1.954	3.150	6.081	12.25	72.15	387.8	 1079	 1413	501.8	9.795	0.852	0.577	0.476	0.427
575.0	59.56	61.77	46.52	33.19	26.83	25.99	30.05	40.37	55.81	52.02	52.62	81.76	423.7	 1811	 1571	32.23	15.51	14.23	13.18	12.71	12.14	11.86	12.43	13.17	12.82	12.94	12.63	13.28	13.34	13.93	13.51	12.50	12.17	11.04	10.50	9.959	9.386	8.836	8.769	8.512	7.631	7.506	7.759	7.221	6.853	6.542	6.084	6.042	5.587	5.087	4.647	4.714	4.633	4.190	3.475	2.909	2.522	2.262	2.059	1.852	1.617	1.724	1.544	1.442	1.739	2.370	3.767	17.18	87.29	243.3	559.9	 1406	214.6	12.56	0.739	0.503	0.431
580.0	60.73	64.72	49.20	31.15	24.38	23.49	26.02	34.73	49.67	56.63	51.55	55.12	128.8	979.3	 2331	84.73	13.02	11.69	11.00	10.30	9.842	9.775	10.42	10.82	10.94	10.61	10.29	11.19	10.62	11.15	10.85	10.28	9.846	9.284	8.564	8.288	7.751	7.510	7.311	6.918	6.593	6.227	6.183	5.966	5.667	5.477	5.168	5.040	4.556	4.247	3.828	3.593	3.706	3.815	3.165	2.646	2.253	1.994	1.698	1.564	1.473	1.509	1.462	1.291	1.331	1.464	1.686	4.731	20.33	55.16	130.9	681.5	 1261	191.3	4.616	0.685	0.479
585.0	61.52	67.46	47.38	27.85	24.20	20.71	24.11	30.75	42.34	58.45	52.13	50.20	59.39	388.7	 2026	632.2	12.65	10.41	9.505	8.745	8.730	8.136	9.163	9.067	9.152	9.295	9.451	9.235	9.226	9.563	9.306	9.265	8.328	7.714	7.202	6.940	6.514	6.297	6.037	5.713	5.525	5.317	5.253	5.083	4.692	4.581	4.512	4.282	4.020	3.565	3.303	3.042	3.037	3.312	3.021	2.347	1.960	1.735	1.562	1.442	1.355	1.318	1.303	1.197	1.230	1.155	1.263	1.808	5.350	13.18	30.13	167.5	809.5	 1047	28.46	1.662	0.495
590.0	61.92	64.68	47.35	27.37	19.94	17.93	21.54	28.06	37.55	55.01	57.19	51.11	46.58	118.2	932.5	 1817	252.9	9.235	7.990	7.456	7.286	7.091	7.434	7.352	7.552	7.399	7.472	7.455	7.548	7.641	7.572	7.038	6.646	6.183	5.857	5.561	5.373	5.225	4.916	4.674	4.313	4.225	4.296	4.039	3.933	3.852	3.580	3.402	3.193	2.880	2.761	2.525	2.434	2.452	2.522	2.280	1.797	1.537	1.355	1.289	1.197	1.234	1.115	1.117	1.147	1.019	1.052	1.200	1.934	3.699	7.385	38.08	199.4	581.4	749.3	295.8	9.013
595.0	58.63	69.22	45.18	24.87	19.68	17.98	20.63	26.03	33.85	49.49	63.64	55.77	43.46	51.09	257.7	 1289	 1373	21.10	7.312	6.361	6.255	5.964	6.058	5.894	6.009	5.749	5.859	5.665	6.173	6.166	6.150	5.531	5.429	4.977	4.551	4.400	4.468	4.158	3.874	3.791	3.602	3.379	3.367	3.193	3.253	3.168	2.877	2.723	2.640	2.380	2.290	2.050	1.817	1.801	1.890	1.949	1.629	1.265	1.160	1.088	1.097	0.994	0.928	0.955	1.011	0.909	0.926	0.957	1.058	1.471	2.221	9.021	44.86	130.6	283.3	778.6	216.1
600.0	62.17	67.28	43.90	27.18	18.89	17.71	18.26	24.53	33.30	44.97	62.15	59.94	45.81	37.55	73.98	618.4	 1922	66.79	6.641	5.941	5.443	4.781	5.003	5.092	5.133	5.039	5.180	4.901	5.024	5.210	4.923	4.704	4.579	4.381	3.946	3.749	3.710	3.603	3.325	3.158	3.201	2.957	2.830	2.623	2.638	2.902	2.583	2.177	2.309	2.050	1.826	1.720	1.531	1.493	1.474	1.641	1.623	1.239	1.068	1.037	1.045	0.892	0.912	0.922	0.896	0.905	0.901	0.753	0.908	0.876	1.036	2.478	10.48	29.50	65.71	355.4	728.7
605.0	66.01	62.73	44.36	28.03	16.45	16.63	18.48	23.38	32.15	43.74	59.10	61.85	47.95	34.75	32.63	222.3	 1532	872.9	7.963	5.325	4.812	4.430	4.535	4.616	4.324	4.460	4.259	4.244	4.288	4.396	4.299	4.181	3.888	3.953	3.538	3.239	3.208	3.154	2.913	2.778	2.689	2.504	2.457	2.379	2.416	2.480	2.243	2.013	1.959	1.727	1.688	1.477	1.295	1.356	1.274	1.322	1.468	1.328	1.052	0.898	0.899	0.818	0.786	0.908	0.887	0.769	0.837	0.722	0.769	0.753	0.739	1.007	2.685	7.011	15.14	86.38	435.0
610.0	60.32	63.87	46.78	28.46	17.33	14.16	17.40	22.71	31.88	40.78	53.73	63.51	50.65	34.27	23.15	61.82	636.1	 1522	215.7	5.125	4.424	3.935	3.853	3.843	3.857	3.632	3.558	3.638	3.687	3.704	3.813	3.476	3.348	3.160	3.161	2.943	2.763	2.698	2.580	2.452	2.185	2.149	2.094	2.021	1.995	2.085	1.831	1.784	1.646	1.466	1.377	1.288	1.104	1.057	1.076	1.038	1.225	1.130	1.034	0.800	0.752	0.751	0.739	0.801	0.760	0.778	0.812	0.788	0.683	0.710	0.589	0.669	0.989	1.915	3.697	19.65	106.0
615.0	52.69	64.67	46.04	27.36	16.89	13.18	17.29	22.83	31.18	40.54	52.14	59.36	54.65	37.06	22.36	23.20	165.4	948.4	 1160	18.82	3.940	3.356	3.306	3.298	3.326	3.140	3.132	2.911	3.090	3.393	3.034	2.945	2.755	2.527	2.521	2.387	2.399	2.105	2.060	1.958	1.791	1.775	1.775	1.763	1.623	1.638	1.532	1.558	1.368	1.252	1.140	1.009	0.945	0.858	0.842	0.857	0.851	0.903	0.900	0.844	0.682	0.691	0.638	0.761	0.641	0.682	0.704	0.732	0.691	0.661	0.598	0.562	0.555	0.783	1.118	4.655	23.88
620.0	50.76	62.61	42.48	26.38	15.91	14.59	18.66	22.72	31.63	38.60	50.88	55.31	58.05	38.77	22.39	14.89	43.74	413.8	 1536	228.1	4.103	3.165	3.065	2.947	2.870	2.822	2.581	2.685	2.717	2.856	2.619	2.606	2.444	2.283	2.257	2.068	2.076	1.955	1.865	1.795	1.610	1.644	1.550	1.584	1.522	1.455	1.378	1.313	1.340	1.027	0.945	0.954	0.848	0.820	0.773	0.766	0.726	0.729	0.899	0.770	0.744	0.643	0.581	0.635	0.613	0.584	0.559	0.647	0.628	0.642	0.579	0.544	0.451	0.439	0.539	1.314	5.558
625.0	55.14	62.61	45.32	24.75	14.87	14.91	15.88	23.42	30.75	38.66	49.72	55.16	55.79	41.18	23.16	13.65	16.04	138.2	 1152	843.5	5.677	3.321	2.921	2.851	2.648	2.511	2.223	2.380	2.373	2.415	2.289	2.333	1.989	1.994	1.861	1.890	1.691	1.687	1.658	1.607	1.420	1.360	1.355	1.316	1.265	1.366	1.194	1.240	1.141	1.003	0.949	0.847	0.708	0.677	0.748	0.605	0.626	0.562	0.748	0.791	0.727	0.565	0.597	0.621	0.604	0.650	0.553	0.588	0.623	0.755	0.527	0.493	0.378	0.342	0.409	0.517	1.434
630.0	51.25	60.52	44.26	24.66	14.59	14.70	16.21	23.48	30.32	39.99	49.20	53.08	53.50	44.35	25.32	14.02	10.20	36.90	438.7	 1276	194.1	3.442	2.647	2.625	2.318	2.238	2.143	1.963	1.976	2.041	1.930	1.982	1.712	1.787	1.623	1.523	1.521	1.425	1.348	1.315	1.420	1.209	1.162	1.108	1.163	1.117	1.003	1.091	0.975	0.881	0.798	0.711	0.626	0.626	0.565	0.533	0.557	0.517	0.567	0.649	0.620	0.600	0.529	0.542	0.585	0.603	0.576	0.549	0.555	0.563	0.551	0.466	0.419	0.337	0.334	0.335	0.532
635.0	50.04	61.09	44.66	23.85	15.38	15.97	16.01	22.60	32.80	41.56	49.23	52.70	51.50	44.98	30.22	15.13	9.718	12.90	109.7	708.4	 1001	17.27	2.717	2.267	2.069	2.002	1.898	1.762	1.819	1.591	1.753	1.584	1.598	1.505	1.484	1.392	1.388	1.261	1.175	1.190	1.133	1.119	1.010	0.908	0.971	0.955	0.890	0.910	0.806	0.830	0.654	0.652	0.581	0.529	0.528	0.520	0.477	0.466	0.429	0.560	0.576	0.596	0.484	0.559	0.546	0.534	0.551	0.515	0.510	0.560	0.450	0.476	0.365	0.316	0.299	0.282	0.349
640.0	54.89	58.18	39.57	24.65	13.71	17.11	16.14	21.50	31.70	39.32	49.34	53.65	51.84	42.92	33.82	16.81	9.745	7.834	28.61	274.8	 1278	200.0	2.906	2.120	2.025	2.035	1.931	1.598	1.705	1.461	1.590	1.510	1.412	1.213	1.279	1.125	1.213	1.240	1.067	1.016	0.919	1.106	1.059	0.847	0.861	0.849	0.854	0.771	0.733	0.743	0.680	0.587	0.560	0.400	0.527	0.476	0.512	0.466	0.469	0.429	0.474	0.552	0.554	0.563	0.558	0.530	0.566	0.573	0.515	0.514	0.442	0.460	0.405	0.364	0.255	0.268	0.288
645.0	53.66	60.18	40.49	24.04	15.67	15.49	16.84	23.19	31.57	41.08	49.70	53.64	51.37	41.70	34.55	17.88	10.14	6.877	10.20	82.93	899.9	716.1	5.115	2.354	1.986	1.898	1.677	1.563	1.525	1.406	1.481	1.238	1.172	1.204	1.199	1.200	1.118	1.020	0.985	1.015	0.882	0.885	1.051	0.815	0.816	0.789	0.786	0.743	0.674	0.629	0.562	0.496	0.528	0.384	0.500	0.401	0.441	0.381	0.358	0.365	0.459	0.482	0.489	0.572	0.484	0.501	0.547	0.445	0.516	0.475	0.408	0.468	0.452	0.394	0.332	0.264	0.257
650.0	52.95	57.71	43.85	25.32	15.78	14.71	18.34	24.18	31.62	39.14	48.44	50.50	50.28	40.71	33.58	20.47	10.07	6.475	5.890	23.06	399.8	 1135	37.43	2.245	2.046	1.772	1.633	1.583	1.500	1.316	1.457	1.368	1.101	1.060	0.995	1.002	1.047	0.927	0.874	0.917	0.844	0.834	1.040	0.870	0.762	0.728	0.669	0.789	0.704	0.578	0.570	0.480	0.440	0.433	0.382	0.394	0.416	0.382	0.364	0.374	0.407	0.463	0.493	0.514	0.535	0.469	0.435	0.496	0.495	0.468	0.472	0.400	0.397	0.400	0.300	0.255	0.270
