Sample:	'1
File name:	G01006ÖÂ·áÂ·.FD3
Run date:	'10:41:42, 02/28/2024
Operator:	Administrator
Comment:	'

Instrument
Model:	F-2700 FL Spectrophotometer
Serial number:	23B8-004
ROM Version:	4J14000 07

Instrument parameters
Measurement type:	3-D scan
Data mode:	Fluorescence
EX  Start WL:	220.0 nm
EX  End WL:	600.0 nm
EX Sampling interval:	5.0 nm
EM  Start WL:	230.0 nm
EM  End WL:	650.0 nm
EM Sampling interval:	5.0 nm
Scan speed:	12000 nm/min
EX Slit:	5.0 nm
EM Slit:	5.0 nm
PMT Voltage:	700 V
Response:	Auto 
Corrected spectra:	Off
Contour interval:	50.000

Peak integration
Integration method:	Rectangular
Sensitivity:	1
Threshold:	1.000

Peaks
No.	ApexEX/EM(nm)	Height(Data)
1	225.0/580.0	83.68
2	225.0/600.0	70.46
3	225.0/620.0	64.21
4	230.0/340.0	2054
5	230.0/615.0	62.16
6	235.0/375.0	1415
7	240.0/380.0	1457
8	250.0/545.0	207.5
9	255.0/280.0	604.1
10	255.0/560.0	169.3
11	260.0/285.0	633.9
12	260.0/570.0	140.9
13	265.0/585.0	133.5
14	270.0/380.0	1497
15	270.0/595.0	122.9
16	275.0/330.0	2046
17	275.0/610.0	121.2
18	280.0/625.0	117.0
19	285.0/635.0	93.13
20	335.0/380.0	480.5
21	460.0/335.0	7.721
22	520.0/285.0	4.213
23	560.0/340.0	9.853
24	565.0/325.0	10.32
25	570.0/315.0	10.60
26	580.0/320.0	10.18

Data points
	220.0	225.0	230.0	235.0	240.0	245.0	250.0	255.0	260.0	265.0	270.0	275.0	280.0	285.0	290.0	295.0	300.0	305.0	310.0	315.0	320.0	325.0	330.0	335.0	340.0	345.0	350.0	355.0	360.0	365.0	370.0	375.0	380.0	385.0	390.0	395.0	400.0	405.0	410.0	415.0	420.0	425.0	430.0	435.0	440.0	445.0	450.0	455.0	460.0	465.0	470.0	475.0	480.0	485.0	490.0	495.0	500.0	505.0	510.0	515.0	520.0	525.0	530.0	535.0	540.0	545.0	550.0	555.0	560.0	565.0	570.0	575.0	580.0	585.0	590.0	595.0	600.0
230.0	29.94	1735	5474	2044	67.63	7.601	5.842	5.103	5.094	4.480	4.411	4.412	4.007	3.646	3.144	2.635	2.289	2.106	2.104	1.742	1.547	1.438	1.205	1.023	1.036	0.969	0.745	0.817	0.697	0.682	0.683	0.649	0.696	0.779	0.704	0.569	0.549	0.493	0.495	0.445	0.436	0.571	0.502	0.436	0.403	0.393	2.056	11.06	21.73	17.20	6.491	1.195	0.315	0.264	0.252	0.230	0.216	0.185	0.185	0.133	0.120	0.125	0.111	0.127	0.110	0.080	0.082	0.066	0.058	0.053	0.018	0.049	0.015	0.008	0.015	0.010	0.030
235.0	69.10	460.1	3192	6652	2706	139.7	8.092	7.877	6.312	5.282	4.840	5.493	4.148	3.785	3.550	2.711	2.406	2.372	2.222	1.543	1.618	1.394	1.260	1.276	1.010	0.900	0.754	0.905	0.610	0.701	0.643	0.719	0.700	0.840	0.600	0.525	0.571	0.475	0.450	0.500	0.402	0.466	0.442	0.581	0.558	0.408	0.725	2.908	7.871	15.98	24.23	22.98	13.52	2.627	0.302	0.256	0.295	0.217	0.184	0.193	0.179	0.107	0.163	0.148	0.085	0.094	0.072	0.060	0.127	0.026	0.027	0.033	0.017	0.058	0.033	0.024	0.010
240.0	107.0	172.6	888.5	5184	8355	2251	63.27	10.22	8.954	6.846	5.274	6.017	4.993	3.768	3.548	3.073	2.592	2.527	2.187	1.842	1.668	1.734	1.246	1.260	1.081	0.998	0.778	0.786	0.717	0.846	0.659	0.705	0.662	0.664	0.753	0.701	0.708	0.537	0.412	0.393	0.335	0.384	0.445	0.514	0.650	0.684	0.595	1.000	2.087	4.516	12.22	31.01	43.05	22.86	11.16	1.391	0.251	0.287	0.156	0.175	0.199	0.160	0.129	0.126	0.097	0.147	0.066	0.089	0.089	0.114	0.078	0.064	0.042	0.016	0.034	0.066	0.002
245.0	79.80	178.9	260.7	1632	8123	9233	389.5	28.74	11.54	9.976	6.476	6.992	5.790	4.565	4.129	3.523	2.759	2.709	2.313	1.840	1.868	1.812	1.524	1.166	1.203	0.996	0.960	0.964	0.752	0.718	0.727	0.760	0.644	0.715	0.777	0.789	0.595	0.674	0.532	0.495	0.541	0.363	0.412	0.511	0.491	0.693	0.861	0.920	0.885	1.306	3.072	9.777	27.85	47.71	53.10	20.75	6.564	0.593	0.293	0.241	0.210	0.125	0.146	0.160	0.196	0.113	0.107	0.100	0.046	0.091	0.047	0.081	0.033	0.014	0.053	0.050	0.059
250.0	37.01	124.0	234.5	459.3	2403	7891	9999.9	4318	112.3	14.76	11.69	9.033	7.331	6.163	4.616	3.974	3.278	2.931	2.539	2.237	2.059	1.777	1.515	1.351	1.412	1.030	1.061	1.043	0.862	0.818	0.759	0.839	0.724	0.717	0.759	0.725	0.653	0.673	0.559	0.469	0.496	0.447	0.435	0.418	0.482	0.484	0.599	0.759	1.055	1.100	1.229	2.524	6.718	14.65	29.63	43.33	44.32	51.29	15.76	6.799	0.603	0.203	0.282	0.174	0.206	0.196	0.159	0.118	0.100	0.083	0.096	0.056	0.053	0.052	0.067	0.024	0.054
255.0	24.57	44.76	145.8	343.5	630.4	1895	7061	9999.9	2132	132.4	19.41	13.75	10.75	7.264	6.046	5.037	4.078	3.749	2.883	2.529	2.330	1.997	1.673	1.450	1.478	1.335	0.980	1.128	1.092	1.026	0.826	0.892	0.826	0.738	0.761	0.762	0.679	0.630	0.626	0.566	0.567	0.514	0.529	0.474	0.528	0.403	0.488	0.529	0.642	0.938	1.427	1.683	2.083	3.566	6.924	10.31	16.80	49.58	91.17	96.22	24.15	7.374	0.507	0.286	0.266	0.281	0.232	0.142	0.160	0.105	0.128	0.055	0.110	0.098	0.078	0.057	0.063
260.0	28.27	29.22	60.91	246.2	381.2	483.3	1947	9999.9	9999.9	1748	88.02	20.71	14.49	10.62	6.975	6.225	4.587	4.325	3.234	2.954	2.654	2.135	1.816	1.447	1.622	1.510	1.302	1.088	1.057	1.012	0.842	0.937	0.774	0.807	0.823	0.661	0.598	0.707	0.689	0.610	0.599	0.527	0.605	0.548	0.547	0.473	0.435	0.465	0.477	0.573	0.900	1.778	2.031	1.698	1.922	2.610	4.273	12.80	37.45	88.14	124.0	98.17	19.98	3.409	0.321	0.326	0.221	0.145	0.176	0.116	0.126	0.131	0.107	0.088	0.133	0.079	0.044
265.0	33.95	34.74	35.43	108.7	349.9	305.6	482.3	3182	9999.9	9999.9	1329	43.68	20.08	12.21	9.067	7.455	5.827	4.620	3.671	3.345	2.962	2.447	1.787	1.745	1.633	1.540	1.303	1.272	1.205	1.042	1.026	0.993	1.043	0.804	0.958	0.738	0.704	0.712	0.715	0.693	0.534	0.544	0.554	0.554	0.533	0.499	0.497	0.424	0.435	0.402	0.501	0.910	1.846	2.315	1.688	1.187	1.362	3.306	8.966	24.46	63.68	129.3	148.9	29.83	13.19	1.219	0.382	0.296	0.221	0.158	0.194	0.169	0.173	0.160	0.148	0.127	0.116
270.0	56.13	58.16	46.08	52.15	155.9	346.5	342.5	785.6	3439	9999.9	9999.9	5101	82.82	22.02	14.95	10.47	7.664	6.163	4.577	4.071	3.538	2.832	2.294	2.105	1.883	1.745	1.468	1.473	1.327	1.276	1.237	1.204	1.137	0.970	0.971	0.933	0.824	0.742	0.741	0.682	0.624	0.661	0.602	0.642	0.572	0.635	0.609	0.531	0.534	0.466	0.417	0.539	0.843	1.276	1.787	2.158	2.099	1.545	2.533	5.976	15.09	35.59	69.70	100.6	138.3	110.3	71.12	9.963	1.329	0.296	0.313	0.278	0.228	0.223	0.214	0.140	0.156
275.0	143.7	146.2	116.8	75.94	75.99	158.0	452.9	441.7	864.3	2506	9999.9	9999.9	7262	94.51	23.94	16.46	10.47	8.037	6.224	4.960	4.563	3.197	2.662	2.362	2.313	2.072	1.932	1.784	1.458	1.485	1.584	1.248	1.262	1.135	1.078	1.042	1.107	1.034	0.898	0.708	0.719	0.833	0.854	0.880	0.937	0.992	0.856	0.881	0.819	0.738	0.522	0.510	0.659	0.676	0.783	1.121	2.213	3.095	2.685	2.174	4.009	8.598	16.21	23.44	39.24	85.83	187.9	215.9	30.17	13.33	0.964	0.471	0.407	0.394	0.227	0.248	0.247
280.0	236.1	262.6	213.9	120.8	76.13	91.05	274.2	604.1	410.8	705.4	2859	9999.9	9999.9	1048	66.34	23.17	14.56	11.24	8.543	6.426	5.104	4.197	3.370	2.834	2.485	2.358	1.981	2.005	1.735	1.682	1.583	1.410	1.369	1.373	1.256	1.298	1.165	1.225	1.183	0.990	0.896	0.987	0.955	1.201	1.160	1.246	1.217	1.258	1.176	1.029	0.685	0.663	0.721	0.662	0.665	0.780	1.070	2.186	3.399	3.412	2.453	2.753	4.430	6.089	9.789	21.34	61.55	154.1	222.3	198.6	25.83	8.326	0.609	0.476	0.416	0.333	0.218
285.0	328.8	368.7	339.9	197.7	106.2	93.49	158.5	483.7	633.9	372.3	859.2	3571	9999.9	9999.9	785.8	42.51	21.89	15.22	10.22	7.693	6.022	4.900	3.982	3.367	2.686	2.622	2.385	2.037	1.830	1.759	1.850	1.499	1.630	1.421	1.525	1.500	1.404	1.290	1.211	1.127	1.044	1.128	1.148	1.391	1.381	1.675	1.751	1.673	1.587	1.272	1.024	0.893	0.848	0.799	0.711	0.797	0.893	1.268	2.017	3.760	4.213	3.125	2.261	2.450	3.269	6.101	14.94	38.96	90.96	198.1	245.8	169.8	20.87	3.225	0.639	0.420	0.357
290.0	460.2	561.9	516.9	320.8	173.5	134.0	160.4	289.5	623.4	747.2	612.5	1157	3852	9999.9	9999.9	3092	58.04	23.65	15.13	11.28	8.259	6.423	4.722	4.069	3.516	3.003	2.805	2.358	2.147	2.117	2.020	1.733	1.639	1.687	1.594	1.582	1.549	1.593	1.362	1.336	1.320	1.467	1.407	1.630	1.773	2.171	2.266	2.326	2.258	1.798	1.549	1.343	1.171	1.040	0.907	0.948	1.013	1.107	1.440	2.088	2.973	4.033	4.528	4.038	3.044	3.340	5.249	10.64	22.35	50.19	94.33	156.0	188.9	153.2	119.8	14.96	4.848
295.0	574.1	757.4	708.0	452.3	267.1	196.8	219.2	290.3	452.0	857.1	1107	855.1	1337	2684	9999.9	9999.9	4823	66.46	24.93	16.51	11.42	8.669	6.327	5.204	4.007	3.800	3.181	2.911	2.838	2.558	2.425	1.962	1.823	1.842	1.825	1.866	1.999	1.657	1.753	1.553	1.540	1.683	1.769	1.900	2.176	2.608	2.783	3.157	2.752	2.260	2.025	1.770	1.458	1.380	1.173	1.327	1.243	1.347	1.518	1.832	2.201	2.867	3.651	5.398	6.260	5.270	4.423	5.084	7.642	13.60	23.28	36.70	47.74	84.36	211.5	262.9	193.7
300.0	642.3	896.5	846.8	554.1	338.2	267.0	290.9	363.2	495.4	759.6	1378	1215	983.6	1094	2914	9999.9	9999.9	3613	52.98	23.53	15.48	11.44	7.865	6.464	5.455	4.668	3.566	3.362	2.954	2.695	2.656	2.140	2.095	1.966	2.098	1.912	2.067	1.845	1.862	1.814	1.703	1.710	1.867	2.094	2.476	3.018	2.980	3.550	3.104	2.704	2.459	2.128	1.870	1.640	1.519	1.449	1.593	1.737	1.876	2.290	2.705	2.947	3.565	4.419	6.008	7.726	6.918	5.757	5.480	6.301	8.377	11.00	13.04	21.27	58.48	138.4	285.1
305.0	727.7	1017	997.0	668.1	411.8	342.8	384.1	476.6	620.4	854.1	1332	1685	1251	943.4	1116	3544	9999.9	9999.9	533.9	38.35	21.11	14.48	10.16	7.841	6.262	5.269	4.527	3.794	2.924	2.853	2.573	2.481	2.192	2.062	1.980	2.012	2.227	2.091	1.787	1.857	1.958	1.926	2.080	2.370	2.782	3.012	3.431	4.005	3.859	3.458	2.815	2.613	2.266	2.039	1.746	1.767	2.101	2.204	2.432	2.661	3.048	3.340	4.104	4.648	5.792	7.222	8.751	9.059	7.305	5.919	6.058	6.219	6.239	7.637	15.26	33.78	90.41
310.0	785.7	1147	1144	785.4	504.5	429.7	486.3	610.3	792.4	1042	1415	1769	1854	1306	925.5	1183	3801	9999.9	9999.9	8113	46.43	22.30	13.90	10.67	7.790	6.258	5.231	4.566	3.719	3.637	3.061	2.655	2.356	2.360	2.195	2.071	2.167	2.103	2.085	2.161	1.986	2.047	2.191	2.488	2.871	3.371	3.800	4.720	4.570	3.868	3.147	3.053	2.644	2.428	2.209	2.269	2.593	2.834	3.052	3.406	3.788	4.323	5.283	5.614	6.305	7.143	8.084	9.265	9.815	9.595	8.235	6.938	5.926	5.646	6.383	9.872	22.16
315.0	873.9	1324	1294	890.1	578.1	483.3	574.5	714.8	933.0	1202	1595	1837	1954	1842	1086	776.4	1119	2499	9999.9	9999.9	3703	51.42	21.46	14.25	10.24	7.965	6.217	5.306	4.628	4.018	3.539	2.927	2.809	2.561	2.340	2.224	2.304	2.189	2.209	2.128	2.158	2.374	2.364	2.702	3.114	3.872	4.331	5.091	4.949	4.335	3.556	3.524	3.012	2.342	2.589	2.714	2.880	3.259	3.561	3.988	4.419	4.936	5.816	6.623	7.132	8.125	8.818	9.198	9.300	10.12	10.60	10.30	7.898	6.174	5.358	5.401	7.047
320.0	934.4	1480	1490	1003	635.5	538.3	631.9	780.2	1008	1316	1700	1946	1958	1931	1486	789.0	570.5	744.3	2681	9999.9	9999.9	2938	40.01	19.18	13.21	9.713	7.286	6.117	5.206	4.195	3.990	3.425	3.004	2.639	2.366	2.607	2.416	2.453	2.453	2.215	2.258	2.368	2.629	2.812	3.315	4.364	5.141	5.858	5.729	4.670	3.968	3.773	3.139	2.806	2.687	2.724	3.095	3.234	3.922	4.257	4.900	5.416	6.108	7.129	7.480	8.656	9.406	9.651	9.701	9.991	10.11	10.12	10.18	8.553	6.231	4.695	4.439
325.0	1057	1643	1735	1146	698.6	586.4	669.0	822.5	1057	1381	1792	2036	2023	1874	1654	932.3	498.4	385.3	736.0	3215	9999.9	9999.9	424.2	30.65	16.50	11.80	8.407	7.182	5.797	5.095	4.417	3.834	3.643	2.743	2.554	2.479	2.645	2.531	2.279	2.207	2.338	2.412	2.556	3.169	3.726	4.695	5.476	6.457	6.495	5.445	4.442	4.446	3.420	3.048	2.916	2.881	3.358	3.577	4.024	4.438	5.194	5.689	6.556	7.404	7.952	8.830	9.663	9.513	9.783	10.32	9.703	9.769	9.314	10.04	7.870	5.507	4.419
330.0	1058	1768	1914	1348	827.4	646.3	694.7	846.6	1080	1397	1805	2046	2040	1855	1539	1135	652.8	356.1	334.7	836.5	3412	9999.9	9999.9	7265	36.91	17.37	11.54	8.940	6.864	5.814	4.774	4.007	3.834	3.117	2.944	2.593	2.488	2.563	2.459	2.278	2.359	2.568	2.717	3.186	3.799	4.726	5.831	6.901	7.139	5.955	5.016	4.851	3.934	3.391	3.248	3.061	3.378	3.703	4.188	4.597	5.273	5.623	6.598	7.408	8.144	9.023	9.619	9.733	9.787	10.12	10.35	9.613	8.904	9.035	7.745	6.939	5.924
335.0	1043	1815	1999	1491	986.6	745.6	732.4	862.4	1087	1404	1800	1999	2003	1833	1477	1058	814.2	489.0	287.2	337.5	871.2	2393	9436	9999.9	3138	44.42	16.99	12.07	8.983	7.281	5.711	4.746	4.050	3.764	3.572	2.952	2.825	2.691	2.586	2.438	2.445	2.699	2.807	3.345	3.984	5.044	6.100	7.423	7.721	6.585	5.553	5.395	4.770	4.095	3.715	3.394	3.602	3.991	4.175	4.778	5.316	5.783	6.385	7.410	8.040	8.646	9.607	9.616	9.813	10.07	10.18	9.435	8.839	8.561	7.285	6.146	5.890
340.0	1041	1824	2054	1580	1111	835.2	779.6	892.1	1106	1411	1762	1930	1956	1796	1455	1020	756.5	628.1	345.4	252.6	329.6	636.9	2446	9999.9	9999.9	2606	34.66	15.76	11.01	8.668	6.705	5.701	4.640	4.220	3.584	3.120	2.887	2.876	2.620	2.422	2.509	2.837	2.900	3.268	3.917	4.912	5.803	7.500	7.566	6.767	5.797	5.935	5.275	4.531	4.042	3.857	3.735	4.239	4.439	4.940	5.222	5.878	6.464	7.597	7.730	8.558	9.315	9.335	9.853	9.821	9.817	9.478	8.999	8.473	7.145	5.836	5.414
345.0	985.1	1756	1984	1611	1174	915.5	849.5	924.6	1136	1425	1714	1859	1873	1737	1413	1006	698.8	630.6	477.6	273.3	231.8	269.8	643.9	3082	9999.9	9999.9	384.5	25.36	13.67	10.09	7.819	6.272	4.904	4.346	3.560	3.447	3.132	2.714	2.591	2.337	2.379	2.623	2.967	3.151	3.839	4.851	5.667	7.032	7.087	6.687	5.742	5.911	5.568	4.951	4.588	4.246	3.991	4.392	4.581	4.955	5.235	6.106	6.918	7.617	7.682	8.429	9.015	8.891	9.230	9.567	9.229	8.986	8.693	8.288	7.031	5.966	5.167
350.0	926.2	1558	1832	1579	1264	1037	980.2	1046	1212	1446	1656	1744	1735	1607	1343	989.7	701.8	566.1	522.5	402.0	258.3	214.1	266.8	788.8	3284	9999.9	9999.9	5971	32.51	14.22	10.05	7.385	5.447	4.501	3.854	3.448	3.123	2.888	2.622	2.580	2.442	2.415	2.685	2.941	3.452	4.474	5.189	6.364	6.762	6.321	5.765	5.992	5.581	5.280	4.976	4.722	4.614	4.635	5.089	5.485	5.854	6.164	7.135	7.363	7.598	8.039	8.409	8.298	8.584	8.675	8.779	8.357	8.001	7.572	6.623	5.949	5.208
355.0	796.6	1382	1668	1522	1291	1132	1063	1113	1259	1442	1578	1621	1584	1477	1253	955.5	713.8	557.4	475.1	468.5	362.5	240.0	209.6	296.0	823.7	2375	8476	9999.9	2917	39.71	14.50	9.561	6.931	5.649	4.430	3.672	3.360	3.192	2.527	2.616	2.556	2.362	2.494	2.660	3.284	3.869	4.568	5.846	6.202	5.665	5.478	6.059	5.737	5.753	5.208	4.931	5.021	5.059	5.513	5.760	6.081	6.460	6.879	7.244	7.271	7.089	7.419	7.777	7.336	8.224	7.704	7.597	7.566	7.091	6.272	5.760	5.200
360.0	734.3	1280	1549	1473	1302	1184	1107	1136	1260	1423	1516	1537	1474	1381	1182	922.5	711.7	566.3	469.2	435.7	433.6	296.9	218.5	203.6	288.1	610.4	2206	9999.9	9999.9	2443	32.42	13.12	9.018	6.639	5.070	4.023	3.816	3.316	2.695	2.613	2.648	2.338	2.395	2.602	3.145	3.956	4.353	5.326	5.767	5.342	5.021	5.877	5.579	5.534	5.470	4.798	5.287	5.272	5.544	5.448	5.941	6.604	6.940	7.058	7.184	7.180	6.962	7.162	7.190	7.549	7.254	7.055	7.286	6.782	5.852	5.300	4.892
365.0	678.0	1169	1427	1405	1318	1199	1154	1161	1286	1412	1488	1472	1405	1299	1132	909.4	719.3	587.0	490.2	426.0	428.0	385.0	257.1	205.5	190.1	232.6	564.9	2975	9999.9	9999.9	366.5	23.39	11.57	8.314	6.406	4.484	3.952	3.342	2.894	2.657	2.638	2.387	2.390	2.648	3.051	3.883	4.168	4.950	5.584	5.083	4.784	5.906	5.523	5.581	5.672	4.984	5.129	5.330	5.353	5.851	6.097	6.644	6.742	7.002	7.189	7.041	7.056	7.029	7.085	7.212	6.853	6.784	6.648	6.343	5.982	5.313	4.905
370.0	669.9	1086	1362	1389	1348	1261	1206	1221	1306	1427	1489	1463	1373	1240	1086	897.2	735.5	617.8	532.3	459.3	422.4	421.5	370.9	269.2	214.0	191.2	231.8	743.1	3186	9999.9	9999.9	6038	29.95	12.64	8.894	5.953	4.824	3.981	3.343	2.968	2.864	2.684	2.627	2.684	3.096	3.467	3.994	4.727	5.149	4.971	4.826	5.832	5.982	5.728	5.648	5.419	5.573	5.643	5.724	6.148	6.320	6.646	7.062	7.190	6.955	7.207	7.057	7.132	6.946	6.928	6.733	6.519	6.135	6.261	5.775	5.415	5.204
375.0	663.0	1054	1322	1415	1407	1353	1260	1268	1327	1441	1491	1477	1374	1205	1058	889.6	755.1	655.1	579.3	513.6	465.1	440.5	457.8	407.2	298.6	254.4	225.3	295.7	807.2	2394	9292	9999.9	2578	35.76	13.51	8.826	6.405	4.894	3.938	3.560	3.274	3.030	2.946	2.777	3.113	3.336	3.830	4.528	4.905	4.798	4.746	5.957	6.393	6.117	5.837	5.580	5.696	5.700	5.837	6.333	6.394	6.678	6.824	7.342	7.122	7.159	6.888	7.252	7.039	6.844	6.460	6.498	6.416	5.930	5.705	5.409	5.245
380.0	644.4	1015	1269	1405	1457	1384	1277	1283	1333	1436	1497	1478	1390	1191	1038	889.3	765.4	672.2	600.9	544.5	500.9	467.4	465.4	480.5	384.9	307.3	267.7	233.2	308.0	634.5	2507	9999.9	9999.9	2154	28.50	11.61	8.870	6.458	4.850	4.129	3.563	3.163	2.940	2.878	3.389	3.504	3.874	4.725	4.950	4.794	4.600	6.074	6.540	6.120	6.294	5.818	5.919	6.086	5.948	6.362	6.405	6.629	7.119	7.338	7.209	7.222	6.769	7.217	6.857	6.940	6.563	6.202	6.292	6.095	5.353	5.509	5.333
385.0	633.4	966.2	1244	1351	1432	1386	1276	1263	1321	1399	1452	1425	1343	1160	1013	869.2	763.7	675.8	618.1	566.7	518.8	481.5	457.2	466.1	445.0	340.5	283.9	228.6	207.6	254.1	651.0	3178	9999.9	9999.9	1658	20.65	10.74	8.156	6.032	4.839	4.173	3.473	3.280	3.244	3.406	3.532	3.801	4.667	4.787	4.564	4.507	6.125	6.417	6.299	6.136	6.097	5.952	6.121	6.192	6.216	6.460	6.812	6.718	6.879	6.928	7.146	6.804	7.009	6.903	7.013	6.499	6.286	6.112	6.052	5.576	5.383	4.942
390.0	593.1	911.9	1163	1284	1360	1355	1247	1252	1272	1331	1371	1340	1262	1117	971.2	845.9	752.2	677.5	620.3	575.2	531.1	493.2	461.4	440.5	440.7	402.8	309.1	241.7	196.4	180.5	243.6	785.8	3345	9999.9	9999.9	5739	25.90	11.58	8.088	6.305	4.888	4.087	3.654	3.412	3.519	3.727	3.955	4.469	4.615	4.517	4.444	5.790	6.034	6.202	6.274	6.034	6.297	6.054	6.254	6.025	6.378	6.712	6.527	6.698	6.645	6.746	6.309	6.579	6.237	6.591	6.211	6.069	5.639	5.914	5.213	5.319	5.018
395.0	578.8	858.2	1099	1232	1336	1320	1213	1213	1207	1252	1283	1274	1195	1051	927.6	807.7	724.4	671.5	615.1	577.8	534.5	501.6	472.2	450.1	423.5	427.3	382.0	279.9	218.1	183.0	168.1	260.3	804.3	2388	9497	9999.9	2196	30.94	11.81	8.847	6.224	4.776	4.244	3.998	4.133	3.759	4.010	4.672	4.689	4.620	4.415	5.460	5.708	5.961	6.255	5.933	5.941	5.890	5.888	5.930	5.858	6.187	6.254	6.050	6.263	6.336	6.029	6.144	6.157	6.128	5.798	5.707	5.485	5.417	4.960	5.116	4.767
400.0	538.1	814.6	1033	1169	1266	1240	1174	1166	1174	1186	1214	1200	1129	1005	880.4	773.9	708.8	651.4	602.8	563.4	533.1	503.0	477.0	454.1	420.6	407.0	412.9	323.9	237.8	198.8	163.2	154.6	247.5	582.0	2525	9999.9	9999.9	1931	25.60	11.09	7.317	5.948	4.788	4.313	3.973	3.884	3.967	4.562	4.635	4.376	4.353	5.532	5.784	5.740	5.856	5.748	5.762	5.822	5.920	5.608	5.863	5.801	6.029	6.070	6.015	5.730	5.901	6.239	5.941	5.877	5.573	5.414	5.183	5.162	4.820	5.067	4.880
405.0	514.0	790.5	994.2	1110	1211	1186	1150	1137	1115	1130	1144	1124	1068	947.8	840.2	743.3	678.0	628.9	587.7	553.6	517.7	493.5	465.5	445.5	415.6	387.7	387.2	359.1	267.3	211.5	174.1	140.2	131.6	185.1	607.8	3065	9999.9	9999.9	1507	19.83	9.322	7.210	5.595	4.616	4.451	4.149	4.025	4.363	4.363	3.966	4.359	5.394	5.516	5.703	5.918	5.528	5.613	5.587	5.556	5.502	5.498	5.321	5.648	5.777	5.705	5.617	5.831	5.907	5.892	5.511	5.445	5.145	5.059	4.949	4.641	4.764	4.471
410.0	486.2	732.8	912.8	1032	1114	1122	1119	1092	1077	1079	1077	1051	981.2	886.9	784.8	700.0	640.8	596.4	559.6	526.9	496.2	471.8	448.7	425.8	404.2	375.9	353.7	343.6	309.8	238.6	187.7	148.6	119.2	109.1	186.8	726.3	3133	9999.9	9999.9	5263	23.73	9.774	7.107	5.618	4.810	4.561	4.083	4.135	4.142	4.081	4.009	4.947	5.134	5.142	5.448	5.277	5.630	5.333	5.365	5.445	5.332	5.412	5.626	5.303	5.392	5.019	5.178	5.244	5.309	5.353	4.828	4.666	4.799	4.597	4.337	4.464	4.421
415.0	465.6	678.5	857.7	951.2	1045	1085	1072	1078	1048	1040	1026	984.5	917.6	835.6	744.2	658.5	606.1	561.9	529.5	499.1	470.8	449.4	431.8	414.2	393.7	368.7	343.3	319.0	312.8	283.5	212.9	166.0	131.3	105.1	103.4	210.1	735.7	2347	7584	9999.9	2031	29.01	9.889	7.240	5.637	5.054	4.629	4.350	4.252	4.065	3.926	4.777	4.914	4.978	5.238	5.371	5.555	5.191	5.062	5.484	5.309	5.144	5.497	5.087	5.028	4.523	4.826	4.668	4.825	5.026	4.695	4.385	4.494	4.446	4.372	4.119	4.587
420.0	440.2	648.8	810.4	925.7	993.9	1033	1046	1064	1018	1001	993.4	932.6	875.0	789.1	702.7	630.8	577.0	538.9	506.3	478.1	457.7	433.5	419.0	402.9	383.6	367.3	341.2	310.9	298.3	299.5	245.0	181.6	143.8	112.7	92.19	100.9	206.1	558.1	1958	9861	9999.9	1837	23.76	9.218	6.981	5.749	4.877	4.446	4.481	4.088	4.021	4.639	4.843	4.685	4.894	5.073	5.156	5.218	5.333	5.327	5.351	5.305	5.042	4.944	5.030	4.891	4.625	4.695	4.594	4.882	4.332	4.197	4.149	4.307	4.094	3.903	4.242
425.0	424.2	609.3	774.1	905.6	935.1	1011	1020	1035	997.5	994.5	968.3	909.2	834.8	758.7	668.8	601.5	551.3	519.4	485.2	456.4	435.8	417.1	405.3	391.9	377.2	358.8	338.9	312.6	293.5	289.2	271.3	204.5	155.5	121.3	96.00	81.77	91.50	160.0	467.5	2773	9999.9	9999.9	1454	18.13	8.845	6.375	5.194	4.647	4.519	4.223	3.947	4.610	4.864	4.771	4.931	4.965	5.196	5.158	5.169	5.013	5.117	5.221	5.116	4.810	5.016	5.015	4.650	4.453	4.347	4.674	4.150	3.980	4.018	4.266	3.839	3.997	3.894
430.0	509.5	584.7	745.1	836.4	899.4	956.9	982.6	1010	987.4	969.9	944.5	870.5	794.5	715.9	637.5	568.3	522.7	491.0	460.9	433.6	415.9	393.4	387.5	377.7	365.0	352.0	335.8	314.8	293.3	278.0	269.0	239.2	178.6	135.6	106.5	85.71	72.17	75.47	135.0	644.5	2862	9660	9999.9	4644	22.36	9.320	6.415	5.426	4.878	4.308	3.877	4.542	4.568	4.671	4.779	4.686	5.357	5.137	5.005	5.070	5.080	5.040	4.966	4.963	4.946	4.640	4.398	4.289	4.300	4.162	4.091	3.894	4.013	3.890	3.758	3.765	3.645
435.0	918.0	581.8	706.5	787.1	866.4	905.6	963.0	983.3	977.6	957.8	916.0	845.7	765.6	683.3	610.3	541.1	493.4	466.6	437.8	409.8	394.5	378.9	370.6	364.6	355.0	343.9	332.4	314.1	297.1	278.4	260.5	246.9	214.0	157.2	118.8	95.39	75.54	62.55	65.68	171.0	659.1	2230	6478	9999.9	1924	28.51	9.452	7.015	5.818	4.711	3.988	4.601	4.857	4.471	4.961	4.731	5.180	4.978	5.246	4.975	5.185	5.095	4.924	5.016	4.889	4.485	4.260	4.095	4.161	4.022	3.847	3.675	3.734	3.816	3.440	3.648	3.344
440.0	1409	726.8	676.1	768.1	827.3	888.0	930.3	973.0	964.9	942.0	900.0	833.2	745.2	662.0	589.4	522.5	473.7	442.3	420.1	394.6	379.1	367.8	354.9	354.0	345.2	339.0	328.8	311.8	297.6	280.7	257.7	238.6	226.3	180.4	131.4	101.6	82.78	64.43	53.36	68.22	169.6	516.8	1651	8737	9999.9	1762	22.32	8.894	6.803	5.037	4.693	5.076	5.132	4.729	4.734	4.743	5.093	5.095	5.156	5.113	5.030	4.912	4.808	5.028	4.694	4.314	4.247	4.213	4.132	4.038	3.845	3.581	3.613	3.777	3.270	3.530	3.423
445.0	1574	1168	667.2	726.1	792.8	859.2	912.1	950.6	952.3	934.5	876.7	812.8	726.3	637.5	566.9	502.7	455.9	427.1	401.7	378.2	363.7	355.1	342.2	339.8	337.4	331.3	322.2	306.0	299.3	279.6	260.8	234.0	218.5	198.5	146.0	108.6	85.55	68.47	54.48	47.69	62.17	135.6	387.4	2417	9999.9	9999.9	1299	19.29	8.051	5.838	4.902	5.115	4.948	4.627	4.767	4.779	5.095	5.142	4.947	5.144	5.048	4.762	4.721	4.671	4.700	4.310	4.251	4.083	4.241	3.928	3.887	3.532	3.334	3.642	3.356	3.294	3.321
450.0	1030	2332	887.8	688.5	746.5	803.4	871.7	915.5	917.4	892.2	845.6	777.7	686.8	604.1	533.7	471.0	424.9	398.4	370.8	351.6	339.0	330.4	321.9	321.3	320.3	315.6	310.7	298.7	291.5	278.8	257.4	231.7	208.1	190.8	165.5	123.2	92.76	73.77	58.24	47.18	42.26	52.75	105.3	557.2	2739	8691	9999.9	4718	86.08	8.338	6.000	5.764	5.265	4.989	4.811	4.618	5.079	5.190	4.884	5.135	5.146	4.841	4.835	4.757	4.416	4.321	4.213	4.043	3.865	3.657	3.427	3.432	3.277	3.445	3.297	3.200	3.148
455.0	511.8	2453	2343	687.0	695.6	742.8	814.7	854.6	864.5	847.9	798.8	733.2	642.2	562.9	497.7	435.8	390.8	367.5	341.1	322.2	311.6	301.3	297.1	297.8	295.7	293.7	288.9	283.6	279.9	268.5	251.4	226.3	200.1	173.8	161.5	139.4	104.3	78.21	62.02	50.56	41.74	37.36	45.03	141.0	625.2	1988	5176	9999.9	6058	22.96	8.322	6.907	5.906	5.206	5.016	4.403	5.043	5.007	4.798	5.088	4.645	4.693	4.590	4.756	4.211	4.110	4.065	3.753	3.486	3.351	3.310	3.183	3.267	3.082	3.134	3.029	2.816
460.0	366.3	1533	3831	1056	666.9	705.4	761.6	816.4	814.1	801.2	760.5	693.6	613.7	529.7	463.2	405.5	370.1	338.4	318.8	301.4	290.0	281.7	280.4	279.5	279.7	277.8	276.2	269.3	267.0	258.8	244.3	218.5	195.4	166.7	149.4	139.2	114.9	82.39	65.33	52.49	43.84	35.35	32.26	50.60	156.0	458.5	1256	6569	9999.9	1382	19.16	8.710	6.703	5.140	5.222	4.666	4.825	4.703	4.718	4.729	4.711	4.297	4.290	4.575	4.367	4.083	3.968	3.653	3.278	3.250	3.255	3.049	3.120	2.961	2.779	2.772	2.705
465.0	335.4	773.4	4053	2270	646.1	661.8	714.0	773.9	779.8	757.6	724.0	658.7	574.8	502.4	437.8	377.2	341.7	317.6	294.7	280.8	268.5	261.3	263.8	261.6	262.4	262.5	261.6	254.7	253.0	249.1	233.8	212.1	190.1	163.0	140.1	131.0	120.7	90.92	68.92	54.56	45.80	38.02	32.28	32.41	52.85	118.1	295.9	1696	8499	9999.9	1186	19.02	8.093	5.891	5.692	5.006	4.807	4.771	4.944	4.589	4.698	4.504	4.270	4.155	3.852	3.712	3.719	3.426	3.376	3.074	3.242	3.127	2.920	2.775	2.719	2.453	2.526
470.0	309.8	458.3	2228	4505	1208	612.4	653.6	706.9	712.7	704.7	663.0	602.3	528.7	458.1	399.8	342.4	312.2	287.4	268.4	255.6	246.1	239.6	239.3	238.4	238.1	237.5	237.1	237.2	235.1	230.0	217.5	200.2	179.5	156.1	134.7	118.8	111.2	98.80	76.16	58.44	48.48	40.57	34.79	30.30	31.67	43.45	80.94	393.1	2176	6538	9070	4522	96.99	8.399	6.523	5.416	5.171	4.823	4.805	4.432	4.394	4.164	4.059	4.019	3.756	3.594	3.478	3.131	2.961	2.872	2.963	2.878	2.636	2.697	2.488	2.372	2.393
475.0	291.5	370.5	840.7	4160	3519	630.4	601.9	640.3	656.1	643.8	601.0	548.4	481.3	412.9	362.3	309.5	281.4	259.3	240.7	227.3	221.1	214.4	213.5	214.5	214.4	215.9	216.0	214.6	217.4	209.7	200.9	185.6	166.4	145.9	127.1	111.8	99.76	93.37	85.86	64.72	51.21	43.15	36.89	31.49	28.61	27.99	33.57	100.9	496.3	1478	3413	9561	5159	26.70	8.148	6.178	5.534	4.922	4.372	4.210	4.094	3.964	3.848	3.562	3.435	3.175	3.180	2.871	2.810	2.764	2.392	2.452	2.502	2.403	2.361	2.185	2.174
480.0	282.8	345.8	489.8	2321	5520	1123	558.8	602.6	613.9	602.4	568.7	521.7	451.2	383.6	342.1	291.4	261.7	240.7	223.0	214.2	205.7	201.5	196.9	199.9	200.1	198.9	201.8	201.0	202.0	197.7	191.0	175.3	157.6	139.8	122.3	107.2	94.94	87.76	85.43	72.75	54.39	44.86	39.15	33.92	28.98	26.22	23.72	36.68	122.7	340.0	800.4	4191	9999.9	1614	24.27	7.548	6.195	5.102	4.638	4.389	4.063	3.999	3.673	3.533	3.270	3.077	3.128	2.735	2.814	2.780	2.238	2.291	2.240	2.196	2.189	1.989	1.842
485.0	245.2	346.6	388.0	1004	5473	2782	544.5	571.6	580.9	568.5	536.3	491.0	421.8	365.9	319.5	276.2	245.5	225.0	208.3	201.9	192.2	190.1	187.6	186.5	187.9	188.6	187.8	190.8	188.8	187.5	182.6	166.0	151.6	135.3	118.6	105.2	92.71	83.85	79.78	76.86	60.77	47.63	40.83	36.34	30.75	26.80	23.31	23.38	40.60	86.94	188.9	1019	5868	9636	1448	19.60	7.364	5.583	4.855	4.398	4.182	3.845	3.968	3.616	3.135	3.014	3.050	2.512	2.583	2.630	2.472	2.244	2.193	1.894	2.118	2.070	1.857
490.0	220.8	353.5	365.6	521.0	2810	5473	1246	527.2	542.9	527.7	500.5	459.0	394.5	342.9	297.6	252.9	227.1	207.3	195.2	183.7	177.9	174.9	170.5	171.2	172.6	174.5	174.7	176.0	176.7	175.4	169.9	157.0	143.1	128.2	114.1	101.9	90.72	81.86	74.87	72.74	67.78	54.70	44.25	38.82	33.43	29.36	24.74	22.25	23.06	30.59	52.29	237.1	1431	4718	8147	4640	115.0	8.800	5.978	4.810	4.428	4.108	3.777	3.429	2.992	2.930	2.859	2.614	2.594	2.453	2.287	2.216	2.099	1.994	1.902	1.726	1.822
495.0	195.2	315.2	370.5	393.2	955.7	4869	3239	548.0	490.7	484.0	460.3	419.7	364.9	315.6	270.6	233.4	206.5	185.9	177.3	168.4	161.3	158.1	156.0	156.4	155.9	157.8	158.5	161.0	163.9	161.8	156.6	145.8	132.7	120.2	107.5	97.54	87.44	79.51	72.47	67.93	66.00	61.74	49.25	40.98	35.83	31.04	26.38	23.17	20.11	19.31	22.08	62.25	327.4	1064	2930	8832	6309	30.98	8.171	5.685	4.650	4.176	3.872	3.254	3.081	2.898	2.813	2.526	2.677	2.274	2.145	2.078	2.140	1.955	1.705	1.555	1.744
500.0	173.1	263.0	369.6	345.7	486.0	2571	6158	1065	464.4	446.8	428.3	387.2	338.6	293.9	253.3	214.3	189.9	174.7	165.2	154.9	149.5	146.0	146.2	145.0	143.2	144.7	144.9	146.5	150.5	149.8	144.5	136.0	122.4	112.2	100.9	93.34	84.41	76.81	70.51	64.63	61.63	61.32	53.34	42.49	36.94	32.40	28.01	24.11	19.86	17.21	15.98	23.59	81.89	245.6	679.0	3582	9999.9	1832	28.27	7.159	5.146	4.305	3.929	3.467	3.168	2.895	2.775	2.425	2.292	1.900	2.045	1.930	1.841	1.733	1.632	1.555	1.653
505.0	151.2	227.6	330.5	328.6	356.0	1018	6334	2513	444.7	421.0	397.2	361.4	314.1	274.4	234.3	196.9	174.9	159.6	151.3	142.7	135.5	135.5	133.3	132.1	129.5	133.1	133.8	135.6	138.6	138.0	134.2	125.4	114.0	104.7	94.93	88.30	80.06	73.78	67.27	61.45	57.58	56.33	54.46	44.99	38.08	32.03	27.77	24.21	20.14	17.32	15.05	15.24	26.99	62.99	160.2	849.7	4939	9117	1671	22.78	6.247	4.528	3.909	3.374	3.024	2.814	2.471	2.292	2.328	1.909	1.975	1.947	1.768	1.645	1.572	1.644	1.429
510.0	146.8	189.3	273.2	335.9	312.9	469.7	3133	5957	1099	379.4	355.5	325.3	286.5	241.9	209.4	176.8	155.2	142.1	133.6	127.0	122.7	120.5	117.5	117.2	116.9	117.2	117.9	118.8	121.8	122.7	120.2	112.2	103.6	94.34	87.06	79.88	74.14	67.73	62.58	57.07	53.46	50.46	49.90	47.46	39.61	32.43	27.80	23.63	19.80	17.51	14.93	13.73	15.01	22.45	44.21	197.5	1174	4065	6817	4059	119.4	8.021	4.414	3.522	3.098	2.800	2.304	2.215	1.978	1.887	1.838	1.701	1.621	1.503	1.403	1.330	1.303
515.0	125.4	178.4	223.9	310.2	296.3	310.0	961.5	5463	4130	406.4	318.9	289.7	255.0	215.6	186.8	155.0	138.4	126.2	117.1	111.4	108.4	105.8	103.1	102.5	101.9	102.3	102.6	102.2	106.6	106.6	105.2	99.27	91.60	84.75	77.04	71.20	67.42	61.11	58.04	52.93	49.12	45.31	43.66	43.76	41.00	34.26	27.49	23.77	20.00	17.30	15.21	14.08	13.09	13.58	17.79	51.65	268.8	914.2	2120	6756	5341	180.8	7.100	4.132	3.377	2.917	2.428	2.131	2.006	1.747	1.816	1.568	1.500	1.430	1.380	1.232	1.149
520.0	119.2	156.9	194.3	262.5	295.7	257.7	421.2	2773	7139	931.2	293.8	266.3	230.5	195.5	169.0	142.7	124.0	115.6	106.0	100.9	97.90	95.32	91.78	91.83	90.81	90.03	91.20	92.54	95.86	96.62	93.66	89.24	83.27	76.73	70.37	65.70	62.09	57.11	54.00	49.48	45.74	42.66	39.74	39.82	40.36	36.34	27.38	22.94	19.67	17.74	15.24	14.32	12.83	11.86	12.29	19.38	67.22	211.1	487.4	2529	7611	1896	29.14	5.411	3.815	2.822	2.516	2.231	1.875	1.741	1.617	1.424	1.378	1.336	1.186	1.148	1.147
525.0	112.5	136.3	176.6	212.3	292.5	250.7	285.6	992.7	7433	2032	283.0	241.7	212.6	180.0	152.8	130.7	113.9	103.1	98.14	92.20	88.83	86.44	83.25	82.11	81.74	81.20	81.81	84.60	86.60	86.61	85.74	81.63	74.87	69.23	64.32	60.05	57.06	53.19	49.83	47.02	43.67	40.47	37.15	35.97	35.48	34.98	29.03	22.74	19.23	17.32	15.38	14.15	13.24	12.20	11.62	12.07	22.56	54.58	116.4	590.5	3315	6720	1704	24.09	5.021	3.187	2.528	2.195	2.057	1.746	1.672	1.412	1.196	1.255	1.040	1.092	1.223
530.0	94.77	118.4	150.8	176.9	242.6	248.6	228.7	403.5	3550	6589	946.2	215.3	190.1	159.2	136.0	115.7	101.0	91.48	84.89	80.98	78.11	74.88	73.40	71.64	72.17	71.72	71.67	72.59	74.84	75.84	73.91	69.70	65.54	60.42	56.54	53.40	50.00	47.30	44.46	41.80	39.44	37.41	34.56	32.62	31.06	31.16	29.59	23.63	19.38	16.76	15.23	13.96	13.19	12.58	11.90	10.82	12.90	19.79	33.30	139.2	775.1	2712	4826	3219	123.9	7.165	3.270	2.441	2.032	1.778	1.562	1.409	1.170	1.163	1.101	0.989	1.014
535.0	88.58	108.2	130.5	153.2	181.6	245.7	203.4	242.6	998.5	6017	4617	219.6	163.5	137.1	118.4	100.1	88.39	78.54	73.46	70.53	67.52	64.42	62.07	62.29	59.87	60.94	60.49	61.95	63.41	63.61	62.48	58.88	57.25	52.79	48.14	45.43	43.99	41.43	39.67	36.65	34.62	33.12	30.82	29.13	27.42	26.51	26.52	24.30	19.40	16.05	14.53	13.51	12.63	11.91	11.61	11.10	10.89	11.66	14.52	37.96	179.2	611.1	1347	4391	4132	191.3	5.735	2.975	2.135	1.785	1.485	1.307	1.187	1.040	1.008	0.943	0.919
540.0	82.48	95.80	116.2	130.4	149.9	222.4	204.1	190.6	364.8	2874	8090	662.0	148.5	124.2	109.2	89.21	79.96	70.92	65.04	61.69	59.78	56.59	56.24	54.25	53.50	53.50	52.91	54.84	55.49	55.48	56.10	52.16	49.70	46.34	43.55	40.84	38.95	37.35	35.15	33.12	30.42	29.73	28.02	26.83	24.21	23.16	22.59	22.80	19.75	15.33	13.85	12.76	11.93	11.60	11.12	10.85	10.11	9.729	9.902	14.89	46.45	142.5	309.0	1509	5051	1927	30.06	4.181	2.549	1.857	1.588	1.320	1.161	1.036	0.925	0.743	0.850
545.0	68.84	100.0	108.6	117.1	130.3	179.3	207.5	163.8	208.3	939.0	8184	1563	144.8	114.5	97.55	79.15	69.72	61.99	57.40	54.16	53.16	50.91	49.20	48.14	48.00	47.24	47.06	48.07	49.60	49.44	49.50	46.86	43.41	40.68	38.74	36.36	34.44	32.66	31.32	29.65	27.53	26.86	24.71	23.86	22.22	20.89	19.53	20.01	18.85	15.01	13.18	11.73	11.14	10.74	10.04	9.962	9.575	8.982	8.199	9.455	16.22	37.55	74.84	349.3	2029	4651	1634	23.66	3.101	2.222	1.547	1.402	1.153	0.962	0.900	0.742	0.813
550.0	63.40	85.05	100.6	103.7	108.7	126.2	198.4	159.5	154.9	324.5	3662	6451	545.3	97.75	81.82	67.35	58.64	52.69	48.91	46.21	44.19	42.18	41.19	39.81	39.25	39.24	39.72	39.78	40.82	40.88	41.21	39.28	36.19	34.71	32.04	30.55	28.98	27.68	26.06	25.11	23.60	22.94	21.13	20.10	18.93	17.84	16.44	16.00	16.13	14.66	12.26	10.48	9.739	9.330	8.853	8.929	8.573	8.189	7.429	7.285	8.560	13.03	21.45	82.46	469.7	1747	3319	2294	123.3	5.151	1.857	1.431	1.080	0.933	0.845	0.749	0.659
555.0	63.10	80.12	87.54	89.34	87.79	97.05	151.1	166.2	126.9	164.0	951.7	6115	3425	104.2	68.11	57.56	48.40	42.76	40.13	38.29	35.97	34.55	34.09	31.68	31.53	31.84	31.58	32.30	33.31	33.12	32.81	31.15	29.32	27.93	25.90	24.78	23.35	22.79	21.30	20.76	19.40	18.31	17.19	16.56	15.48	15.01	13.41	12.86	12.49	12.50	11.66	9.536	8.534	8.063	7.701	7.357	6.831	7.078	6.752	6.083	6.247	6.689	8.352	22.09	108.2	392.5	915.2	2824	1987	33.07	3.496	1.611	1.199	1.073	0.820	0.727	0.696
560.0	59.19	72.43	80.94	78.73	74.31	81.28	108.2	169.3	119.0	119.4	300.2	2884	6687	342.1	60.08	49.39	41.95	36.95	34.34	31.83	30.22	29.31	27.98	27.63	26.94	26.80	26.78	27.02	27.35	27.76	27.10	25.87	24.77	23.43	22.01	20.89	20.36	19.33	18.45	17.38	16.42	15.95	15.25	14.08	13.58	12.71	11.59	10.85	10.25	10.08	10.65	9.493	7.394	6.854	6.956	6.660	6.040	6.126	5.871	5.534	4.789	5.144	5.399	8.014	26.95	90.30	208.4	941.0	2960	1728	29.03	2.226	1.457	1.186	0.877	0.746	0.668
565.0	54.44	80.35	76.82	74.33	65.57	69.68	83.95	149.9	124.8	102.8	145.2	885.6	7219	1090	56.18	42.66	36.20	32.46	29.67	28.13	25.69	25.09	24.23	23.33	23.10	22.99	22.67	22.71	23.22	23.28	23.77	22.23	20.96	19.85	18.73	17.89	17.01	16.01	15.59	14.95	14.30	13.67	13.24	12.13	11.88	10.84	10.35	9.416	8.654	8.239	8.995	9.115	6.888	6.391	6.086	5.825	5.613	5.165	5.218	5.350	4.633	4.281	4.145	4.371	8.594	22.55	49.22	216.6	1181	2913	1266	21.27	1.903	1.327	0.989	0.714	0.735
570.0	60.67	80.02	74.75	64.47	59.39	56.42	65.89	102.6	140.9	95.37	101.2	267.6	3354	5284	335.0	37.17	31.03	28.19	24.80	22.50	21.09	20.28	19.59	18.84	19.35	18.47	18.28	18.75	18.53	18.58	18.73	18.53	17.26	15.92	15.24	14.56	14.21	13.51	12.73	12.37	11.65	11.30	10.68	9.857	9.675	9.109	8.476	7.714	7.259	6.770	6.713	7.274	6.580	5.749	5.272	4.890	4.811	4.452	4.191	4.471	4.496	4.006	3.440	3.159	4.100	7.056	12.93	50.42	272.3	1051	1991	1107	111.5	3.193	1.182	0.747	0.611
575.0	57.21	81.72	77.93	55.46	50.18	47.43	52.91	71.49	133.2	105.1	86.70	123.2	843.4	5425	2533	40.43	26.46	23.32	20.82	18.16	16.93	16.88	15.35	14.24	14.39	15.09	14.64	15.07	14.93	15.07	15.04	14.44	13.88	13.14	12.10	11.67	11.16	10.76	10.30	9.744	9.554	8.763	8.723	8.187	7.824	7.551	6.815	6.354	5.787	5.480	5.163	5.397	5.953	5.210	4.543	4.265	3.912	3.785	3.492	3.680	3.800	3.696	3.333	2.873	2.830	3.157	4.488	12.85	62.27	235.9	531.4	1564	1608	32.67	2.273	0.919	0.802
580.0	56.06	83.68	75.61	57.25	47.10	44.76	50.05	55.75	103.4	125.0	82.41	87.29	241.0	2664	5442	97.02	23.98	19.57	18.08	16.04	15.22	14.62	13.39	12.66	12.27	12.01	12.29	12.36	12.51	12.83	12.83	11.80	11.55	10.96	10.26	9.718	9.410	9.057	8.787	8.416	8.019	7.676	7.423	6.820	6.624	6.244	5.852	5.501	5.224	4.717	4.280	4.297	4.697	4.872	4.265	3.935	3.601	3.313	3.041	3.224	3.159	3.259	3.139	2.725	2.307	2.290	2.399	4.362	15.43	53.92	120.7	515.6	1814	1188	27.13	1.460	0.854
585.0	57.71	82.91	70.17	58.45	44.93	43.18	46.81	52.06	76.50	133.5	86.27	78.43	104.8	807.6	6196	709.0	23.50	17.34	15.90	14.45	13.20	12.90	11.77	10.84	10.78	10.54	10.45	10.60	10.67	11.60	10.97	10.39	9.695	9.407	8.636	8.347	8.075	8.046	7.496	7.203	7.151	6.469	6.356	6.142	5.869	5.284	5.221	4.565	4.504	4.188	3.917	3.715	3.889	4.142	4.024	3.701	3.101	2.863	2.771	2.627	2.881	2.664	3.023	2.645	2.166	1.930	1.952	2.281	4.659	13.29	28.15	118.5	691.9	1744	796.5	19.11	1.100
590.0	48.49	70.99	70.18	54.95	41.54	37.45	40.09	46.27	59.57	112.4	104.2	75.82	73.81	224.7	2995	3816	66.89	16.11	13.43	12.06	10.95	10.42	9.800	9.114	8.799	8.734	8.615	8.628	8.690	8.739	8.937	8.482	7.716	7.407	7.472	6.867	6.546	6.437	6.228	5.901	5.845	5.311	5.057	4.856	4.648	4.488	4.332	3.943	3.833	3.427	3.216	3.029	3.078	3.246	3.546	3.442	2.749	2.571	2.451	2.381	2.346	2.120	2.252	2.273	2.183	1.754	1.574	1.546	2.110	3.946	7.356	27.45	158.5	608.7	1167	734.7	103.5
595.0	49.03	68.46	68.90	52.69	38.01	33.48	36.64	42.97	50.88	80.99	122.9	80.29	66.14	89.90	740.5	4255	1427	17.51	11.61	10.30	9.211	7.959	7.971	7.292	6.840	7.273	6.903	6.892	7.104	7.048	7.214	6.772	6.352	5.798	6.027	5.850	5.360	5.104	4.708	4.751	4.494	4.305	4.138	3.911	3.924	3.741	3.684	3.294	2.999	2.867	2.513	2.535	2.338	2.394	2.929	2.987	2.724	2.110	2.164	2.085	1.956	1.656	1.891	1.784	1.852	1.820	1.469	1.205	1.415	1.726	2.500	6.963	36.10	136.4	305.0	896.6	997.0
600.0	43.06	70.46	68.46	53.05	36.89	31.53	35.31	39.42	51.13	65.41	122.6	91.29	67.84	62.68	194.7	2270	3401	56.03	11.10	9.246	8.332	7.184	6.899	6.608	6.285	6.023	5.730	5.885	5.709	5.658	5.829	5.810	5.395	5.148	5.136	4.657	4.348	4.049	4.085	4.104	3.969	3.599	3.585	3.434	3.433	3.120	2.983	2.808	2.596	2.417	2.378	2.006	2.045	1.988	2.128	2.668	2.535	2.132	1.898	1.758	1.751	1.517	1.607	1.569	1.679	1.829	1.358	1.139	1.219	1.382	1.212	2.224	8.649	31.22	69.17	286.2	1047
605.0	37.93	68.65	62.98	50.31	34.97	29.89	30.65	36.84	49.23	59.67	106.6	106.9	72.80	55.85	74.18	708.5	4227	462.1	11.67	8.406	7.185	6.606	5.608	5.763	5.623	4.863	4.928	5.303	5.243	4.993	4.687	5.013	4.574	4.442	4.197	3.950	3.852	3.488	3.509	3.535	3.373	3.139	3.175	2.958	2.849	2.734	2.576	2.452	2.200	2.223	1.948	1.821	1.802	1.715	1.873	2.110	2.278	1.974	1.753	1.601	1.529	1.343	1.429	1.425	1.377	1.622	1.374	1.245	1.055	1.119	0.966	1.208	2.537	7.692	16.16	65.57	380.8
610.0	43.99	60.84	60.95	48.29	32.89	29.54	33.68	37.47	49.75	59.37	88.91	121.2	82.16	62.19	48.88	185.4	2287	2492	42.64	7.983	6.449	5.824	4.863	4.824	4.564	4.477	4.225	4.008	4.126	4.212	3.998	4.134	3.882	3.724	3.546	3.493	3.217	3.075	2.913	2.885	2.738	2.569	2.584	2.483	2.465	2.305	2.134	2.132	1.979	1.835	1.667	1.660	1.545	1.453	1.507	1.594	1.688	1.849	1.568	1.379	1.338	1.125	1.161	1.204	1.231	1.246	1.303	1.310	1.010	0.972	0.942	0.904	1.129	2.238	4.191	15.18	87.08
615.0	44.22	57.52	62.16	51.63	32.87	28.88	32.99	38.04	50.17	59.85	82.31	112.6	102.9	66.10	45.06	62.32	580.4	3147	536.2	8.775	6.162	4.973	4.508	3.878	3.989	3.690	3.603	3.326	3.410	3.539	3.229	3.192	3.161	3.083	2.900	2.897	2.533	2.477	2.417	2.486	2.176	2.239	2.059	2.019	1.846	1.848	1.719	1.687	1.651	1.518	1.393	1.285	1.336	1.285	1.206	1.232	1.231	1.458	1.537	1.209	1.343	1.072	1.046	0.995	1.073	1.087	1.157	1.249	1.120	0.937	1.024	0.809	0.796	1.067	1.402	3.769	19.87
620.0	47.84	64.21	60.30	43.43	31.71	25.84	31.18	39.48	49.08	57.15	80.27	100.4	111.2	69.60	47.03	35.95	147.6	1888	2175	26.40	5.832	4.434	3.835	3.384	3.333	3.090	3.132	3.098	2.969	2.998	2.820	2.689	2.722	2.624	2.364	2.179	2.359	2.218	2.066	2.061	1.741	1.706	1.900	1.697	1.684	1.756	1.517	1.493	1.404	1.300	1.054	1.024	1.151	1.065	1.083	1.044	1.034	1.084	1.394	1.182	1.247	0.963	0.992	0.975	0.929	0.993	1.124	0.981	1.086	1.052	0.911	0.726	0.705	0.680	0.693	1.177	4.792
625.0	43.91	63.77	62.73	41.74	32.11	27.67	31.07	40.79	49.80	54.86	76.78	90.45	117.0	76.30	47.99	30.84	47.92	645.0	3084	254.7	6.084	4.412	3.569	3.359	3.051	2.793	2.691	2.684	2.256	2.652	2.429	2.337	2.372	2.301	2.032	1.982	2.119	1.855	1.817	1.899	1.420	1.610	1.571	1.527	1.546	1.416	1.374	1.415	1.242	1.128	1.009	1.015	0.971	0.928	0.946	1.031	0.935	0.897	1.140	1.129	1.123	0.892	0.825	0.914	0.911	0.957	0.892	0.886	0.984	0.995	0.926	0.654	0.627	0.611	0.503	0.654	1.417
630.0	38.39	62.04	61.71	41.42	29.09	26.06	29.73	37.62	48.14	58.09	76.86	86.16	102.6	88.17	50.27	29.02	24.79	160.7	1877	1622	25.13	4.129	3.476	2.956	2.761	2.272	2.266	2.190	1.975	2.090	2.024	1.962	2.030	1.932	1.841	1.879	1.700	1.642	1.456	1.633	1.324	1.289	1.351	1.263	1.266	1.227	1.269	1.206	1.159	1.078	0.934	0.889	0.804	0.781	0.737	0.868	0.747	0.698	0.871	1.018	1.003	0.906	0.835	0.784	0.841	0.816	0.719	0.802	0.788	0.794	0.905	0.729	0.636	0.576	0.481	0.444	0.648
635.0	35.76	55.91	65.53	38.78	28.90	25.79	28.84	36.84	44.93	57.96	73.72	85.38	89.15	93.13	56.09	29.56	19.40	44.83	491.0	2398	370.4	4.833	3.267	2.607	2.491	2.261	2.020	2.015	1.756	1.860	1.731	1.798	1.563	1.631	1.546	1.670	1.445	1.330	1.258	1.274	1.122	1.208	1.025	1.033	1.123	1.036	1.115	1.072	0.988	0.888	0.915	0.751	0.662	0.673	0.688	0.670	0.673	0.675	0.726	0.671	0.877	0.922	0.819	0.708	0.711	0.745	0.670	0.737	0.670	0.687	0.782	0.876	0.750	0.509	0.442	0.426	0.380
640.0	37.03	57.76	64.37	38.44	28.79	25.55	27.19	33.53	44.84	55.00	75.23	84.59	84.48	88.64	63.26	31.22	18.29	19.41	119.0	1621	1350	11.89	3.422	2.734	2.258	2.049	1.853	1.787	1.515	1.738	1.668	1.561	1.481	1.575	1.534	1.682	1.372	1.244	1.293	1.140	1.197	1.010	0.935	0.981	0.997	0.943	1.010	1.049	1.000	0.878	0.784	0.675	0.644	0.590	0.601	0.562	0.627	0.617	0.649	0.577	0.775	0.727	0.755	0.572	0.676	0.749	0.647	0.595	0.713	0.658	0.634	0.635	0.681	0.489	0.378	0.398	0.269
645.0	42.59	55.33	60.79	44.03	27.86	25.27	26.91	31.86	43.30	54.69	73.90	82.55	81.22	79.70	68.85	31.39	18.59	12.84	33.63	617.1	2141	57.26	3.710	2.719	2.190	1.926	1.770	1.685	1.482	1.698	1.584	1.453	1.341	1.569	1.452	1.531	1.360	1.191	1.115	1.047	0.978	1.061	0.923	0.924	0.892	0.881	1.095	0.981	0.995	0.804	0.746	0.691	0.587	0.588	0.550	0.530	0.616	0.567	0.559	0.612	0.635	0.638	0.689	0.685	0.643	0.643	0.615	0.657	0.718	0.639	0.574	0.565	0.690	0.507	0.371	0.381	0.329
650.0	40.54	54.59	65.91	47.57	27.04	24.65	28.74	33.54	41.76	53.04	70.82	76.89	78.30	72.49	71.10	33.61	18.27	12.12	14.18	161.8	1923	453.0	4.470	2.597	2.133	1.940	1.442	1.458	1.451	1.664	1.356	1.465	1.410	1.507	1.426	1.553	1.537	1.234	1.069	1.028	0.979	0.971	0.948	0.832	0.761	0.819	0.827	0.921	0.885	0.724	0.609	0.710	0.685	0.534	0.510	0.535	0.545	0.570	0.528	0.576	0.529	0.637	0.633	0.664	0.531	0.548	0.551	0.574	0.605	0.573	0.542	0.530	0.610	0.587	0.421	0.371	0.291
