Sample:	'1
File name:	Default_20240316_153053.FD3
Run date:	'15:24:32, 03/16/2024
Operator:	dsjg
Comment:	'

Instrument
Model:	F-2700 FL Spectrophotometer
Serial number:	2198-001
ROM Version:	4J14000 07

Instrument parameters
Measurement type:	3-D scan
Data mode:	Fluorescence
EX  Start WL:	220.0 nm
EX  End WL:	600.0 nm
EX Sampling interval:	5.0 nm
EM  Start WL:	230.0 nm
EM  End WL:	650.0 nm
EM Sampling interval:	5.0 nm
Scan speed:	12000 nm/min
EX Slit:	5.0 nm
EM Slit:	5.0 nm
PMT Voltage:	700 V
Response:	Auto 
Corrected spectra:	Off
Contour interval:	50.000

Peak integration
Integration method:	Rectangular
Sensitivity:	1
Threshold:	1.000

Peaks
No.	ApexEX/EM(nm)	Height(Data)
1	235.0/385.0	 1072
2	235.0/395.0	 1080
3	235.0/605.0	21.68
4	240.0/265.0	135.6
5	245.0/270.0	119.4
6	245.0/605.0	18.22
7	250.0/625.0	14.60
8	255.0/280.0	172.4
9	255.0/640.0	14.25
10	260.0/285.0	179.6
11	265.0/240.0	4.750
12	265.0/290.0	190.1
13	270.0/300.0	275.7
14	270.0/590.0	37.92
15	275.0/305.0	340.7
16	280.0/615.0	27.35
17	285.0/630.0	22.94
18	290.0/380.0	 1715
19	290.0/640.0	21.03

Data points
	220.0	225.0	230.0	235.0	240.0	245.0	250.0	255.0	260.0	265.0	270.0	275.0	280.0	285.0	290.0	295.0	300.0	305.0	310.0	315.0	320.0	325.0	330.0	335.0	340.0	345.0	350.0	355.0	360.0	365.0	370.0	375.0	380.0	385.0	390.0	395.0	400.0	405.0	410.0	415.0	420.0	425.0	430.0	435.0	440.0	445.0	450.0	455.0	460.0	465.0	470.0	475.0	480.0	485.0	490.0	495.0	500.0	505.0	510.0	515.0	520.0	525.0	530.0	535.0	540.0	545.0	550.0	555.0	560.0	565.0	570.0	575.0	580.0	585.0	590.0	595.0	600.0
230.0	14.01	114.0	415.4	188.2	9.951	5.355	4.348	3.143	3.090	2.827	2.196	2.580	2.518	2.359	1.711	1.680	1.338	1.198	1.058	1.027	1.033	0.839	0.795	0.781	0.611	0.690	0.551	0.589	0.704	0.689	0.531	0.540	0.492	0.445	0.436	0.657	0.683	0.648	0.489	0.572	0.554	0.434	0.421	0.475	0.351	0.368	0.378	0.469	0.845	1.343	1.012	0.482	0.283	0.255	0.295	0.241	0.259	0.252	0.249	0.230	0.225	0.188	0.260	0.234	0.221	0.238	0.180	0.248	0.162	0.228	0.157	0.204	0.183	0.213	0.234	0.184	0.180
235.0	9.862	38.72	306.1	773.5	348.8	18.19	4.137	2.649	4.037	4.082	1.829	2.196	2.197	1.726	1.790	1.554	0.978	1.056	1.076	1.079	1.102	0.861	0.906	0.770	0.497	0.573	0.593	0.632	0.667	0.655	0.735	0.559	0.430	0.410	0.394	0.415	0.629	0.708	0.691	0.614	0.549	0.477	0.523	0.520	0.323	0.418	0.334	0.446	0.478	1.015	1.738	2.411	1.819	0.696	0.268	0.271	0.296	0.270	0.257	0.221	0.210	0.210	0.218	0.427	0.291	0.233	0.182	0.192	0.191	0.225	0.204	0.234	0.237	0.170	0.197	0.095	0.301
240.0	23.33	29.09	104.8	693.2	 1057	304.5	10.15	3.588	3.609	4.750	3.351	2.391	2.213	2.600	1.763	1.202	1.219	1.139	1.012	1.067	1.218	1.138	0.758	0.858	0.611	0.457	0.700	0.804	0.573	0.664	0.670	0.528	0.493	0.306	0.334	0.413	0.455	0.535	0.640	0.603	0.547	0.423	0.588	0.479	0.353	0.430	0.378	0.410	0.518	0.488	0.808	1.907	3.679	3.469	1.859	0.499	0.358	0.248	0.257	0.240	0.219	0.234	0.137	0.385	0.269	0.154	0.136	0.148	0.158	0.208	0.144	0.233	0.183	0.225	0.184	0.163	0.272
245.0	24.19	38.06	38.40	256.7	 1147	916.9	208.9	6.506	3.034	3.180	2.801	3.573	1.872	2.439	2.319	1.399	1.213	1.134	1.199	1.187	0.997	0.891	0.701	1.011	0.879	0.484	0.685	0.667	0.610	0.554	0.656	0.713	0.512	0.378	0.403	0.332	0.469	0.693	0.612	0.575	0.443	0.421	0.482	0.503	0.385	0.407	0.429	0.514	0.461	0.303	0.394	0.761	1.976	4.162	5.299	3.521	1.346	0.442	0.308	0.219	0.166	0.314	0.222	0.285	0.231	0.211	0.102	0.206	0.155	0.151	0.191	0.260	0.126	0.220	0.132	0.224	0.266
250.0	16.37	39.85	56.91	89.28	384.3	 1049	 1216	357.2	35.72	3.876	3.402	3.831	2.318	2.489	1.812	1.874	1.659	1.470	1.183	1.053	0.915	0.841	0.694	0.811	0.923	0.636	0.774	0.641	0.593	0.720	0.787	0.561	0.607	0.539	0.411	0.535	0.326	0.408	0.513	0.549	0.526	0.549	0.518	0.509	0.396	0.371	0.433	0.472	0.485	0.418	0.374	0.419	0.760	1.454	2.603	3.984	5.646	5.263	3.171	1.354	0.262	0.267	0.279	0.254	0.236	0.164	0.227	0.280	0.249	0.148	0.130	0.214	0.158	0.251	0.175	0.203	0.197
255.0	11.65	18.29	55.51	102.7	124.1	272.7	975.6	 1954	480.1	38.91	4.006	4.359	3.334	2.862	2.376	1.930	1.753	1.677	1.080	1.394	1.076	0.932	0.964	0.773	0.927	0.654	0.788	0.651	0.847	0.545	0.523	0.546	0.518	0.525	0.514	0.448	0.372	0.350	0.524	0.268	0.445	0.536	0.625	0.526	0.505	0.357	0.384	0.409	0.454	0.384	0.481	0.644	0.614	0.578	0.831	1.146	1.935	4.045	7.296	8.481	5.033	1.583	0.252	0.210	0.345	0.231	0.225	0.150	0.250	0.214	0.177	0.169	0.213	0.242	0.175	0.215	0.193
260.0	19.31	13.33	31.19	93.53	113.5	80.83	298.9	 1465	 2171	391.4	17.16	4.285	3.001	2.569	2.542	1.959	1.629	1.652	1.328	1.447	1.145	1.067	0.882	0.944	0.910	0.545	0.799	0.809	0.865	0.553	0.650	0.449	0.562	0.607	0.441	0.477	0.307	0.553	0.492	0.398	0.418	0.555	0.574	0.550	0.430	0.480	0.409	0.498	0.446	0.463	0.356	0.521	0.871	0.598	0.454	0.538	0.701	1.235	2.877	6.678	9.755	8.743	3.764	0.746	0.431	0.226	0.246	0.167	0.238	0.227	0.144	0.170	0.245	0.196	0.226	0.263	0.203
265.0	17.01	14.90	17.06	49.72	135.6	85.39	83.13	476.8	 1964	 2196	296.4	9.238	4.949	2.247	2.220	2.152	1.605	1.472	1.427	1.181	1.173	1.245	1.089	0.787	0.775	0.783	0.640	0.677	0.708	0.687	0.635	0.585	0.538	0.513	0.488	0.467	0.440	0.357	0.380	0.384	0.373	0.496	0.638	0.594	0.583	0.580	0.446	0.408	0.400	0.459	0.371	0.333	0.618	0.764	0.730	0.568	0.331	0.488	0.952	1.992	5.222	9.566	11.07	7.052	2.159	0.384	0.291	0.261	0.241	0.215	0.120	0.138	0.210	0.191	0.229	0.203	0.165
270.0	13.07	18.47	17.13	21.83	65.48	119.4	97.70	127.2	591.4	 1669	 2190	 1026	74.26	3.784	2.893	1.964	2.013	1.692	1.514	1.170	0.963	0.942	1.007	0.796	0.904	0.826	0.772	0.572	0.686	0.647	0.603	0.532	0.641	0.567	0.537	0.487	0.393	0.390	0.365	0.419	0.424	0.347	0.423	0.597	0.604	0.556	0.484	0.487	0.391	0.382	0.417	0.319	0.492	0.518	0.657	0.808	0.688	0.483	0.513	0.674	1.471	2.827	5.219	7.553	9.313	8.491	5.349	1.930	0.396	0.219	0.182	0.201	0.201	0.193	0.193	0.245	0.222
275.0	16.50	23.53	25.70	19.08	22.94	60.31	140.9	127.8	155.9	414.0	 1232	 2699	 1516	81.99	3.913	2.508	2.520	1.953	1.877	1.232	1.099	1.239	1.158	0.742	0.859	0.837	0.789	0.638	0.757	0.784	0.640	0.692	0.601	0.485	0.608	0.487	0.418	0.423	0.377	0.394	0.305	0.347	0.318	0.496	0.389	0.581	0.419	0.521	0.427	0.441	0.409	0.339	0.434	0.395	0.416	0.433	0.718	0.891	0.880	0.574	0.675	0.813	1.385	1.947	2.851	5.640	10.23	12.44	8.091	2.153	0.287	0.150	0.148	0.295	0.227	0.286	0.179
280.0	22.89	32.70	36.63	21.23	15.57	27.03	90.65	172.4	115.3	122.4	357.4	 1613	 2814	 1160	30.81	3.424	2.501	2.300	1.932	1.491	1.465	1.044	1.059	0.835	0.859	0.935	1.152	0.845	0.791	1.044	0.583	0.686	0.714	0.616	0.445	0.550	0.447	0.367	0.302	0.305	0.422	0.392	0.324	0.376	0.371	0.576	0.434	0.585	0.567	0.456	0.460	0.458	0.466	0.383	0.417	0.387	0.456	0.709	0.991	1.044	0.658	0.521	0.576	0.712	0.881	1.650	4.045	8.845	13.22	12.03	5.296	0.889	0.214	0.161	0.192	0.208	0.220
285.0	20.66	37.28	42.39	24.33	18.71	20.69	43.59	138.6	179.6	94.75	121.9	503.3	 1919	 2651	209.6	9.626	3.806	2.445	1.842	1.613	1.618	1.167	1.358	1.226	0.852	0.864	0.961	0.844	0.694	0.859	0.715	0.681	0.879	0.651	0.450	0.410	0.465	0.509	0.371	0.346	0.476	0.390	0.268	0.333	0.293	0.453	0.516	0.563	0.664	0.555	0.382	0.453	0.426	0.410	0.394	0.356	0.383	0.435	0.675	0.914	0.999	0.708	0.514	0.524	0.532	0.791	1.231	2.681	5.958	11.44	14.49	9.925	3.285	0.383	0.190	0.385	0.315
290.0	28.33	46.68	56.56	39.36	32.13	29.53	38.62	78.18	160.3	190.1	133.5	174.6	571.5	 1508	 2031	769.0	51.26	3.504	2.174	1.845	1.666	1.438	1.319	1.182	0.966	1.185	0.917	0.770	0.851	0.861	0.675	0.717	0.709	0.650	0.458	0.574	0.422	0.388	0.307	0.360	0.446	0.322	0.358	0.377	0.251	0.353	0.465	0.525	0.662	0.573	0.524	0.516	0.519	0.503	0.504	0.402	0.388	0.448	0.429	0.554	0.725	0.938	1.019	0.894	0.682	0.644	0.710	0.983	1.796	3.332	5.982	8.849	11.48	10.41	6.899	2.446	0.448
295.0	37.87	56.64	75.99	64.40	50.95	54.10	58.20	70.55	107.5	190.0	256.9	162.9	203.0	403.8	929.0	 2158	 1170	55.26	3.328	2.333	1.905	1.285	1.659	1.224	1.344	1.160	0.959	1.089	1.014	0.890	0.633	0.734	0.996	0.613	0.511	0.541	0.345	0.512	0.436	0.390	0.373	0.332	0.305	0.348	0.266	0.408	0.283	0.451	0.691	0.627	0.619	0.633	0.550	0.620	0.492	0.494	0.522	0.612	0.532	0.594	0.668	0.746	0.887	1.135	1.207	1.114	0.712	0.739	0.823	1.110	1.698	2.411	3.430	6.091	11.94	16.16	10.01
300.0	28.40	59.81	89.82	81.28	75.40	77.22	77.49	91.46	102.6	154.9	275.7	265.8	153.0	164.6	289.4	 1196	 2579	919.7	20.66	3.021	2.379	1.946	1.558	1.311	1.485	1.092	1.107	1.060	0.966	0.867	0.724	0.652	0.642	0.589	0.586	0.527	0.506	0.464	0.360	0.383	0.419	0.412	0.320	0.344	0.360	0.262	0.267	0.413	0.503	0.607	0.522	0.665	0.675	0.615	0.468	0.496	0.582	0.585	0.526	0.609	0.611	0.645	0.792	0.880	1.045	1.571	1.384	1.028	0.665	0.692	0.782	0.957	1.198	1.816	4.450	10.13	16.84
305.0	36.56	68.91	98.54	104.8	99.66	107.0	107.2	119.1	124.2	154.8	235.2	340.7	237.0	141.7	142.2	389.5	 1540	 2762	123.8	7.017	2.722	2.336	1.788	1.534	1.373	1.253	0.998	1.116	1.078	1.003	0.973	0.798	0.751	0.541	0.502	0.594	0.530	0.456	0.430	0.467	0.294	0.443	0.456	0.302	0.323	0.246	0.323	0.413	0.516	0.565	0.588	0.736	0.643	0.702	0.587	0.574	0.646	0.699	0.688	0.694	0.765	0.736	0.837	0.718	0.930	1.273	1.618	1.867	1.105	0.750	0.804	0.596	0.843	0.907	1.299	3.036	7.520
310.0	36.73	79.06	126.6	140.3	135.2	145.0	145.7	149.0	158.5	179.0	221.5	302.5	343.4	230.3	160.6	171.7	469.2	 1397	 2147	 1220	33.86	3.390	2.279	1.918	1.446	1.449	1.288	1.149	1.163	0.798	0.961	0.762	0.639	0.702	0.699	0.570	0.536	0.453	0.426	0.444	0.429	0.477	0.438	0.354	0.304	0.340	0.332	0.407	0.603	0.465	0.607	0.757	0.745	0.818	0.779	0.844	0.800	0.822	0.820	0.788	0.961	0.762	0.959	0.867	1.031	1.120	1.224	1.428	1.660	1.371	1.322	0.930	0.930	0.858	0.827	1.162	2.159
315.0	51.48	94.92	160.0	175.3	168.0	192.0	192.1	182.4	200.5	219.6	259.4	301.1	348.4	394.6	285.3	179.6	194.1	377.1	868.6	 2400	810.3	37.33	3.311	2.679	1.921	1.491	1.301	1.162	1.067	0.973	0.863	0.731	0.726	0.507	0.654	0.627	0.489	0.503	0.410	0.405	0.351	0.544	0.290	0.332	0.371	0.307	0.372	0.520	0.462	0.577	0.548	0.770	0.933	1.023	0.962	0.869	0.979	0.902	0.964	0.988	1.031	1.016	0.974	1.188	1.144	1.360	1.340	1.128	1.316	1.557	2.024	1.661	1.465	1.022	0.992	0.908	1.155
320.0	58.23	109.4	173.8	210.5	198.8	202.1	215.0	213.3	232.0	261.4	307.3	347.5	377.0	426.5	421.6	247.1	170.0	162.4	260.8	 1125	 2796	656.4	15.15	3.035	2.630	1.834	1.648	1.327	1.062	1.111	0.900	0.727	0.773	0.520	0.748	0.609	0.561	0.434	0.433	0.451	0.395	0.546	0.418	0.366	0.334	0.319	0.298	0.535	0.594	0.576	0.705	0.781	0.905	0.989	1.028	0.969	0.950	0.966	1.025	1.029	1.018	0.961	1.088	1.304	1.353	1.506	1.349	1.443	1.389	1.666	1.897	2.027	2.266	1.814	1.224	1.082	0.996
325.0	60.18	120.4	198.3	243.7	227.0	232.2	240.2	240.9	262.2	305.1	357.4	406.3	442.1	457.8	495.1	383.8	214.9	147.8	126.9	344.4	 1528	 2991	90.67	6.268	3.234	2.395	1.818	1.245	1.150	1.275	1.090	0.820	1.047	0.672	0.738	0.544	0.709	0.510	0.377	0.387	0.582	0.465	0.517	0.493	0.519	0.415	0.333	0.573	0.513	0.597	0.670	0.878	0.919	0.913	1.016	1.070	1.038	1.123	1.037	1.180	1.187	1.193	1.265	1.304	1.577	1.455	1.560	1.693	1.859	1.806	1.951	2.212	2.386	2.673	2.160	1.582	1.180
330.0	69.82	164.2	269.4	327.8	279.6	256.7	263.2	281.9	318.9	379.0	454.1	530.1	572.3	575.1	568.7	524.3	392.5	228.7	153.4	156.8	444.4	 1481	 2382	 1222	27.91	3.417	2.207	1.639	1.571	1.277	1.170	0.966	0.926	0.807	0.836	0.639	0.705	0.581	0.432	0.523	0.527	0.475	0.503	0.532	0.416	0.466	0.469	0.578	0.619	0.815	0.814	0.941	1.082	1.058	1.145	1.100	1.181	1.205	1.147	1.325	1.300	1.302	1.420	1.476	1.771	1.862	1.917	2.293	2.251	2.396	2.455	2.413	2.695	2.778	2.879	2.541	2.106
335.0	93.33	211.8	341.5	434.3	379.8	323.0	300.2	324.8	383.0	469.4	568.4	679.6	735.2	754.6	725.7	633.7	575.3	413.8	248.0	181.1	193.3	403.3	914.7	 2874	633.3	32.71	3.536	2.191	1.632	1.511	1.171	1.121	1.085	0.797	0.911	0.685	0.707	0.550	0.559	0.581	0.501	0.467	0.393	0.594	0.326	0.523	0.519	0.741	0.818	0.966	0.989	1.225	1.300	1.118	1.202	1.131	1.372	1.531	1.356	1.630	1.605	1.683	1.717	1.854	2.152	2.509	2.369	2.794	2.635	2.875	3.259	3.190	3.354	3.389	3.128	3.079	2.900
340.0	96.28	215.5	423.5	516.4	439.6	363.5	352.9	369.6	430.0	540.7	673.8	791.8	865.4	891.3	861.2	755.6	652.7	568.8	370.8	246.7	185.7	181.1	289.4	 1306	 3253	543.1	14.50	3.387	2.122	1.752	1.541	1.118	1.222	1.028	0.945	0.835	0.647	0.609	0.657	0.535	0.484	0.469	0.447	0.540	0.408	0.466	0.522	0.736	0.883	1.139	1.265	1.413	1.573	1.317	1.354	1.303	1.436	1.481	1.486	1.714	1.927	1.792	1.864	2.180	2.258	2.533	3.053	3.050	3.185	3.539	3.836	3.909	3.647	3.836	3.600	3.465	3.193
345.0	96.23	261.8	493.3	593.6	499.7	415.0	387.1	407.2	478.8	602.4	758.7	901.2	992.5	 1021	994.9	884.1	736.2	647.9	526.3	335.8	237.8	183.2	151.1	401.4	 1896	 3297	75.20	6.568	2.923	2.091	1.425	1.216	1.113	1.095	0.888	0.775	0.731	0.682	0.564	0.677	0.468	0.538	0.474	0.524	0.455	0.519	0.570	0.715	0.917	1.189	1.451	1.733	1.731	1.602	1.352	1.316	1.444	1.631	1.735	1.734	1.891	2.007	2.327	2.566	2.589	2.827	3.200	3.379	3.778	4.008	4.350	4.523	4.404	4.224	3.986	3.988	3.883
350.0	101.0	297.3	572.6	697.0	595.5	487.3	458.1	480.3	561.8	699.1	867.1	 1042	 1153	 1180	 1181	 1059	887.1	749.6	657.3	526.8	357.4	258.7	192.5	198.6	541.9	 1753	 2511	 1140	25.61	3.356	2.130	1.666	1.306	1.150	1.003	0.894	0.750	0.670	0.573	0.640	0.546	0.601	0.456	0.353	0.529	0.500	0.603	0.832	1.112	1.375	1.529	1.939	1.936	1.757	1.677	1.538	1.578	1.646	1.907	2.059	2.092	2.416	2.701	2.839	3.243	3.359	3.692	3.879	4.221	4.528	4.787	4.883	5.150	5.034	4.829	4.760	4.599
355.0	110.1	345.6	656.3	792.3	682.8	559.8	518.0	550.9	664.2	803.9	991.2	 1177	 1297	 1339	 1350	 1221	 1057	893.7	758.1	668.0	539.3	366.4	269.4	205.6	229.9	463.3	961.4	 2963	560.6	31.25	3.534	2.318	1.833	1.158	1.089	1.021	0.868	0.600	0.716	0.682	0.617	0.641	0.466	0.496	0.515	0.407	0.615	0.850	1.266	1.549	1.745	2.160	2.069	1.920	1.829	1.754	1.886	1.895	1.848	2.151	2.316	2.599	2.825	3.137	3.651	3.897	4.269	4.337	4.727	5.053	5.132	5.145	5.612	5.670	5.524	5.442	5.468
360.0	123.6	358.7	724.7	881.1	750.8	630.7	588.2	603.0	707.4	865.1	 1058	 1262	 1380	 1441	 1468	 1340	 1176	998.7	849.7	728.0	653.7	481.4	342.9	250.8	191.8	194.0	283.1	 1364	 3170	498.5	15.19	3.153	2.112	1.603	1.134	1.147	0.874	0.935	0.696	0.750	0.702	0.548	0.448	0.608	0.489	0.497	0.628	0.857	1.300	1.728	1.778	2.370	2.333	1.994	2.021	1.893	2.120	1.874	2.119	2.280	2.579	2.886	2.952	3.564	3.631	4.260	4.264	4.607	5.330	5.442	5.899	5.896	6.375	6.394	6.232	6.300	5.707
365.0	129.6	384.5	743.2	921.7	803.1	693.0	638.3	658.1	766.1	912.0	 1122	 1341	 1465	 1531	 1559	 1440	 1266	 1095	938.7	801.7	698.8	602.6	419.6	304.0	222.2	163.0	134.0	388.4	 1936	 3146	378.3	7.220	2.643	1.795	1.307	1.287	0.932	0.805	0.804	0.704	0.630	0.478	0.526	0.620	0.584	0.517	0.750	0.898	1.351	1.833	1.926	2.317	2.435	2.240	2.393	1.917	2.344	1.972	2.217	2.499	2.605	2.907	3.285	3.476	3.770	4.350	4.587	5.223	5.413	6.063	5.793	6.361	6.623	6.810	6.699	6.699	6.272
370.0	153.0	401.8	790.9	985.5	879.1	749.1	717.8	730.9	826.0	976.8	 1188	 1407	 1539	 1614	 1640	 1531	 1366	 1200	 1041	893.4	761.2	669.3	558.2	399.6	286.3	205.7	147.5	164.8	530.3	 1744	 2632	 1093	23.35	3.110	2.030	1.460	1.138	0.875	0.842	0.741	0.697	0.590	0.619	0.485	0.570	0.618	0.789	1.084	1.405	1.883	1.922	2.549	2.575	2.407	2.410	2.250	2.454	2.377	2.479	2.795	2.944	3.074	3.337	3.681	4.033	4.630	4.873	5.271	5.583	6.198	6.421	6.519	6.996	7.016	6.995	7.297	6.950
375.0	167.7	434.2	835.8	 1039	951.2	809.1	774.4	794.3	886.2	 1042	 1229	 1461	 1595	 1682	 1704	 1595	 1431	 1276	 1132	979.1	833.5	715.9	633.0	532.5	370.7	268.6	198.9	156.3	201.0	449.5	 1030	 2940	 1524	30.25	3.539	2.120	1.391	1.113	0.925	0.837	0.629	0.648	0.550	0.538	0.545	0.664	0.874	1.166	1.503	1.851	2.037	2.748	2.753	2.538	2.710	2.243	2.519	2.875	2.559	2.873	3.009	3.277	3.278	3.615	3.987	4.800	4.833	5.522	5.752	6.223	6.694	6.886	7.280	7.613	7.374	7.425	7.344
380.0	158.3	444.0	839.6	 1046	978.2	848.5	817.3	823.5	903.2	 1061	 1276	 1479	 1614	 1682	 1715	 1619	 1458	 1316	 1174	 1027	883.8	752.6	665.1	599.0	460.0	326.1	246.7	186.5	153.2	178.5	295.4	 1373	 3174	426.0	16.52	3.195	2.043	1.220	1.018	0.855	0.635	0.555	0.671	0.624	0.584	0.731	0.762	1.071	1.664	1.970	2.131	2.480	2.758	2.712	2.686	2.348	2.711	2.662	2.790	2.785	3.097	3.081	3.449	3.748	4.313	4.933	5.122	5.638	5.998	6.409	6.813	6.975	7.342	7.678	7.551	7.471	6.765
385.0	157.7	426.8	832.1	 1072	984.4	889.5	846.9	857.1	926.2	 1078	 1280	 1471	 1626	 1681	 1701	 1628	 1476	 1330	 1199	 1051	914.2	785.9	689.4	615.2	545.5	394.2	291.1	226.5	175.8	142.5	137.5	388.8	 1869	 2717	317.2	7.666	2.794	1.607	1.167	0.954	0.883	0.696	0.749	0.591	0.589	0.653	0.873	1.183	1.719	1.860	2.191	2.609	2.749	2.726	2.632	2.523	2.612	2.626	2.804	3.013	3.324	3.379	3.807	3.953	4.211	4.857	5.418	5.556	5.839	6.103	6.650	7.092	7.487	7.132	7.338	7.386	7.116
390.0	161.8	432.2	832.0	 1063	 1006	906.8	870.9	881.5	947.9	 1082	 1265	 1453	 1590	 1650	 1670	 1588	 1450	 1320	 1196	 1063	941.6	826.8	729.8	642.9	579.7	500.3	379.3	293.0	233.6	185.6	144.9	170.3	515.5	 1501	 2123	891.5	21.88	3.449	1.853	1.297	1.007	0.763	0.725	0.633	0.588	0.739	0.847	1.200	1.675	1.898	2.093	2.706	2.765	2.814	2.679	2.636	2.769	2.969	3.081	3.054	3.233	3.337	3.733	3.940	4.346	4.745	5.175	5.408	5.840	6.181	6.517	6.685	7.228	7.177	7.219	7.485	7.397
395.0	162.9	441.1	796.1	 1080	 1014	922.4	891.3	901.9	956.1	 1071	 1247	 1423	 1523	 1596	 1588	 1522	 1402	 1284	 1165	 1052	943.1	845.7	760.4	676.9	601.9	546.8	490.1	377.6	303.4	250.3	200.1	167.6	210.1	406.1	830.2	 2330	 1277	28.82	3.801	2.149	1.288	0.819	0.833	0.672	0.747	0.744	0.793	1.166	1.679	1.904	2.102	2.657	2.745	3.035	2.734	2.601	2.936	2.711	2.976	3.033	3.293	3.371	3.645	3.670	4.185	4.343	4.848	5.395	5.941	6.026	6.442	6.623	6.730	6.875	7.151	7.379	6.881
400.0	159.7	406.9	784.9	 1046	 1004	921.7	882.6	905.8	954.1	 1063	 1228	 1368	 1468	 1524	 1533	 1464	 1354	 1237	 1140	 1036	934.3	851.8	778.5	703.2	624.6	564.4	530.4	453.6	361.2	301.7	248.8	200.0	171.0	182.9	258.5	 1079	 2507	369.7	17.40	3.302	1.766	1.255	0.974	0.870	0.815	0.757	0.843	1.167	1.487	1.840	1.911	2.641	2.935	2.872	2.645	2.540	2.951	2.850	2.978	2.900	3.210	3.355	3.566	3.834	4.170	4.402	4.657	4.924	5.571	5.739	6.103	6.358	6.763	6.369	6.872	7.232	6.669
405.0	144.3	397.9	808.0	 1019	987.2	921.8	881.4	883.6	955.9	 1043	 1187	 1336	 1415	 1453	 1473	 1409	 1306	 1191	 1099	 1007	917.5	844.7	781.3	712.2	645.3	582.1	542.8	515.6	426.8	351.4	296.8	241.0	193.2	159.3	143.2	321.0	 1407	 2159	289.4	8.646	2.583	1.630	1.131	0.891	0.695	0.849	0.827	1.226	1.460	1.947	2.055	2.579	2.717	2.920	2.584	2.724	2.972	2.782	2.988	3.199	3.174	3.480	3.503	3.657	4.128	4.219	4.638	4.728	5.321	5.683	5.918	6.232	6.539	6.355	6.713	6.842	6.495
410.0	145.9	377.5	750.3	960.0	943.5	902.9	890.0	876.2	933.2	 1011	 1137	 1258	 1333	 1364	 1378	 1311	 1220	 1126	 1038	957.2	885.0	820.8	766.1	716.4	660.1	608.1	560.7	533.1	501.5	420.0	351.8	294.9	237.8	188.8	147.7	154.1	391.8	 1151	 1687	731.2	20.07	2.589	1.457	1.114	0.837	0.811	0.895	1.246	1.454	1.882	2.013	2.468	2.638	2.699	2.761	2.727	2.901	2.886	3.059	3.134	3.279	3.428	3.616	3.502	3.818	4.220	4.516	4.531	5.023	5.174	5.468	6.015	5.978	5.968	6.166	6.226	6.147
415.0	139.5	367.3	689.7	885.5	904.8	881.9	854.5	865.6	895.9	970.8	 1070	 1189	 1251	 1251	 1262	 1198	 1125	 1033	962.1	896.4	832.6	775.6	741.3	703.2	662.2	621.5	572.6	541.3	521.6	492.3	411.1	341.5	282.7	223.1	174.4	137.1	156.8	300.4	631.2	 1759	 1001	26.43	2.656	1.544	1.081	0.880	0.792	1.268	1.341	1.684	1.866	2.291	2.488	2.551	2.580	2.619	2.911	2.928	3.004	3.077	3.119	3.312	3.314	3.341	3.700	3.850	4.251	4.384	4.756	4.762	4.944	5.520	5.476	5.563	5.773	5.743	5.641
420.0	124.7	334.1	654.0	845.3	856.8	843.0	834.8	846.4	874.2	936.1	 1027	 1124	 1183	 1183	 1173	 1130	 1054	966.8	909.8	844.1	786.0	742.5	714.1	683.1	658.0	616.0	585.2	545.9	519.8	510.2	462.0	373.8	306.3	245.4	192.5	146.1	114.1	118.2	178.5	767.1	 1886	339.8	16.92	2.155	1.465	1.129	0.990	1.216	1.408	1.641	1.779	2.198	2.468	2.283	2.767	2.365	2.583	2.833	2.625	2.961	3.024	3.012	3.092	3.479	3.532	3.788	3.972	4.105	4.202	4.462	4.886	5.262	5.195	5.512	5.249	5.119	5.339
425.0	120.6	330.6	621.3	799.5	830.6	830.7	815.0	821.8	860.7	915.4	987.3	 1072	 1120	 1115	 1107	 1054	988.1	920.7	856.8	797.1	751.6	715.4	682.5	664.3	642.7	614.5	584.7	552.1	524.2	503.3	488.7	406.8	328.2	264.5	209.1	157.4	115.0	86.75	79.98	209.3	 1026	 1674	271.6	6.640	2.137	1.275	1.045	1.291	1.443	1.574	1.797	2.125	2.491	2.328	2.499	2.544	2.680	2.689	2.846	2.847	2.879	3.099	3.155	3.363	3.175	3.558	3.796	3.832	4.260	4.107	4.421	4.456	4.603	4.846	4.867	5.084	5.298
430.0	109.9	296.0	587.8	753.5	775.7	791.1	775.1	789.8	833.2	869.3	939.1	 1021	 1046	 1031	 1029	975.6	909.2	843.2	789.5	735.9	697.7	672.5	645.4	634.3	618.4	597.7	572.5	548.7	525.8	498.2	479.4	438.4	359.3	284.9	227.5	175.5	130.1	92.03	68.91	81.94	271.4	855.0	 1297	598.9	18.54	2.175	1.428	1.385	1.461	1.541	1.595	1.973	2.291	2.256	2.546	2.407	2.592	2.617	2.813	2.834	2.955	3.016	2.912	3.134	3.181	3.569	3.731	3.705	4.090	4.076	4.268	4.490	4.327	4.524	4.579	4.687	4.886
435.0	127.8	285.8	549.4	727.7	732.3	760.7	753.5	759.7	799.1	834.8	896.4	962.5	962.7	957.3	935.4	889.0	822.4	772.6	721.3	675.7	645.8	624.4	611.0	601.4	588.9	576.0	553.5	539.0	520.7	495.8	463.6	434.1	391.5	311.5	240.5	190.9	146.6	107.6	77.72	62.50	92.26	214.2	461.6	 1420	900.1	24.17	2.253	1.666	1.369	1.383	1.591	1.869	2.121	1.958	2.322	2.402	2.299	2.718	2.689	2.877	2.853	2.836	2.811	2.981	3.299	3.495	3.424	3.413	3.576	3.970	3.803	4.074	4.040	4.114	4.029	4.269	4.103
440.0	125.0	260.2	510.9	675.8	701.2	714.4	728.9	738.6	760.6	799.7	844.0	906.6	897.9	894.7	887.0	832.2	767.1	715.7	671.6	630.5	605.7	588.5	578.1	571.9	562.7	551.0	541.3	527.2	511.1	487.6	457.2	420.4	390.0	329.6	253.6	202.0	157.8	117.4	87.00	64.88	58.50	74.84	124.4	645.0	 1656	303.5	12.68	2.423	1.656	1.637	1.582	1.945	2.145	2.074	2.220	2.120	2.320	2.409	2.598	2.626	2.734	2.839	2.976	3.302	3.054	3.137	3.179	3.500	3.251	3.716	3.210	3.762	4.029	3.920	3.944	3.803	3.995
445.0	120.5	247.6	474.4	630.3	650.9	691.1	694.7	706.8	747.2	778.7	821.2	851.8	856.9	844.4	823.3	780.1	715.2	663.9	628.1	595.6	569.7	550.6	547.6	542.4	536.2	529.9	522.5	507.6	496.6	480.5	448.1	409.1	370.6	335.2	269.7	206.9	162.9	126.4	95.28	71.83	55.09	47.95	50.00	172.3	934.4	 1472	215.4	5.989	2.207	1.837	1.686	1.889	1.832	1.917	1.986	2.055	2.403	2.419	2.495	2.549	2.695	2.786	2.923	2.974	2.935	3.011	3.159	3.342	3.085	3.451	3.397	3.437	3.806	3.448	3.424	3.774	3.644
450.0	118.4	247.7	438.5	584.1	613.6	639.4	648.2	675.2	699.8	731.9	773.9	795.4	790.4	766.8	745.9	704.1	646.2	604.2	568.3	538.4	513.3	502.6	502.6	496.7	494.5	491.1	485.5	477.0	470.4	455.3	430.7	393.8	351.5	316.9	277.7	221.4	171.1	134.2	104.8	81.29	63.53	48.76	39.20	59.48	240.0	776.6	 1179	521.1	15.63	2.273	1.759	1.976	1.826	1.986	1.944	1.964	2.275	2.248	2.427	2.387	2.675	2.618	2.569	2.683	2.666	2.896	3.007	3.053	3.134	3.263	3.129	3.295	3.449	3.200	3.406	3.374	3.408
455.0	103.1	264.8	424.6	529.7	563.0	596.4	599.5	634.4	654.8	675.4	708.2	726.3	708.4	695.0	673.0	622.0	576.5	540.3	504.7	480.4	461.0	451.0	449.9	453.0	447.7	449.0	445.6	441.4	434.2	425.6	405.2	371.1	332.8	295.5	260.7	231.7	182.4	141.1	113.0	89.32	71.18	55.50	42.79	39.72	73.30	188.3	421.2	 1203	281.8	19.48	2.470	2.191	2.123	1.859	1.927	1.941	2.102	2.050	2.264	2.326	2.256	2.408	2.363	2.593	2.607	2.560	2.811	2.839	2.641	2.729	2.912	2.846	3.112	3.013	2.840	3.097	2.987
460.0	87.03	261.4	455.4	482.5	517.5	561.8	567.5	595.0	612.1	633.9	671.5	679.2	662.7	642.2	619.4	570.2	526.6	493.9	458.8	437.4	423.4	410.0	410.7	413.1	414.7	414.0	413.4	409.4	408.2	399.9	384.0	354.6	318.7	279.7	246.4	226.5	190.5	146.3	117.5	95.90	75.14	61.08	47.61	37.72	39.32	58.99	108.7	536.0	 1242	239.1	11.24	2.444	2.014	1.907	1.866	1.891	2.139	2.094	2.026	2.187	2.179	2.367	2.256	2.408	2.466	2.319	2.512	2.642	2.690	2.499	2.763	2.822	2.824	2.531	2.610	2.823	2.897
465.0	62.42	228.1	500.6	492.7	487.8	518.9	534.4	554.2	575.1	601.1	630.1	635.1	623.6	599.8	571.2	521.8	478.1	451.8	425.1	403.6	388.1	378.4	379.7	377.6	385.7	383.6	382.5	383.3	385.4	377.7	359.4	337.5	302.4	269.1	235.2	210.1	192.3	153.9	120.3	98.62	79.89	64.63	51.83	40.76	34.59	32.60	39.41	139.9	742.8	 1139	174.4	4.993	2.340	2.079	2.001	1.865	1.960	1.829	1.812	1.983	2.020	2.104	2.377	2.333	2.331	2.264	2.348	2.407	2.554	2.464	2.378	2.548	2.620	2.536	2.514	2.496	2.755
470.0	68.29	164.3	474.8	622.3	461.1	474.3	486.2	498.0	521.1	551.7	568.6	577.8	557.8	533.1	506.1	461.7	424.6	400.0	376.3	358.6	342.3	334.0	336.3	338.7	343.1	347.1	342.4	344.1	347.3	345.4	328.2	309.9	278.7	251.3	220.8	194.4	177.1	158.1	127.5	100.9	83.11	68.26	55.69	44.53	36.48	30.24	26.86	45.26	190.8	609.4	867.5	393.4	14.55	2.529	2.031	1.796	1.857	1.931	1.780	1.905	1.848	1.868	2.097	2.138	2.183	2.129	2.287	2.171	2.141	2.240	2.291	2.380	2.454	2.276	2.284	2.270	2.338
475.0	76.17	137.6	341.3	767.2	558.7	419.1	427.9	448.8	475.3	499.2	517.2	520.4	498.6	471.6	444.1	408.9	376.5	352.9	330.0	316.1	301.6	295.3	293.9	300.7	299.8	306.2	304.5	304.3	309.3	307.5	299.0	280.4	258.0	232.5	205.8	183.5	163.9	147.1	133.4	106.7	87.08	70.98	59.45	49.33	40.80	32.78	27.25	26.98	55.54	146.3	308.3	882.0	273.5	17.05	2.442	2.072	1.721	1.705	1.638	1.604	1.536	1.891	1.866	1.974	1.873	2.112	2.059	2.118	2.100	2.064	2.080	2.229	2.162	2.054	2.172	2.273	2.104
480.0	55.79	124.1	268.6	682.7	757.7	408.0	397.7	418.3	450.3	458.3	474.5	479.0	458.3	434.2	408.2	377.5	342.5	317.8	301.8	287.0	275.0	269.5	270.5	272.3	273.0	279.7	278.5	279.6	282.4	283.8	276.9	262.5	242.2	218.2	195.1	174.5	154.9	137.1	130.7	114.0	90.02	72.12	61.18	52.41	42.43	35.61	28.92	25.23	26.27	43.94	79.64	384.9	914.0	231.4	8.386	2.386	1.765	1.797	1.773	1.655	1.586	1.728	1.848	1.826	1.816	1.812	1.906	2.138	1.834	1.866	1.847	2.021	2.244	2.110	1.898	1.957	1.751
485.0	58.19	120.8	231.8	489.2	944.8	465.3	367.8	389.2	420.0	426.7	443.0	447.4	429.0	397.2	372.6	346.9	315.0	294.1	278.6	262.3	252.6	248.1	248.9	248.7	251.1	255.7	257.6	261.9	259.3	263.1	259.6	245.7	226.5	206.9	186.5	167.6	150.4	132.6	122.3	114.9	95.71	74.45	62.45	53.05	45.33	37.81	30.42	26.00	21.99	22.77	28.43	99.75	548.2	888.1	37.46	4.101	2.065	1.779	1.724	1.733	1.688	1.655	1.916	1.770	1.635	1.693	1.579	1.992	1.924	1.744	1.876	1.598	2.044	1.801	1.734	1.803	1.681
490.0	51.15	110.5	193.0	328.1	755.9	764.0	367.8	352.2	377.5	392.7	405.7	410.5	392.8	362.5	340.8	310.8	286.4	266.3	246.0	236.6	226.7	220.2	219.9	222.5	224.2	229.6	232.2	233.3	235.8	234.9	232.6	222.9	205.6	189.0	172.7	157.1	142.2	126.8	114.5	105.7	98.09	79.57	64.36	54.69	47.03	40.02	33.22	28.61	23.01	19.93	18.49	31.90	140.5	468.8	706.4	317.2	13.28	2.311	1.839	1.659	1.766	1.585	1.594	1.559	1.576	1.651	1.597	1.784	1.686	1.654	1.874	1.688	1.571	1.723	1.629	1.718	1.578
495.0	48.50	93.04	175.9	246.2	410.1	925.3	517.4	317.6	337.3	355.4	363.1	366.5	348.2	323.3	303.1	275.6	251.9	235.9	217.3	208.2	203.2	192.5	194.8	193.7	197.8	199.4	202.5	204.7	207.4	207.2	206.2	198.7	185.3	172.0	158.1	144.4	130.5	119.1	105.3	95.93	90.23	82.05	66.22	54.65	47.95	41.21	35.09	30.61	25.06	20.63	17.44	17.79	39.37	111.9	286.5	817.7	272.8	14.96	2.015	1.847	1.579	1.488	1.338	1.534	1.406	1.694	1.608	1.467	1.513	1.590	1.544	1.726	1.630	1.480	1.554	1.448	1.485
500.0	41.28	87.63	170.8	223.5	280.4	717.4	782.2	313.1	312.3	326.1	333.7	332.0	319.8	292.4	278.0	248.4	224.3	210.3	197.8	187.9	180.7	176.3	174.8	176.1	177.6	178.8	182.6	185.1	187.7	188.2	188.4	180.4	170.3	158.3	145.3	134.0	122.2	112.8	99.02	90.42	81.26	78.43	69.14	55.38	47.44	41.04	35.48	30.18	25.15	21.19	17.50	15.73	17.96	32.39	72.18	379.9	845.1	220.8	5.937	1.962	1.530	1.497	1.315	1.314	1.296	1.580	1.345	1.272	1.344	1.527	1.495	1.483	1.451	1.247	1.304	1.276	1.293
505.0	39.25	86.99	169.7	197.3	236.6	448.0	939.8	408.9	285.0	293.1	306.6	307.5	292.0	267.1	250.9	224.9	204.1	192.4	177.3	165.7	163.2	160.3	155.8	157.8	160.4	162.7	163.2	166.1	168.7	170.0	169.6	164.8	153.9	143.9	133.7	124.1	113.1	104.4	93.76	84.42	75.97	70.39	67.95	57.24	47.23	40.68	34.76	30.13	25.05	20.86	17.88	15.26	13.12	14.91	22.65	97.04	519.7	775.2	38.40	2.883	1.530	1.545	1.218	1.341	1.209	1.414	1.294	1.342	1.352	1.351	1.469	1.401	1.091	1.313	1.242	1.256	1.266
510.0	37.84	73.40	144.2	185.2	205.9	265.3	687.6	730.7	287.5	257.5	269.4	273.9	257.2	234.3	217.3	196.4	176.2	165.1	155.1	145.3	140.1	137.2	134.9	136.7	138.6	140.0	142.1	145.2	146.4	148.8	148.5	143.2	134.2	126.5	118.1	109.8	100.7	94.02	84.81	76.72	69.60	62.44	61.06	57.08	47.66	39.18	33.83	29.68	25.08	20.91	18.24	15.20	12.83	11.70	11.76	27.10	131.5	422.8	576.0	163.8	11.26	1.623	1.297	1.252	1.220	1.271	1.191	1.166	1.161	1.185	1.095	1.120	1.172	1.072	1.121	1.118	1.179
515.0	35.84	65.99	120.2	183.0	175.5	198.3	331.3	824.5	487.0	227.7	229.1	232.6	221.7	198.5	186.3	166.8	151.9	138.3	131.4	124.4	120.1	115.8	115.5	115.6	119.6	119.0	122.3	124.9	124.3	128.5	128.5	123.8	115.5	110.7	100.3	95.49	88.51	82.23	75.92	68.68	62.31	56.99	53.21	49.36	48.90	39.06	32.38	28.48	24.25	20.61	17.47	14.99	12.51	11.06	9.417	12.13	34.06	98.25	224.8	612.5	247.3	9.871	1.326	1.359	1.126	1.162	1.041	1.104	0.933	1.092	1.080	1.080	1.093	1.072	0.970	0.956	0.945
520.0	29.05	61.99	108.5	161.9	173.6	174.1	217.4	589.7	766.7	234.0	207.9	210.7	198.0	180.7	164.5	149.4	134.1	124.0	116.9	110.7	105.0	105.7	103.2	103.7	104.9	105.0	108.8	109.1	110.8	113.5	114.3	108.9	103.8	98.30	90.35	85.80	80.75	75.68	70.41	62.36	57.64	53.01	48.24	44.04	45.40	40.27	30.99	26.29	23.24	19.53	17.31	14.92	12.36	10.82	8.700	8.737	12.29	25.77	55.31	299.1	626.0	40.63	3.408	1.374	1.174	1.142	1.062	1.073	0.883	0.952	0.931	0.979	1.068	0.898	0.875	0.865	1.007
525.0	30.61	60.14	94.44	132.7	173.9	156.5	167.8	333.8	864.0	367.9	188.9	188.0	182.2	164.1	154.4	131.7	121.4	111.4	105.0	99.71	95.27	93.37	93.34	91.62	96.47	94.97	96.46	96.31	99.13	102.0	101.4	99.80	93.06	88.53	82.97	78.53	72.99	68.67	64.40	57.40	53.29	48.18	43.61	39.17	40.22	38.61	31.41	24.98	21.92	18.98	16.57	14.18	12.24	10.62	8.910	7.794	7.336	9.587	15.43	75.71	385.9	507.8	34.92	1.877	1.209	1.052	0.896	0.892	0.860	0.871	0.919	0.886	0.971	0.850	0.896	0.808	0.968
530.0	28.80	46.11	78.37	109.7	149.8	145.2	143.0	185.6	557.4	686.9	219.9	166.5	158.4	142.9	132.6	115.2	106.6	97.58	89.51	84.58	83.06	81.26	79.63	77.44	81.51	81.45	81.73	82.44	86.36	88.31	87.59	85.47	81.01	76.37	72.02	68.79	63.42	60.17	56.77	51.59	46.94	42.81	38.94	35.55	33.61	33.47	31.26	25.19	20.72	17.65	15.43	13.39	11.79	10.23	8.553	7.267	6.219	6.109	6.527	19.35	96.63	294.2	349.5	143.9	8.594	1.128	0.937	0.874	0.922	0.826	0.869	0.837	0.766	0.745	0.812	0.772	0.837
535.0	26.56	39.34	70.90	94.42	118.5	137.7	124.6	131.8	246.3	671.8	420.3	141.7	132.4	121.2	112.4	100.2	89.64	81.61	77.08	72.79	71.09	68.56	67.45	67.28	68.23	69.15	68.98	70.01	72.44	75.19	74.47	72.98	69.58	65.89	61.76	59.34	55.60	52.56	48.38	45.18	40.16	36.88	34.61	31.06	29.27	27.40	28.01	25.74	20.07	16.60	14.27	12.64	10.68	8.972	8.450	7.102	5.800	5.322	4.595	6.893	24.04	67.89	149.1	435.1	200.1	6.450	0.856	0.880	0.685	0.855	0.701	0.761	0.689	0.613	0.633	0.821	0.625
540.0	19.50	33.43	63.06	82.89	102.4	125.5	114.7	112.8	143.7	421.5	682.6	172.5	114.3	109.9	99.65	88.86	80.97	72.93	67.63	64.76	61.47	59.63	59.54	60.15	59.95	60.09	60.83	62.09	62.93	65.68	64.95	64.12	60.32	58.44	54.80	52.88	49.16	46.37	43.61	40.38	36.59	34.07	31.40	28.68	26.53	24.05	24.03	23.90	20.10	15.85	13.26	11.76	10.23	8.475	7.865	6.859	5.739	4.903	4.471	4.365	7.772	17.03	36.36	213.6	447.4	40.06	2.534	1.007	0.676	0.858	0.664	0.745	0.620	0.698	0.674	0.518	0.634
545.0	18.42	39.41	55.44	70.84	85.40	107.6	111.1	101.5	112.8	223.2	672.5	328.3	104.9	95.03	90.35	78.85	70.17	64.61	60.94	58.09	55.53	55.03	53.71	52.42	53.17	53.82	53.97	54.99	56.73	57.24	58.67	56.09	53.93	52.02	48.92	46.30	44.72	41.80	39.01	36.24	33.26	30.32	28.15	26.25	23.87	21.75	20.54	21.05	20.09	15.97	12.69	10.82	9.439	8.278	7.564	6.718	5.903	4.886	4.216	3.564	3.913	5.741	9.714	54.10	277.2	319.4	32.69	1.177	0.831	0.707	0.677	0.694	0.547	0.707	0.617	0.607	0.593
550.0	20.37	33.78	50.73	62.76	69.02	89.56	102.5	90.47	89.79	123.4	377.7	567.0	157.3	82.82	75.08	66.45	61.74	55.40	52.06	49.82	47.30	46.22	45.83	44.72	44.99	44.77	45.13	46.96	47.75	48.46	49.85	47.59	46.17	43.66	41.89	39.72	37.43	35.54	33.75	30.97	28.85	26.92	24.55	22.49	21.00	19.39	17.39	16.75	16.94	15.83	12.57	10.14	8.540	7.686	6.973	6.289	5.646	4.807	3.886	3.455	3.128	3.159	3.749	13.58	69.34	199.3	276.9	118.0	6.775	0.692	0.664	0.547	0.582	0.609	0.552	0.538	0.553
555.0	19.36	39.31	50.25	53.27	55.82	67.39	77.01	88.69	77.05	85.51	151.4	452.6	398.7	73.62	62.76	54.43	49.91	45.43	42.81	41.62	39.27	39.18	38.11	37.41	37.57	37.42	36.96	38.40	40.30	39.87	40.74	39.30	39.05	35.69	34.33	32.89	32.09	29.76	27.91	26.06	23.70	22.10	20.79	18.87	18.20	16.42	14.90	14.13	13.31	13.54	12.58	9.504	7.654	6.693	6.323	5.797	5.045	4.306	3.799	3.288	2.798	2.516	2.376	4.523	16.68	45.76	108.3	304.4	143.3	4.820	0.713	0.567	0.447	0.491	0.515	0.496	0.453
560.0	20.95	27.66	44.26	46.78	48.97	56.80	60.65	82.71	71.10	72.14	88.22	262.4	518.9	117.3	54.36	48.28	42.24	39.11	37.94	35.93	33.28	33.16	32.55	31.65	32.11	32.28	32.04	33.36	33.54	34.95	34.39	33.79	33.28	31.08	28.75	28.16	27.23	25.59	23.94	22.60	20.56	19.31	17.83	16.71	15.21	14.35	13.26	11.95	10.64	11.00	11.34	9.949	7.105	6.057	5.738	5.090	4.669	3.881	3.393	2.838	2.709	2.318	1.986	2.170	4.817	11.20	26.08	143.3	298.9	38.36	2.027	0.629	0.484	0.462	0.621	0.402	0.487
565.0	18.72	20.46	33.81	45.65	41.55	50.97	52.04	71.18	67.64	59.93	68.58	128.5	437.2	250.5	46.82	42.90	36.58	34.23	33.37	30.91	28.60	27.80	27.16	27.35	26.95	27.63	27.48	28.30	29.16	29.98	29.53	28.90	27.53	26.58	24.92	23.83	22.43	21.26	20.68	19.89	17.95	16.46	14.67	14.04	13.38	12.32	11.19	10.34	9.560	8.897	9.411	9.138	7.139	5.806	4.970	4.498	4.262	3.649	3.229	2.751	2.584	1.966	1.867	1.572	2.090	3.569	6.789	35.74	175.1	237.9	29.24	0.861	0.485	0.544	0.470	0.417	0.385
570.0	14.18	19.83	31.18	34.76	36.66	40.90	44.98	53.09	63.00	52.19	51.97	68.24	218.7	383.8	113.7	33.11	29.86	27.35	25.49	24.09	23.56	22.79	21.86	22.07	22.04	22.18	22.04	22.26	22.84	23.61	23.30	22.84	21.66	20.31	19.41	19.29	17.99	17.23	16.84	15.68	14.54	13.27	12.15	11.38	10.77	9.735	9.126	8.441	7.712	7.002	6.968	7.105	6.533	5.479	4.323	3.751	3.439	3.120	2.789	2.503	2.221	1.800	1.726	1.491	1.380	1.696	2.374	8.655	43.33	129.0	170.8	72.12	4.137	0.501	0.530	0.390	0.336
575.0	13.97	16.63	24.52	25.59	31.88	31.45	35.03	33.89	52.12	49.64	42.87	44.24	81.36	259.6	307.9	30.57	23.09	21.20	19.99	19.12	17.21	16.99	16.77	16.30	16.35	16.64	16.78	17.59	17.30	18.44	17.79	17.43	16.61	15.50	15.27	15.06	13.97	13.48	12.92	11.58	11.07	10.30	9.410	8.583	8.567	7.804	7.316	6.653	6.024	5.423	5.219	5.062	5.370	4.996	3.859	3.220	2.923	2.682	2.347	2.170	1.976	1.607	1.510	1.259	1.137	1.272	1.279	2.605	10.24	29.44	63.19	166.2	41.51	3.361	0.445	0.375	0.328
580.0	24.60	19.81	22.24	25.99	29.87	29.81	29.87	30.12	43.42	45.85	36.95	35.42	43.57	133.3	349.8	89.41	19.52	17.58	16.53	15.68	14.47	14.60	13.44	13.02	13.22	13.40	13.98	13.86	14.49	14.84	14.38	13.58	13.75	12.38	12.59	12.24	11.15	11.32	10.54	9.294	9.460	8.393	7.910	7.361	7.009	6.414	5.979	5.636	5.009	4.525	4.190	3.956	4.249	4.322	3.546	2.894	2.507	2.192	2.077	1.904	1.836	1.525	1.341	1.104	1.155	0.998	0.948	1.153	2.891	7.224	15.12	74.33	150.0	34.30	1.145	0.395	0.391
585.0	21.71	15.18	18.22	20.05	29.04	28.47	24.57	27.57	32.99	42.86	36.09	31.71	31.69	58.85	259.4	190.6	17.28	15.43	13.84	12.87	12.36	11.59	11.57	11.52	11.41	11.20	10.98	11.47	11.65	12.46	11.96	11.71	11.40	10.06	10.41	9.863	9.234	9.064	8.988	7.995	7.770	7.011	6.920	6.400	5.750	5.598	4.924	4.405	4.237	3.981	3.613	3.172	3.298	3.559	3.493	2.793	2.032	1.823	1.621	1.677	1.594	1.297	1.238	1.173	0.972	0.981	0.903	0.877	1.120	2.105	3.694	18.50	87.83	128.6	23.47	0.536	0.392
590.0	14.05	16.28	16.08	16.39	20.54	22.98	20.20	20.84	25.47	34.17	37.92	28.60	25.75	29.27	115.6	269.5	82.35	12.17	10.95	9.724	9.607	9.422	9.305	9.279	8.993	9.048	8.946	9.294	9.569	9.634	9.457	9.167	9.072	8.306	8.104	7.994	7.579	7.362	6.788	6.654	6.105	5.698	5.291	5.008	4.634	4.390	4.011	3.513	3.397	3.204	2.788	2.563	2.551	2.711	2.886	2.697	2.061	1.657	1.449	1.351	1.268	1.150	0.987	1.041	0.881	0.911	0.767	0.716	0.746	0.850	1.171	4.520	21.50	65.76	90.75	28.09	3.008
595.0	18.93	17.40	16.44	17.64	15.66	19.50	17.75	19.54	21.17	25.78	36.98	29.82	22.14	20.42	38.66	158.0	240.9	14.97	8.704	7.606	7.382	7.302	7.052	7.116	6.893	6.899	6.720	6.898	7.404	7.308	7.261	7.199	6.712	6.615	6.113	6.581	5.662	5.459	5.071	5.152	4.881	4.621	4.111	3.669	3.508	3.363	3.255	2.850	2.707	2.462	2.258	2.057	2.057	2.043	2.173	2.281	2.144	1.699	1.255	1.138	1.198	1.012	0.926	0.865	0.936	0.738	0.650	0.602	0.549	0.462	0.570	1.361	5.182	15.03	31.78	83.96	39.02
600.0	19.67	18.92	19.03	19.53	15.76	16.95	16.62	16.30	18.04	21.83	33.66	30.93	19.47	17.31	19.47	72.88	251.0	67.88	7.474	6.559	6.137	6.323	6.195	6.119	5.639	5.890	5.747	5.835	6.031	5.914	6.203	5.963	5.583	5.624	5.152	5.256	4.678	4.676	4.328	4.127	3.984	3.798	3.580	3.069	2.911	2.904	2.595	2.478	2.228	2.041	1.842	1.694	1.674	1.536	1.481	1.964	1.997	1.722	1.263	0.964	0.969	0.868	0.777	0.745	0.900	0.837	0.618	0.686	0.500	0.434	0.404	0.630	1.426	3.667	7.694	36.40	86.37
605.0	16.11	13.58	16.87	21.68	13.51	18.22	14.99	15.94	15.95	19.89	28.25	30.85	18.73	15.71	13.95	29.23	169.2	147.0	6.954	5.809	5.762	5.590	5.193	4.862	5.089	4.779	4.813	4.957	5.078	4.736	5.209	5.564	4.822	5.008	4.446	4.716	4.165	4.141	3.630	3.465	3.365	3.115	3.034	2.611	2.724	2.469	2.336	2.282	2.109	1.751	1.490	1.620	1.418	1.514	1.222	1.508	1.725	1.717	1.183	0.904	1.123	0.922	0.619	0.784	0.634	0.668	0.653	0.566	0.501	0.451	0.405	0.445	0.595	1.173	2.054	9.201	46.36
610.0	12.46	13.27	16.28	18.11	13.87	15.94	14.44	15.29	15.59	16.88	21.54	27.60	23.11	14.70	11.92	14.11	69.81	198.2	65.96	5.194	4.928	4.615	4.187	4.139	3.858	4.033	4.018	4.303	4.158	3.853	4.176	4.434	4.008	3.889	3.920	3.598	3.401	3.165	2.988	2.798	2.642	2.451	2.190	2.219	2.286	2.067	1.819	1.826	1.612	1.489	1.298	1.283	1.124	1.160	1.128	1.228	1.323	1.374	1.117	0.909	0.820	0.703	0.581	0.623	0.621	0.543	0.510	0.506	0.478	0.417	0.382	0.406	0.386	0.495	0.693	2.291	11.39
615.0	11.77	10.05	13.19	18.48	14.14	14.13	13.50	13.80	15.05	15.28	17.71	24.11	27.35	15.66	12.33	10.75	22.23	103.6	195.9	9.999	4.001	3.506	3.095	3.281	2.995	3.201	3.385	3.285	3.216	3.592	3.423	3.507	3.147	2.940	3.024	2.870	2.523	2.479	2.486	2.276	1.914	1.760	1.802	1.635	1.761	1.603	1.535	1.420	1.304	1.119	1.116	1.033	0.886	1.081	0.918	0.815	0.946	1.110	1.071	0.930	0.695	0.579	0.566	0.566	0.550	0.454	0.538	0.539	0.527	0.368	0.432	0.391	0.438	0.390	0.297	0.832	2.880
620.0	12.46	11.62	10.86	16.94	12.20	13.69	13.46	12.01	14.71	14.61	18.57	18.97	26.05	18.06	11.51	9.571	10.45	44.78	195.0	64.43	3.482	3.126	2.866	2.940	3.008	2.801	2.813	2.491	2.879	3.029	2.913	3.059	2.639	2.589	2.265	2.242	2.210	2.119	1.787	1.727	1.600	1.567	1.468	1.418	1.357	1.342	1.425	1.193	1.024	0.941	0.971	0.781	0.805	0.948	0.773	0.690	0.769	0.700	1.006	0.909	0.764	0.557	0.554	0.439	0.472	0.517	0.426	0.575	0.584	0.436	0.408	0.422	0.362	0.344	0.349	0.390	0.782
625.0	15.04	13.05	13.98	17.39	15.38	12.74	14.60	12.98	14.90	13.07	13.94	18.25	22.21	20.96	11.84	10.23	7.847	17.01	120.2	163.0	3.755	2.748	2.399	2.597	2.556	2.571	2.561	1.931	2.481	2.571	2.514	2.504	2.013	2.026	2.083	1.941	1.902	1.742	1.665	1.529	1.300	1.351	1.289	1.181	1.300	1.216	1.313	0.908	0.927	0.797	0.878	0.842	0.679	0.781	0.748	0.533	0.675	0.629	0.686	0.962	0.774	0.620	0.486	0.444	0.445	0.479	0.421	0.635	0.543	0.458	0.355	0.276	0.271	0.364	0.309	0.306	0.351
630.0	15.83	14.25	13.70	15.10	14.82	12.51	14.38	12.36	13.19	14.04	15.37	16.40	18.72	22.94	14.97	9.910	8.011	7.938	45.03	168.6	55.45	2.666	2.236	2.280	2.155	2.004	2.121	1.983	1.808	2.107	1.981	1.922	1.758	1.730	1.692	1.591	1.595	1.442	1.254	1.264	1.114	1.127	1.078	1.064	1.164	0.922	0.855	0.776	0.685	0.699	0.673	0.586	0.618	0.624	0.604	0.499	0.539	0.485	0.552	0.667	0.707	0.634	0.461	0.406	0.454	0.439	0.392	0.428	0.403	0.388	0.335	0.409	0.254	0.350	0.264	0.281	0.375
635.0	7.431	16.22	16.19	16.48	11.66	11.95	13.55	13.11	10.94	12.91	16.10	16.85	17.08	20.88	17.69	10.77	7.671	5.696	13.61	76.91	169.6	7.746	2.170	1.606	1.868	1.649	1.657	1.679	1.545	1.733	1.571	1.539	1.493	1.435	1.437	1.342	1.220	0.968	1.023	1.125	0.865	0.830	0.922	0.855	0.843	0.765	0.599	0.642	0.571	0.593	0.524	0.557	0.591	0.463	0.505	0.417	0.448	0.413	0.415	0.407	0.597	0.508	0.437	0.320	0.389	0.335	0.345	0.340	0.310	0.354	0.281	0.408	0.329	0.311	0.307	0.326	0.335
640.0	13.20	16.17	17.17	16.06	10.94	11.96	13.36	14.25	12.89	13.11	14.57	18.58	18.01	18.93	21.03	12.33	8.664	5.430	5.905	30.42	163.5	53.15	1.904	1.661	1.575	1.496	1.308	1.335	1.359	1.483	1.660	1.099	1.442	1.125	1.267	1.165	1.092	1.040	0.893	0.879	0.736	0.929	0.767	0.702	0.709	0.728	0.587	0.540	0.542	0.473	0.426	0.413	0.552	0.428	0.343	0.358	0.450	0.362	0.413	0.302	0.457	0.446	0.406	0.358	0.346	0.313	0.277	0.289	0.395	0.269	0.274	0.339	0.350	0.403	0.308	0.236	0.337
645.0	8.703	13.30	14.18	15.63	9.280	13.93	12.46	11.21	11.27	14.29	16.34	17.17	18.11	17.59	20.60	14.26	9.007	5.520	4.791	10.55	94.74	135.6	2.612	1.447	1.564	1.247	1.424	1.248	1.296	1.352	1.297	1.106	1.166	1.110	1.155	0.975	1.118	1.160	0.863	0.819	0.721	0.791	0.643	0.739	0.631	0.575	0.634	0.469	0.576	0.430	0.373	0.338	0.412	0.426	0.397	0.328	0.491	0.452	0.347	0.400	0.464	0.455	0.424	0.355	0.380	0.413	0.292	0.318	0.317	0.299	0.344	0.326	0.352	0.326	0.310	0.259	0.208
650.0	7.301	17.04	16.54	18.10	12.90	11.67	10.40	10.73	13.05	14.65	16.59	17.13	17.64	16.62	19.13	17.89	9.125	6.530	4.320	4.954	41.05	167.0	19.50	1.251	1.235	1.191	1.096	1.276	1.030	1.105	0.978	1.108	1.061	1.120	0.986	0.727	0.968	0.884	0.760	0.753	0.602	0.656	0.532	0.627	0.598	0.463	0.422	0.489	0.439	0.416	0.366	0.382	0.350	0.435	0.338	0.358	0.436	0.321	0.334	0.390	0.352	0.411	0.440	0.381	0.355	0.313	0.347	0.331	0.308	0.358	0.277	0.261	0.264	0.395	0.361	0.326	0.274
