Sample:	'1
File name:	c2025052205新塌河南支流.FD3
Run date:	'12:54:32, 05/23/2025
Operator:	Administrator
Comment:	'

Instrument
Model:	F-2700 FL Spectrophotometer
Serial number:	23B8-004
ROM Version:	4J14000 07

Instrument parameters
Measurement type:	3-D scan
Data mode:	Fluorescence
EX  Start WL:	220.0 nm
EX  End WL:	600.0 nm
EX Sampling interval:	5.0 nm
EM  Start WL:	230.0 nm
EM  End WL:	650.0 nm
EM Sampling interval:	5.0 nm
Scan speed:	12000 nm/min
EX Slit:	5.0 nm
EM Slit:	5.0 nm
PMT Voltage:	700 V
Response:	Auto 
Corrected spectra:	Off
Contour interval:	50.000

Peak integration
Integration method:	Rectangular
Sensitivity:	1
Threshold:	1.000

Peaks
No.	ApexEX/EM(nm)	Height(Data)
1	225.0/345.0	2128
2	225.0/355.0	2101
3	225.0/380.0	2015
4	225.0/615.0	82.05
5	225.0/630.0	80.57
6	255.0/280.0	621.5
7	255.0/555.0	200.5
8	260.0/570.0	160.5
9	265.0/585.0	146.4
10	270.0/300.0	1272
11	270.0/595.0	132.3
12	275.0/305.0	1485
13	275.0/345.0	1773
14	275.0/610.0	113.2
15	280.0/310.0	1386
16	280.0/625.0	96.48
17	285.0/635.0	71.65
18	505.0/275.0	3.476
19	515.0/280.0	3.626
20	520.0/285.0	3.967
21	525.0/435.0	7.160
22	530.0/290.0	4.490
23	530.0/440.0	7.169
24	540.0/295.0	6.634
25	545.0/300.0	7.607
26	555.0/305.0	7.686
27	560.0/345.0	8.544
28	565.0/360.0	8.557
29	575.0/355.0	8.712

Data points
	220.0	225.0	230.0	235.0	240.0	245.0	250.0	255.0	260.0	265.0	270.0	275.0	280.0	285.0	290.0	295.0	300.0	305.0	310.0	315.0	320.0	325.0	330.0	335.0	340.0	345.0	350.0	355.0	360.0	365.0	370.0	375.0	380.0	385.0	390.0	395.0	400.0	405.0	410.0	415.0	420.0	425.0	430.0	435.0	440.0	445.0	450.0	455.0	460.0	465.0	470.0	475.0	480.0	485.0	490.0	495.0	500.0	505.0	510.0	515.0	520.0	525.0	530.0	535.0	540.0	545.0	550.0	555.0	560.0	565.0	570.0	575.0	580.0	585.0	590.0	595.0	600.0
230.0	105.4	2490	5959	1939	75.61	11.67	9.409	7.884	6.782	6.751	6.077	5.719	5.184	4.413	4.028	3.315	2.899	2.747	2.581	2.281	1.948	1.993	1.853	1.735	1.467	1.560	1.302	1.242	1.244	1.268	1.207	1.113	0.989	0.997	0.859	0.782	0.799	0.740	0.665	0.667	0.756	0.840	0.807	0.670	0.570	0.598	3.025	13.25	21.49	15.15	5.170	1.065	0.408	0.373	0.376	0.367	0.396	0.372	0.362	0.372	0.375	0.329	0.350	0.353	0.373	0.335	0.339	0.321	0.350	0.321	0.365	0.353	0.363	0.348	0.332	0.337	0.344
235.0	157.5	671.2	3517	5898	2233	125.2	14.11	9.028	8.873	8.176	5.741	6.871	5.706	4.765	4.139	3.735	3.244	2.946	2.608	2.331	2.202	1.990	2.028	1.639	1.667	1.531	1.431	1.506	1.318	1.317	1.227	1.024	0.971	1.004	0.920	0.758	0.791	0.694	0.629	0.681	0.667	0.632	0.824	0.939	0.737	0.660	1.138	3.630	8.040	14.21	19.94	19.94	10.16	1.973	0.462	0.399	0.431	0.415	0.417	0.364	0.429	0.354	0.354	0.345	0.399	0.327	0.318	0.316	0.360	0.342	0.306	0.308	0.363	0.389	0.293	0.366	0.389
240.0	220.8	265.8	1015	4868	5422	542.8	69.14	11.34	10.27	8.078	7.610	6.885	5.926	5.437	4.310	3.550	3.290	3.159	2.837	2.697	2.326	1.914	1.895	1.681	1.809	1.594	1.488	1.458	1.435	1.271	1.145	1.024	0.873	1.014	1.048	0.818	0.874	0.769	0.722	0.692	0.613	0.543	0.662	0.841	0.841	0.913	0.869	1.200	2.195	4.251	10.41	25.09	29.23	20.05	7.893	1.325	0.476	0.440	0.492	0.364	0.408	0.386	0.401	0.311	0.354	0.405	0.347	0.364	0.355	0.361	0.379	0.291	0.312	0.370	0.339	0.357	0.327
245.0	154.5	262.2	306.6	1604	6442	6598	428.9	33.18	11.93	8.991	8.657	8.454	6.599	6.332	4.891	3.736	3.640	2.985	2.915	2.681	2.509	2.038	2.157	1.776	2.002	1.502	1.518	1.254	1.362	1.199	1.250	1.115	1.052	1.001	0.909	0.848	0.793	0.839	0.779	0.646	0.620	0.655	0.700	0.711	0.707	0.792	1.204	1.056	0.979	1.329	2.740	8.120	22.02	37.27	29.54	18.10	5.319	0.731	0.489	0.389	0.451	0.368	0.341	0.394	0.401	0.408	0.389	0.359	0.395	0.343	0.399	0.323	0.350	0.372	0.345	0.326	0.356
250.0	77.20	168.6	278.7	463.7	2004	6185	8360	1562	120.7	14.78	11.76	9.471	7.875	6.765	5.724	4.527	3.798	3.159	2.970	2.964	2.604	2.201	2.254	1.968	1.931	1.702	1.699	1.437	1.517	1.332	1.441	1.160	0.957	0.951	0.950	0.843	0.777	0.786	0.865	0.726	0.647	0.679	0.687	0.642	0.622	0.671	0.857	1.096	1.131	1.131	1.181	2.220	5.545	11.69	20.98	33.87	38.25	39.35	15.39	6.068	0.872	0.478	0.387	0.417	0.371	0.388	0.404	0.382	0.336	0.436	0.374	0.388	0.388	0.378	0.367	0.419	0.381
255.0	64.28	73.53	176.9	345.2	549.5	1524	5982	9999.9	2295	147.9	17.12	13.29	11.28	7.907	6.570	5.465	3.924	3.682	3.249	3.243	2.743	2.451	2.359	2.274	1.989	1.828	1.605	1.691	1.545	1.403	1.411	1.301	1.172	1.095	0.971	0.897	0.868	0.788	0.805	0.712	0.734	0.690	0.661	0.716	0.558	0.631	0.671	0.687	0.762	1.084	1.318	1.604	1.882	3.033	5.203	8.328	14.40	38.48	70.33	72.98	23.61	7.223	0.726	0.537	0.413	0.392	0.475	0.414	0.411	0.403	0.358	0.383	0.401	0.333	0.410	0.456	0.359
260.0	56.70	50.53	86.65	254.7	375.4	421.4	1730	9230	9999.9	1870	99.64	17.30	13.83	9.728	7.529	5.988	4.567	4.016	3.644	3.113	2.876	2.529	2.544	2.446	2.091	1.864	1.807	1.528	1.610	1.580	1.471	1.257	1.197	1.133	0.973	0.940	1.006	0.820	0.850	0.717	0.722	0.792	0.643	0.711	0.690	0.632	0.558	0.674	0.517	0.673	0.921	1.638	2.001	1.577	1.680	2.351	3.814	10.29	29.21	67.42	94.62	32.55	20.26	3.554	0.616	0.450	0.534	0.464	0.437	0.476	0.405	0.401	0.408	0.386	0.411	0.434	0.411
265.0	58.76	48.32	48.86	129.2	362.4	310.3	457.0	2988	9999.9	9999.9	1442	49.62	18.43	12.41	9.886	6.988	5.200	4.033	4.338	3.346	3.316	2.664	2.671	2.445	2.225	2.119	1.865	1.570	1.549	1.579	1.530	1.568	1.267	1.135	0.998	1.064	0.978	0.859	0.874	0.852	0.698	0.728	0.660	0.667	0.714	0.627	0.605	0.638	0.577	0.519	0.585	1.065	1.764	2.104	1.674	1.274	1.407	2.842	7.183	19.33	50.69	88.75	113.6	30.49	14.59	1.589	0.653	0.546	0.524	0.478	0.430	0.532	0.484	0.411	0.437	0.411	0.470
270.0	72.83	59.80	52.68	65.99	183.3	376.8	370.0	757.8	3303	9999.9	9999.9	5328	92.04	20.77	13.56	9.792	7.007	5.617	4.813	4.125	3.650	3.136	2.797	2.620	2.450	2.316	2.103	1.858	1.845	1.770	1.748	1.520	1.361	1.276	1.116	1.049	1.006	0.890	0.899	0.923	0.818	0.896	0.783	0.802	0.729	0.735	0.653	0.587	0.573	0.557	0.570	0.663	0.915	1.313	1.882	2.267	2.136	1.938	2.239	4.956	12.19	25.27	53.63	78.66	108.3	87.65	60.48	10.55	1.932	0.664	0.535	0.590	0.551	0.505	0.430	0.467	0.519
275.0	137.1	102.7	84.82	76.36	114.8	224.3	506.9	464.1	829.7	2462	9036	9999.9	7753	112.2	21.27	14.33	10.68	7.197	5.974	4.977	4.452	3.639	3.270	3.084	2.747	2.575	2.345	2.146	2.125	1.956	1.805	1.686	1.505	1.435	1.253	1.073	1.121	0.997	1.000	0.939	0.895	1.047	0.959	0.913	0.833	0.910	0.758	0.752	0.701	0.588	0.577	0.722	0.805	0.990	1.133	1.482	2.386	3.476	2.864	2.236	3.518	6.363	12.88	18.63	30.63	62.26	138.9	166.3	31.72	15.57	1.563	0.745	0.674	0.639	0.511	0.528	0.569
280.0	199.0	159.6	137.8	125.9	147.8	198.9	371.1	621.5	420.6	713.4	2558	9999.9	9999.9	1175	74.44	21.03	13.41	9.447	7.528	5.816	5.139	4.243	3.821	3.524	2.985	2.802	2.473	2.178	2.130	2.094	1.905	1.515	1.440	1.591	1.311	1.178	1.119	1.121	1.063	1.104	1.005	1.207	1.158	1.164	0.943	1.007	0.955	1.009	0.869	0.743	0.685	0.921	0.902	1.101	1.208	1.296	1.600	2.520	3.496	3.626	2.472	2.479	3.820	5.314	8.043	16.03	45.03	107.2	164.8	166.5	28.51	10.15	1.035	0.741	0.577	0.711	0.653
285.0	275.8	238.0	201.5	169.9	195.9	224.8	272.7	524.4	627.2	405.1	848.6	3263	9999.9	9999.9	914.9	46.33	18.72	12.62	9.363	6.540	5.704	4.363	4.173	3.687	3.203	2.998	2.778	2.730	2.111	2.450	2.162	1.738	1.574	1.612	1.467	1.319	1.198	1.176	1.116	1.187	1.172	1.253	1.131	1.196	1.138	1.251	1.097	1.043	1.129	1.074	0.856	1.050	1.185	1.360	1.397	1.288	1.500	1.678	2.233	3.362	3.967	3.088	2.501	2.609	3.312	5.382	11.66	27.46	62.86	139.7	189.1	149.7	23.24	4.715	0.816	0.688	0.802
290.0	424.8	420.4	345.8	274.5	269.1	281.6	289.0	351.2	633.8	779.2	685.2	1156	3389	9999.9	9999.9	3667	61.45	19.15	13.44	9.329	7.038	5.855	4.852	4.285	3.786	3.329	3.003	2.920	2.678	2.598	2.057	1.875	1.751	1.754	1.431	1.409	1.388	1.399	1.218	1.334	1.403	1.341	1.434	1.487	1.477	1.548	1.468	1.595	1.462	1.304	1.194	1.410	1.437	1.589	1.548	1.513	1.735	1.802	1.814	2.173	3.058	3.829	4.490	4.189	3.465	3.739	4.890	8.442	16.54	35.38	66.23	112.0	138.3	106.5	99.91	16.48	6.268
295.0	605.1	590.3	505.0	388.7	327.7	323.4	322.7	335.9	463.5	837.6	1123	877.3	1207	2549	7899	9999.9	5308	73.12	19.94	13.24	10.06	7.268	5.917	5.132	4.449	3.943	3.512	3.130	2.776	2.846	2.233	2.189	2.062	2.023	1.664	1.433	1.415	1.418	1.441	1.566	1.375	1.469	1.742	1.793	1.901	2.034	1.934	2.013	1.959	1.645	1.472	1.798	1.618	1.738	1.834	1.683	1.919	1.863	1.996	1.852	2.297	2.870	3.372	5.410	6.634	5.681	4.014	4.762	6.559	10.24	16.66	26.54	34.02	48.49	129.3	203.1	167.9
300.0	741.9	744.4	655.7	465.4	360.1	340.4	350.2	365.2	471.0	721.5	1272	1155	842.6	915.9	2155	9999.9	9999.9	3883	53.71	17.98	12.32	9.185	6.882	6.169	5.187	4.636	3.606	3.517	3.012	2.717	2.640	2.587	2.106	1.903	1.892	1.599	1.435	1.507	1.694	1.682	1.792	1.638	1.899	2.052	2.136	2.235	2.372	2.502	2.436	1.908	1.678	1.798	1.765	1.840	1.993	1.888	2.060	1.887	2.020	2.207	2.410	2.724	3.211	4.146	5.749	7.607	6.309	5.165	4.728	5.015	6.144	8.023	9.448	12.50	34.99	89.63	185.5
305.0	877.9	930.9	790.8	544.2	388.5	359.3	384.0	424.4	526.6	727.0	1089	1485	982.0	653.1	749.7	2902	9999.9	9999.9	591.1	34.97	15.92	11.67	8.296	7.215	5.579	5.060	4.166	3.636	3.415	2.938	2.819	2.628	2.053	2.164	1.904	1.580	1.619	1.665	1.795	1.866	1.926	2.114	2.108	2.354	2.477	2.596	2.675	2.927	2.786	2.309	1.976	2.083	1.979	1.837	1.869	1.973	1.991	2.137	2.309	2.441	2.688	2.876	3.352	4.146	4.726	6.126	7.223	7.686	6.161	4.769	4.013	4.373	4.475	4.607	9.332	21.85	54.50
310.0	1033	1081	959.7	607.7	415.3	376.4	411.3	482.5	622.6	812.8	1060	1355	1386	873.7	558.3	862.3	3022	9999.9	9999.9	2535	44.83	16.81	11.84	9.033	6.750	5.512	4.523	4.051	3.769	3.330	3.097	2.814	2.487	2.120	1.873	1.730	1.816	1.769	1.742	1.951	2.045	2.306	2.293	2.740	2.786	2.967	2.996	3.275	3.233	2.587	2.144	2.172	2.124	1.912	1.859	2.083	2.216	2.381	2.604	2.759	2.988	3.401	3.920	4.347	4.725	5.585	5.896	6.855	7.273	6.884	5.732	4.450	3.748	3.560	3.866	6.582	13.60
315.0	1253	1301	1118	687.0	453.2	401.5	463.6	546.3	720.4	926.2	1144	1295	1363	1319	736.0	492.1	842.8	2383	7796	9999.9	3898	52.71	17.13	11.95	8.777	6.703	5.598	4.819	4.395	3.986	3.572	2.803	2.490	2.323	2.070	1.960	1.770	1.895	1.883	1.930	2.153	2.536	2.509	2.919	2.975	3.405	3.450	3.581	3.591	2.966	2.409	2.357	2.165	2.127	2.052	2.067	2.263	2.449	3.019	2.977	3.373	3.905	4.380	5.099	5.034	5.743	6.035	6.330	6.645	6.850	7.196	7.280	5.615	4.173	3.253	3.561	4.690
320.0	1377	1467	1223	786.9	498.0	432.6	482.8	608.6	791.3	1019	1248	1370	1352	1345	1039	501.4	399.7	659.4	1996	9999.9	9999.9	2996	39.36	16.14	11.43	8.021	6.639	5.747	4.772	4.168	3.910	3.160	2.770	2.342	2.180	2.000	1.741	1.747	2.021	1.942	2.320	2.726	2.755	3.197	3.188	3.639	3.747	4.211	3.871	3.402	2.592	2.498	2.386	2.176	2.192	2.250	2.435	2.646	2.946	3.393	3.715	4.239	5.032	5.306	5.315	6.058	6.323	6.548	6.849	6.679	6.820	7.044	7.021	5.966	4.052	3.122	3.187
325.0	1528	1664	1404	909.0	549.9	463.3	535.6	666.2	874.3	1106	1344	1465	1428	1286	1193	700.6	360.9	309.4	552.1	2843	9999.9	9999.9	455.9	26.61	14.56	10.29	7.369	6.443	5.554	4.507	3.980	3.402	3.073	2.707	2.295	2.058	2.125	2.042	1.950	2.126	2.332	2.585	3.071	3.415	3.769	4.164	4.422	4.800	4.466	3.728	2.953	2.793	2.553	2.201	2.295	2.369	2.544	2.866	3.364	3.352	4.151	4.654	5.257	5.849	5.745	6.426	6.761	6.738	6.978	7.221	7.022	6.418	6.806	7.119	5.927	4.348	3.168
330.0	1692	1865	1625	1055	645.3	533.5	596.5	743.5	960.4	1209	1462	1585	1555	1354	1141	911.8	557.0	314.0	279.9	741.4	3021	9999.9	9999.9	1887	37.04	15.65	10.38	8.227	6.526	5.363	4.646	3.922	3.346	2.796	2.582	2.172	2.113	2.043	1.888	2.203	2.437	2.696	3.106	3.632	4.194	4.630	4.699	5.176	4.979	4.158	3.423	3.215	2.807	2.582	2.475	2.500	2.968	3.078	3.649	3.919	4.452	4.925	5.750	6.131	6.327	6.968	7.131	7.259	7.457	7.699	7.446	6.963	6.507	6.395	6.054	5.821	4.854
335.0	1738	1966	1747	1138	739.2	609.5	676.3	815.1	1025	1306	1541	1696	1649	1462	1177	895.8	788.7	497.1	298.7	327.7	787.1	2373	8158	9999.9	3218	44.91	15.69	10.88	7.788	6.355	5.628	4.566	3.766	3.062	2.558	2.249	2.276	2.130	2.260	2.186	2.473	2.737	3.322	3.745	4.667	4.989	5.055	5.546	5.428	4.398	3.684	3.544	3.139	3.032	2.802	2.827	3.101	3.458	3.882	4.101	4.645	5.069	5.796	6.532	6.914	7.376	7.511	7.740	7.675	8.132	8.027	7.531	6.918	6.480	5.926	5.371	5.312
340.0	1824	2040	1856	1244	811.7	689.1	728.7	868.2	1086	1349	1595	1743	1713	1522	1241	915.7	785.7	695.8	400.7	287.9	336.4	647.3	2126	9999.9	9999.9	2513	34.72	13.77	9.983	7.630	6.228	5.142	3.810	3.391	3.149	2.478	2.218	2.088	2.229	2.519	2.570	2.896	3.519	3.514	4.566	5.057	5.474	5.853	5.788	5.015	3.833	3.963	3.528	3.052	3.109	3.206	3.631	3.868	4.290	4.359	4.679	5.661	6.146	6.702	6.898	7.685	7.651	7.911	8.224	8.366	8.106	7.782	7.519	7.019	6.140	5.351	4.962
345.0	1850	2128	1919	1302	871.4	764.6	792.8	921.0	1131	1378	1635	1773	1736	1560	1302	977.1	778.8	761.9	594.4	360.8	293.8	309.9	598.3	2991	9999.9	9999.9	395.7	22.73	12.65	9.222	7.224	5.320	4.164	3.813	3.185	2.437	2.342	2.287	2.286	2.626	2.489	2.933	3.664	3.915	4.633	5.016	5.397	5.967	5.755	4.987	4.046	4.262	3.584	3.446	3.311	3.268	3.960	3.861	4.280	4.633	5.020	5.567	6.112	6.844	7.192	7.878	7.837	8.100	8.544	8.398	8.249	7.850	7.446	7.070	6.665	5.609	5.339
350.0	1869	2079	1896	1364	987.7	873.4	876.9	979.9	1171	1404	1640	1760	1746	1589	1353	1068	864.1	775.5	749.0	576.6	410.3	330.6	332.2	813.4	3228	9999.9	9999.9	1652	32.07	12.81	9.167	6.892	5.213	4.292	3.365	2.893	2.513	2.393	2.411	2.445	2.607	2.935	3.640	3.841	4.402	5.204	5.559	5.872	5.608	4.999	4.177	4.377	4.145	3.795	3.756	3.600	3.984	4.118	4.549	4.821	5.167	5.723	6.532	6.948	7.351	7.765	8.028	8.087	8.507	8.422	8.129	7.962	7.610	7.493	6.790	6.138	5.940
355.0	1812	2101	1857	1430	1104	985.1	992.2	1059	1226	1426	1650	1760	1741	1605	1404	1157	983.5	864.8	803.3	789.0	609.3	451.0	367.6	398.3	866.1	2405	8417	9999.9	2797	36.90	13.27	9.151	6.486	4.920	3.851	3.123	2.824	2.616	2.591	2.422	2.715	3.095	3.605	4.029	4.496	4.988	5.280	5.707	5.491	4.985	4.335	4.651	4.507	4.032	4.168	4.105	4.165	4.673	4.747	5.176	5.679	6.037	6.613	6.904	7.181	7.600	7.802	8.254	8.181	8.368	8.469	8.712	7.884	7.754	6.849	6.617	6.389
360.0	1840	2090	1876	1477	1207	1078	1071	1125	1281	1459	1653	1759	1744	1609	1443	1217	1063	951.8	884.8	841.7	810.2	582.3	450.2	366.2	387.4	665.4	2252	9999.9	9999.9	2137	26.33	11.22	8.259	6.024	4.609	3.478	3.279	2.886	2.497	2.646	2.910	3.020	3.642	4.115	4.463	5.146	5.204	5.770	5.661	5.125	4.519	4.902	4.859	4.544	4.620	4.550	4.677	4.779	4.963	5.239	5.890	6.324	6.491	7.154	7.239	7.898	7.710	8.004	8.336	8.557	8.208	8.510	8.122	7.960	7.177	7.034	7.034
365.0	1810	2057	1893	1556	1299	1159	1150	1164	1305	1483	1657	1749	1728	1622	1467	1265	1136	1046	974.7	896.1	885.3	764.8	556.7	416.6	330.9	316.0	615.0	3129	9999.9	9999.9	352.5	18.42	10.26	7.065	5.122	4.180	3.241	3.009	2.730	2.765	2.864	3.048	3.693	4.275	4.656	4.967	5.198	5.591	5.628	5.098	4.644	5.043	5.098	4.794	5.012	4.758	4.930	4.948	5.293	5.299	5.931	6.466	6.816	7.146	7.517	7.771	7.331	7.843	8.064	8.534	8.064	8.492	8.222	7.726	7.719	7.511	7.264
370.0	1821	2005	1906	1621	1381	1262	1235	1247	1352	1500	1655	1718	1701	1615	1479	1316	1208	1142	1079	1008	939.8	891.2	748.8	540.5	399.3	304.7	298.0	807.5	3341	9999.9	9999.9	1480	26.87	10.18	6.911	5.080	3.980	3.365	3.080	2.966	2.989	3.357	3.732	4.203	4.593	5.112	5.202	5.836	5.482	5.242	4.740	5.324	5.347	5.107	5.442	5.051	5.384	5.345	5.818	5.725	6.114	6.580	6.983	7.234	7.435	7.959	7.506	7.820	7.948	8.032	8.150	8.126	8.036	8.086	7.922	7.754	7.945
375.0	1843	1996	1934	1665	1471	1383	1297	1320	1383	1509	1631	1696	1673	1593	1471	1343	1259	1214	1172	1108	1027	939.3	887.6	716.7	502.7	372.8	286.6	332.9	846.1	2408	8933	9999.9	2381	30.33	10.29	6.844	4.875	3.732	3.641	3.319	2.880	3.292	4.148	4.218	4.918	5.322	5.232	5.849	5.944	5.243	4.780	5.440	5.705	5.582	5.912	5.765	5.807	6.001	6.136	5.987	6.340	6.176	6.978	7.243	7.512	7.622	7.860	7.839	7.957	7.808	8.052	8.345	7.757	8.339	8.042	7.642	8.112
380.0	1809	2015	1961	1725	1526	1439	1375	1362	1404	1510	1623	1661	1628	1573	1465	1352	1281	1249	1211	1165	1086	989.4	913.0	827.6	610.6	438.9	329.0	265.5	321.2	629.1	2413	9999.9	9999.9	344.2	21.46	9.055	6.040	4.520	4.043	3.649	3.333	3.601	4.067	4.324	4.816	5.412	5.040	5.912	5.693	5.138	4.876	5.668	5.888	5.617	6.078	5.841	6.052	6.158	6.211	5.968	6.361	6.480	7.162	7.367	7.572	7.447	7.810	7.653	7.755	7.747	7.738	7.962	8.072	8.188	8.125	7.997	8.133
385.0	1684	1962	1947	1697	1560	1470	1410	1386	1416	1506	1601	1637	1600	1547	1450	1345	1294	1263	1237	1196	1124	1041	939.3	864.4	734.1	514.1	385.2	291.5	241.8	262.9	625.4	3128	9999.9	9999.9	284.8	14.20	7.737	5.692	4.433	3.634	3.531	3.685	3.782	4.230	4.854	5.238	5.321	5.687	5.678	5.438	5.141	5.768	6.110	6.050	6.246	5.477	6.250	6.422	6.189	6.234	6.159	6.777	6.981	7.051	7.495	7.689	7.612	7.609	7.547	7.533	7.526	7.888	8.000	8.042	7.894	7.983	8.458
390.0	1693	1938	1915	1761	1598	1505	1453	1424	1429	1503	1578	1593	1560	1507	1422	1326	1278	1266	1240	1208	1152	1081	989.8	882.4	803.3	659.2	487.5	367.4	285.3	232.7	265.3	786.9	3173	9999.9	9999.9	1171	21.75	8.233	5.684	4.385	3.838	3.991	4.090	4.419	5.049	5.235	5.016	5.686	5.993	5.406	4.998	5.947	6.167	5.905	6.399	5.926	6.542	6.726	6.527	6.536	6.319	6.862	6.822	7.110	7.304	7.479	7.514	7.289	7.491	7.595	7.452	7.698	7.873	8.009	7.829	7.523	8.255
395.0	1666	1873	1915	1800	1654	1535	1493	1453	1465	1498	1546	1556	1517	1475	1388	1288	1256	1237	1221	1208	1166	1100	1028	929.5	835.4	748.6	629.2	468.4	368.4	288.2	237.1	300.7	794.2	2377	7111	9999.9	1959	25.90	8.504	5.835	4.817	4.287	4.504	4.800	4.773	5.559	4.992	5.624	5.790	5.060	5.180	5.941	6.216	6.219	6.027	6.082	6.578	6.855	6.681	6.737	6.819	6.835	6.895	6.967	7.404	7.520	7.192	7.551	7.477	7.416	7.450	7.629	7.759	7.785	7.622	7.831	7.938
400.0	1610	1857	1880	1795	1649	1566	1508	1466	1461	1477	1526	1521	1494	1434	1355	1263	1228	1205	1205	1190	1158	1118	1042	960.1	857.9	771.7	710.2	560.4	437.4	346.1	268.9	224.8	286.0	606.4	1888	8845	9999.9	296.6	18.54	7.400	5.686	4.882	4.659	4.755	4.878	5.511	5.056	6.097	5.518	5.373	5.259	5.884	6.538	6.345	6.446	5.960	6.449	6.731	6.700	6.859	6.620	6.548	6.741	6.607	7.018	7.312	7.277	7.460	7.180	7.348	7.128	7.334	7.627	7.531	7.451	7.641	7.941
405.0	1621	1831	1864	1763	1661	1578	1531	1488	1471	1509	1518	1509	1461	1414	1335	1240	1200	1172	1169	1163	1137	1109	1047	980.8	888.1	796.9	738.3	650.7	508.4	402.7	316.1	242.5	200.9	229.6	487.6	2573	9999.9	9248	257.3	12.48	6.980	5.494	5.138	4.664	4.870	5.360	4.830	5.949	5.770	5.329	5.041	6.017	6.914	6.209	6.373	6.129	6.873	6.503	6.580	6.674	6.774	6.903	7.097	7.154	7.014	6.979	6.668	6.911	7.002	7.374	7.139	7.500	7.634	7.277	7.344	7.370	7.803
410.0	1568	1787	1805	1734	1656	1593	1546	1503	1483	1490	1508	1487	1433	1374	1288	1190	1152	1127	1117	1116	1098	1078	1040	989.6	911.3	830.1	754.9	701.6	618.8	490.8	386.7	296.5	223.6	178.4	196.8	636.8	2842	7785	8429	1092	19.68	7.448	6.140	5.272	5.148	5.429	4.993	5.801	5.626	5.366	5.171	6.060	6.705	6.173	6.642	6.331	6.982	6.684	6.681	6.913	6.690	6.886	6.878	6.854	7.329	6.922	7.041	6.805	6.833	7.076	7.134	7.124	7.097	7.169	6.818	7.085	7.260
415.0	1577	1690	1770	1702	1641	1564	1535	1517	1492	1487	1492	1457	1398	1328	1239	1144	1096	1071	1056	1055	1044	1038	1009	979.2	924.1	852.8	784.0	721.2	670.6	592.2	458.5	352.5	268.5	199.7	159.4	223.3	688.7	1831	5121	9598	1765	24.38	8.123	6.442	5.855	5.892	5.212	5.754	5.734	5.464	5.034	6.247	6.481	6.382	6.453	6.447	6.850	7.248	6.843	6.926	6.840	7.106	6.978	6.925	7.001	6.665	6.991	6.938	6.856	6.929	7.059	6.771	6.749	6.776	6.728	6.797	7.070
420.0	1430	1620	1687	1661	1605	1565	1541	1506	1473	1460	1477	1449	1369	1279	1197	1094	1044	1020	997.1	999.9	1003	990.2	979.4	960.2	910.8	856.2	791.0	734.0	680.8	643.1	523.1	396.1	302.5	228.1	169.2	145.6	220.9	454.5	1327	6506	8787	276.2	18.33	7.392	6.125	6.065	5.376	5.773	5.613	5.182	4.928	6.015	6.325	6.421	6.348	6.321	6.854	6.716	6.917	6.761	6.808	7.074	6.991	7.154	7.131	6.598	6.846	6.532	6.309	6.466	6.535	6.767	6.627	6.801	6.637	6.550	6.565
425.0	1421	1611	1654	1613	1584	1534	1525	1513	1479	1473	1468	1407	1334	1241	1153	1059	1000	965.0	948.0	948.8	946.7	949.0	945.2	932.8	903.7	853.6	797.3	740.7	690.0	647.4	571.3	441.4	331.9	252.0	190.8	143.0	128.2	157.2	335.1	1811	7376	7080	245.0	12.45	7.260	6.406	5.552	5.677	5.756	5.194	5.072	5.993	6.469	6.029	6.272	6.189	6.634	6.634	6.923	7.018	6.517	6.920	6.950	7.230	7.117	6.781	6.523	6.529	6.449	6.410	6.577	6.492	6.331	6.447	6.185	6.566	6.403
430.0	1719	1558	1595	1573	1561	1520	1509	1496	1485	1476	1455	1404	1312	1214	1119	1012	938.7	908.9	893.7	887.3	891.4	894.4	903.2	891.4	874.5	839.0	799.5	750.9	703.4	648.8	592.7	500.6	379.9	286.1	220.5	165.9	127.3	106.1	125.0	440.3	1989	5345	6397	1030	20.12	7.983	6.247	6.018	5.767	5.110	4.904	5.755	6.289	6.149	6.244	6.342	6.788	6.795	6.889	6.761	6.777	6.809	6.877	6.894	6.808	6.638	6.634	6.433	6.596	6.455	6.331	6.411	6.287	6.298	6.193	6.287	6.111
435.0	2728	1566	1550	1513	1484	1491	1495	1477	1482	1475	1450	1395	1277	1189	1071	957.4	887.1	847.6	831.5	831.4	834.6	840.0	848.3	850.1	839.1	814.8	783.0	755.3	711.6	667.1	595.8	526.4	436.8	330.7	252.4	192.7	146.4	109.9	92.23	144.2	477.5	1240	3445	7682	1760	26.07	7.904	6.446	5.907	5.274	5.074	5.727	6.221	6.335	6.102	6.240	6.831	6.539	6.829	6.753	6.729	7.160	6.883	6.584	6.750	6.789	6.792	6.468	6.570	6.251	5.848	6.192	6.004	6.114	6.274	5.949	5.992
440.0	4140	1877	1498	1469	1467	1455	1483	1459	1464	1471	1429	1368	1257	1153	1035	916.5	852.0	811.3	785.2	788.8	786.1	796.9	809.4	816.5	809.5	794.0	770.0	744.2	713.5	667.3	603.5	524.6	461.1	367.5	276.4	213.3	163.6	121.9	93.84	87.37	146.6	306.9	867.4	4737	7718	1456	18.99	7.950	6.290	5.329	5.296	5.770	6.025	6.058	6.065	6.235	6.824	6.737	6.999	6.870	6.505	6.924	7.169	6.711	7.024	6.815	6.497	6.486	6.379	6.135	5.972	6.203	6.002	5.613	5.579	5.419	5.533
445.0	4416	2964	1441	1434	1419	1395	1446	1425	1437	1436	1410	1350	1248	1114	1002	878.6	809.0	771.6	750.8	737.9	736.7	754.9	772.6	777.9	771.4	764.2	750.1	723.8	703.9	661.3	602.5	526.6	459.0	393.2	299.4	228.1	177.3	134.7	102.9	82.57	79.79	103.6	221.1	1262	5750	6952	220.6	15.01	7.386	5.764	5.183	5.874	6.174	5.694	5.959	6.008	6.787	6.443	6.749	6.666	6.628	6.810	6.861	6.793	6.582	6.605	6.492	6.289	6.360	6.054	5.993	5.983	5.950	5.419	5.323	5.332	5.462
450.0	2743	4581	2001	1365	1339	1348	1372	1385	1392	1393	1370	1300	1187	1065	941.4	821.4	751.3	709.0	689.1	673.6	676.9	688.2	704.3	710.5	716.9	712.1	704.1	687.2	675.6	642.6	588.7	518.5	446.4	389.2	326.8	252.0	194.0	150.1	117.3	90.99	73.36	64.80	82.08	306.1	1492	4400	5778	2206	18.87	7.188	5.580	6.244	5.859	5.656	5.955	5.987	6.353	6.098	6.324	6.454	6.631	6.510	6.629	6.650	6.495	6.408	6.240	5.765	6.023	5.586	5.824	5.462	5.436	5.301	4.917	5.062	4.959
455.0	1436	4168	3863	1341	1242	1261	1295	1290	1316	1315	1301	1224	1118	999.5	873.7	759.4	689.7	641.8	620.3	612.2	606.3	616.1	634.6	649.0	649.3	650.6	644.6	637.5	630.9	611.3	561.3	499.4	433.3	373.8	321.6	275.8	209.7	163.0	129.4	100.9	79.28	65.82	56.80	97.82	355.8	1008	2491	6362	1588	22.26	7.101	6.404	6.379	5.549	5.690	5.656	6.066	5.983	6.076	6.146	6.284	6.231	6.304	6.362	6.183	5.739	6.180	5.564	5.605	5.097	5.564	5.235	4.997	5.132	4.797	4.851	4.631
460.0	1044	2700	5335	1791	1170	1182	1209	1224	1252	1239	1225	1164	1060	943.4	823.8	704.2	633.4	589.1	568.8	561.3	554.9	563.8	575.9	598.2	599.4	605.0	600.4	594.7	592.4	577.2	533.1	478.6	420.0	359.4	310.7	276.8	223.0	169.6	134.6	109.3	85.20	68.30	54.54	53.61	104.9	245.7	599.4	3181	5998	1266	18.21	7.408	6.367	5.787	5.466	5.325	5.702	5.924	6.181	5.905	6.002	6.048	5.768	6.021	6.048	5.891	5.875	5.499	5.394	5.052	5.191	4.994	4.849	4.768	4.652	4.699	4.358
465.0	877.9	1499	5111	3119	1129	1119	1140	1163	1175	1188	1163	1107	996.8	886.8	771.6	651.4	590.8	550.8	525.1	515.1	510.4	517.5	527.9	542.0	548.9	554.2	554.2	556.2	552.2	539.3	504.6	458.4	402.9	347.7	294.3	261.9	229.1	178.2	138.9	113.5	90.58	71.76	57.46	48.44	51.89	78.02	152.1	791.9	3796	5381	992.4	17.01	6.899	6.082	5.737	5.323	5.753	5.666	5.742	5.696	5.929	5.568	5.528	5.695	5.604	5.417	5.456	5.425	5.146	5.235	4.821	5.163	4.616	4.433	4.291	4.253	4.341
470.0	820.7	1016	2835	4883	1745	1007	1024	1058	1074	1083	1065	1017	906.0	806.4	691.6	590.3	532.3	494.5	464.9	456.1	453.5	457.2	465.4	479.4	486.0	490.2	497.2	497.8	498.7	490.0	465.2	420.0	374.6	324.8	278.7	242.3	213.7	184.8	146.6	116.0	93.20	76.06	60.94	50.54	43.42	43.35	54.67	193.9	942.6	2831	4044	1892	87.68	7.172	5.866	5.147	5.525	5.287	5.181	5.249	5.281	5.324	5.202	5.187	5.362	5.216	4.885	4.888	4.788	4.541	4.498	4.284	4.333	4.121	3.710	3.939	3.715
475.0	751.1	838.3	1304	4138	3824	1032	932.0	957.9	970.0	981.0	973.6	918.1	817.4	725.6	623.2	532.2	472.9	436.2	408.1	399.5	394.2	399.5	407.7	412.5	424.5	427.8	432.4	439.2	442.0	435.5	419.8	381.2	341.6	298.6	260.1	226.5	195.8	174.7	151.6	119.3	95.31	78.29	63.01	53.77	44.05	37.92	35.26	62.19	225.4	645.4	1342	3786	1658	27.13	6.784	5.335	5.360	5.045	4.879	4.700	4.810	4.871	4.602	4.918	4.899	4.852	4.621	4.625	4.455	4.104	4.220	3.785	3.735	3.533	3.494	3.258	3.290
480.0	701.2	769.5	907.6	2418	5260	1526	863.5	886.5	898.0	907.5	902.3	855.4	762.8	669.4	575.1	488.5	434.3	398.1	376.2	363.3	361.6	360.2	368.3	372.9	381.0	389.4	393.7	399.4	405.0	398.4	385.5	353.2	317.4	279.4	246.3	216.5	186.1	163.0	148.5	123.6	97.17	78.51	65.43	55.51	46.06	39.24	32.28	34.51	66.71	157.7	317.0	1510	4063	1468	23.43	6.021	5.392	5.065	4.716	4.709	4.325	4.464	4.460	4.595	4.719	4.588	4.424	4.255	4.087	3.857	3.872	3.563	3.574	3.283	3.283	3.292	3.013
485.0	642.6	754.6	757.1	1267	5073	3023	840.2	825.0	832.5	860.8	849.2	804.1	715.0	631.1	534.6	455.5	403.1	370.9	346.0	336.2	331.5	335.5	335.1	344.5	350.1	359.7	361.2	367.9	373.2	370.9	357.4	330.6	298.8	264.3	233.2	207.8	179.0	155.0	139.4	126.2	100.9	79.40	66.95	56.70	47.24	40.64	34.03	29.72	32.06	50.40	83.62	364.2	2134	4049	1146	17.52	5.894	5.070	4.393	4.461	4.216	4.212	4.454	4.595	4.494	4.182	4.303	4.170	4.221	3.565	3.661	3.307	3.320	3.202	3.072	3.213	3.030
490.0	559.7	700.8	690.7	787.5	2715	4911	1528	760.3	771.3	771.0	764.5	733.0	657.3	573.5	489.0	416.4	366.1	335.3	313.4	304.1	299.5	300.0	303.0	308.8	314.7	320.5	326.3	332.0	337.3	334.6	324.2	303.2	273.5	246.3	216.9	193.9	169.1	146.9	129.9	117.0	104.7	83.41	68.45	57.12	48.99	41.91	35.50	30.62	26.90	27.94	32.39	93.15	512.4	1758	3226	1807	105.2	6.828	4.918	4.557	4.340	4.156	4.251	4.220	4.128	4.004	3.919	3.784	3.619	3.419	3.340	3.173	3.059	2.990	2.897	2.872	2.911
495.0	493.0	596.7	657.5	649.8	1121	4192	3551	794.3	685.9	687.1	693.9	662.3	587.3	515.3	437.4	374.7	328.6	301.7	280.0	269.5	264.7	263.8	266.2	272.8	278.4	281.6	289.7	293.7	298.7	297.0	290.0	270.2	247.1	224.4	198.4	178.3	156.8	137.5	119.7	106.2	98.20	86.30	70.62	57.85	50.57	42.66	36.47	31.28	27.41	24.14	21.93	33.40	124.5	401.2	1016	3201	1877	30.71	6.202	4.646	4.202	3.841	3.992	3.803	3.787	3.730	3.411	3.436	3.369	3.174	3.223	2.991	2.768	2.817	2.619	2.596	2.483
500.0	417.4	521.5	613.9	573.0	668.3	2378	5492	1298	641.5	639.0	629.7	600.9	540.6	474.6	400.5	341.0	297.4	273.3	254.2	244.1	238.8	235.8	240.6	244.2	248.9	251.8	258.8	263.8	271.1	268.4	266.2	248.6	227.9	205.0	182.8	163.7	145.6	128.4	112.1	100.3	90.77	83.79	72.73	58.93	50.32	42.67	37.55	32.32	27.69	23.90	20.31	20.65	38.64	98.79	237.6	1181	3654	1656	26.18	5.296	4.117	4.021	3.862	3.670	3.467	3.336	3.058	2.926	3.052	3.077	2.941	2.938	2.745	2.408	2.392	2.533	2.347
505.0	390.2	467.3	578.6	540.5	539.9	1110	5398	2716	608.6	577.6	574.4	550.8	490.0	430.9	364.5	312.7	273.7	250.9	236.4	223.9	218.0	213.8	217.7	221.6	225.3	229.0	234.1	237.0	243.0	244.3	239.6	224.6	206.7	186.3	169.2	152.7	135.1	120.3	107.1	92.99	83.93	76.41	71.87	59.61	49.67	42.89	37.57	32.31	28.14	23.92	20.56	18.06	20.26	31.87	62.17	279.8	1673	3685	1273	19.51	4.498	3.865	3.800	3.267	3.480	2.999	2.942	2.968	2.862	2.916	2.592	2.481	2.557	2.196	2.318	2.318	2.095
510.0	357.5	391.1	459.8	519.2	465.7	599.7	2839	5239	1243	514.5	512.2	486.7	435.5	380.0	324.7	275.5	241.1	223.5	207.2	197.2	192.4	188.8	190.6	193.1	195.7	198.8	201.5	207.3	211.2	213.8	209.7	196.4	182.7	166.6	150.0	137.0	121.7	108.7	97.11	85.09	76.25	67.82	64.38	59.81	49.82	41.15	36.40	31.66	27.50	23.79	20.87	18.12	16.02	17.25	23.03	70.55	395.4	1490	2680	1080	102.2	5.270	3.816	3.246	3.270	2.835	2.704	2.802	2.688	2.573	2.287	2.224	2.202	2.189	2.026	2.010	2.090
515.0	298.6	340.6	377.9	457.7	427.1	441.3	1000	4764	3690	536.0	448.4	428.1	385.9	331.9	285.3	242.3	211.4	191.2	180.9	172.0	163.6	161.1	163.0	164.4	168.1	171.0	172.7	178.6	180.7	184.0	179.9	168.3	157.6	144.2	131.1	118.2	108.0	96.44	86.49	77.57	68.85	60.58	56.70	54.76	51.13	41.73	35.84	30.89	27.29	23.31	21.13	18.12	15.36	14.12	14.14	24.17	95.36	338.7	781.7	2292	1759	30.78	4.571	3.505	2.907	2.917	2.421	2.479	2.409	2.402	2.206	1.873	2.059	2.018	1.854	1.826	1.575
520.0	277.9	292.4	343.0	396.5	413.7	371.7	509.9	2661	5973	1027	404.7	383.7	343.5	298.0	255.2	214.9	193.7	171.5	163.1	152.3	146.9	145.1	145.4	147.7	149.9	151.7	152.8	156.1	160.1	163.8	159.5	154.2	142.4	129.6	118.1	107.5	97.45	87.04	79.11	70.90	63.61	56.86	51.58	48.92	48.20	43.10	34.72	29.61	26.87	22.78	20.45	17.81	15.55	13.49	12.21	13.55	28.65	81.99	181.9	839.8	2646	1413	24.99	3.911	3.055	2.841	2.202	2.328	2.173	2.147	2.068	1.821	1.813	1.825	1.597	1.694	1.687
525.0	243.5	267.6	294.1	331.4	399.4	342.6	369.6	1089	6242	2167	388.9	349.6	307.7	269.7	234.5	192.4	174.0	156.6	146.2	133.6	132.1	129.7	129.9	131.5	133.3	135.0	137.2	138.7	143.4	145.9	142.1	136.8	124.1	116.9	107.2	97.38	88.67	80.75	72.80	65.20	58.17	52.00	48.00	44.57	44.31	41.98	34.88	29.34	25.62	22.19	20.13	17.01	15.44	13.65	11.71	10.91	14.05	25.32	46.63	198.6	1156	2586	946.2	17.86	3.530	2.811	2.465	2.160	2.032	2.015	1.919	1.874	1.710	1.624	1.532	1.512	1.513
530.0	216.8	238.9	257.9	265.9	338.5	329.7	305.1	481.2	3218	5612	983.2	310.5	270.3	235.7	201.8	172.4	151.5	135.9	129.3	119.6	115.2	113.7	112.3	113.8	115.7	115.0	118.2	120.2	124.6	125.4	123.5	117.9	108.6	101.1	92.70	84.03	77.27	70.40	64.32	58.41	52.42	46.95	42.60	39.24	38.21	37.05	34.46	29.16	24.05	21.06	18.74	16.66	14.40	13.38	11.94	10.49	10.55	12.30	16.38	49.76	272.1	1020	1754	999.5	91.38	3.846	2.492	2.136	1.981	1.906	1.640	1.722	1.542	1.716	1.339	1.368	1.347
535.0	188.9	199.1	225.3	228.2	252.7	321.7	268.6	303.5	983.4	5310	3675	320.2	233.2	199.6	170.6	146.4	129.1	117.9	109.9	104.1	98.93	96.72	96.37	96.81	97.53	97.23	100.1	102.5	104.5	107.0	103.7	99.45	93.51	87.36	79.74	72.53	66.40	60.80	56.00	50.67	46.27	41.72	37.90	35.61	32.76	31.00	30.99	28.44	22.58	19.79	17.24	15.71	13.54	12.34	11.27	10.49	9.302	9.534	9.702	16.64	65.42	231.6	508.6	1613	1382	29.65	2.913	2.191	1.967	1.770	1.600	1.610	1.405	1.443	1.359	1.232	1.317
540.0	173.1	184.8	189.1	202.0	216.0	287.2	260.0	242.9	404.9	2743	6342	686.4	208.1	178.4	154.7	131.5	113.8	106.1	95.45	89.91	87.83	85.28	84.07	86.16	84.20	86.10	86.67	90.93	91.32	92.17	91.29	86.86	82.14	76.26	68.58	64.08	58.67	53.34	49.30	44.97	40.42	37.41	33.84	32.10	29.59	27.66	27.02	26.89	22.59	18.79	16.35	14.66	12.81	11.69	11.16	10.56	8.816	8.603	8.076	8.955	19.21	55.96	118.6	574.5	1828	992.1	22.82	2.534	1.964	1.781	1.646	1.557	1.399	1.434	1.243	1.234	1.264
545.0	163.6	161.8	171.4	177.4	179.0	243.5	261.7	212.7	256.6	991.9	6604	1649	192.4	157.9	136.3	116.5	102.1	92.29	85.50	79.78	77.59	74.09	75.11	74.85	73.40	75.29	76.37	79.06	80.38	81.57	79.43	75.44	72.05	66.34	61.32	56.49	51.40	47.71	43.76	39.56	36.33	33.46	30.88	28.76	26.64	24.49	23.09	23.37	22.35	17.55	15.59	13.60	11.68	11.16	10.55	9.614	9.188	7.915	7.193	6.924	8.741	16.74	30.26	134.8	774.6	1739	253.9	14.46	2.305	1.941	1.560	1.364	1.327	1.319	1.193	1.172	1.222
550.0	137.3	140.8	152.0	147.7	148.8	181.3	238.5	195.8	187.8	367.5	3150	5359	595.4	135.4	115.0	97.52	86.67	77.87	71.60	67.61	64.59	62.53	62.92	62.07	62.11	63.04	63.10	64.55	65.75	67.02	66.91	63.07	59.60	55.10	51.49	47.07	43.02	40.39	36.51	34.10	31.23	29.12	26.33	24.55	23.01	21.68	19.89	19.16	19.56	17.11	14.49	12.01	10.84	9.739	9.124	8.591	8.269	7.543	6.846	6.128	6.153	7.443	10.55	33.52	181.6	669.6	1106	679.9	19.95	2.768	1.739	1.461	1.330	1.260	1.141	1.013	1.024
555.0	125.6	116.8	128.0	126.7	131.1	133.6	188.3	200.5	157.8	198.5	881.4	5211	2828	137.0	95.89	79.57	71.44	64.81	60.14	55.25	53.63	51.60	52.00	50.43	50.07	49.50	50.44	52.22	53.29	52.90	53.00	51.92	46.87	45.14	40.93	38.35	35.11	32.46	29.83	27.69	26.01	23.21	21.66	20.99	18.97	18.17	16.43	15.16	15.15	15.05	13.32	11.28	9.593	8.704	8.086	8.006	7.195	6.660	6.397	5.802	5.547	5.438	5.874	11.12	43.84	152.2	318.4	1008	862.8	28.20	2.388	1.795	1.468	1.254	1.080	0.937	0.857
560.0	106.9	110.6	113.8	114.5	115.7	119.9	145.8	196.8	145.8	155.1	307.6	2592	5452	353.9	81.87	68.50	60.78	53.86	50.91	46.98	45.49	43.72	43.92	43.16	43.03	41.61	42.69	43.88	45.44	44.75	45.86	43.64	39.49	37.00	34.56	32.39	30.01	27.90	25.46	23.81	21.61	20.14	18.68	17.38	17.04	15.44	14.14	13.47	12.55	12.85	12.36	10.84	8.615	7.942	7.621	7.094	6.656	6.520	6.444	5.913	5.142	4.978	5.141	6.054	13.07	37.24	74.87	353.3	1098	617.4	20.64	2.359	1.626	1.286	1.081	1.003	0.870
565.0	113.3	100.9	108.5	104.2	104.7	108.3	126.2	181.2	147.7	134.2	170.9	865.7	5982	1128	75.65	61.01	53.19	47.64	45.11	41.14	38.45	36.82	38.20	37.13	36.81	36.14	37.02	36.94	37.97	38.44	38.35	37.53	33.95	32.11	30.11	27.39	25.77	23.67	22.60	20.51	18.59	17.00	15.76	15.58	14.54	13.10	12.54	11.80	11.02	10.50	10.77	10.16	7.861	7.450	7.066	6.623	6.130	6.023	6.040	6.042	5.396	5.060	4.997	5.288	6.901	11.89	20.40	84.07	449.9	1040	246.5	12.11	1.897	1.415	1.028	0.937	0.894
570.0	101.9	89.57	96.68	92.33	87.35	92.81	100.2	134.9	160.5	118.7	129.6	286.1	2924	4228	307.0	51.66	45.05	40.02	36.62	33.51	32.06	29.89	30.17	30.32	29.40	29.83	29.60	30.71	30.97	32.20	30.77	29.45	27.96	25.75	24.09	22.34	21.03	19.23	18.04	16.98	15.43	14.67	13.49	12.67	12.16	11.14	10.52	9.773	9.183	8.495	8.492	8.737	7.619	6.687	6.251	6.101	5.999	5.689	5.864	5.822	5.752	5.719	5.411	5.524	6.094	7.197	8.736	23.08	107.6	397.4	660.4	423.8	18.09	2.045	1.289	0.875	0.893
575.0	98.92	87.81	83.94	78.08	76.96	82.62	83.37	96.34	148.5	126.1	114.2	146.5	780.0	4382	1896	53.04	36.47	32.94	30.25	28.14	26.17	25.78	24.35	24.91	23.46	24.01	23.59	24.89	25.37	26.25	25.14	23.38	22.36	20.58	19.49	17.65	16.82	15.76	14.20	13.47	12.37	11.87	10.95	10.33	10.10	9.093	8.645	8.173	7.603	7.259	6.735	6.822	6.925	6.719	5.613	5.421	5.563	5.324	5.564	5.549	5.852	6.172	5.792	5.980	5.967	6.431	6.620	9.618	28.34	92.30	188.4	584.7	499.2	25.33	1.612	1.085	0.855
580.0	90.33	88.65	85.13	75.45	70.73	74.51	79.32	75.07	124.2	136.0	106.3	111.5	243.1	2240	3993	108.2	33.68	28.38	25.99	23.91	21.89	21.19	20.42	20.13	20.65	20.29	19.84	20.45	21.23	21.51	20.98	20.28	18.51	17.77	16.34	15.50	14.53	13.47	12.68	11.55	10.46	9.713	9.499	8.767	8.340	7.970	7.570	7.214	6.683	6.071	5.483	5.585	6.072	6.028	5.598	5.143	5.119	4.799	5.138	5.183	5.710	5.847	6.200	5.993	5.866	6.339	6.180	6.543	10.61	24.10	45.88	204.5	633.6	256.1	16.83	1.144	0.865
585.0	94.90	90.05	84.42	74.17	66.59	65.74	70.97	65.58	98.79	146.4	106.3	98.01	116.2	731.8	4596	670.6	30.45	24.87	22.46	20.76	18.91	17.40	17.99	17.15	17.51	17.67	17.25	17.75	18.06	18.07	17.45	17.39	15.75	15.36	14.11	13.02	11.92	11.33	10.42	10.20	8.994	8.275	8.002	7.816	7.125	7.145	6.504	6.393	5.706	5.547	5.170	5.005	5.245	5.499	5.354	4.748	4.878	4.485	4.729	4.855	4.959	5.169	5.786	5.693	5.369	5.617	5.270	5.479	6.560	8.920	13.16	49.20	260.0	577.7	204.5	7.880	1.014
590.0	95.71	90.19	77.54	64.67	61.46	57.66	61.22	60.44	73.40	125.1	117.3	90.57	82.75	212.3	2296	2811	73.80	21.25	19.75	17.56	16.14	14.94	15.07	14.30	14.73	14.58	14.28	14.19	14.75	15.08	14.75	13.93	13.28	12.31	11.56	10.65	10.02	8.942	8.634	8.343	7.394	7.160	6.815	6.509	6.046	5.954	5.540	5.265	4.903	4.567	4.272	4.103	4.083	4.310	4.543	4.375	4.015	3.876	3.914	4.124	4.028	4.240	4.546	4.822	4.706	4.593	4.443	4.269	4.623	4.696	5.498	13.13	61.43	219.5	396.8	216.7	16.42
595.0	98.62	84.67	70.94	63.02	54.24	50.33	51.78	52.38	62.86	95.05	132.3	89.41	75.36	84.78	592.7	3153	716.9	21.25	15.91	14.67	13.78	12.10	12.41	11.77	11.69	11.54	11.15	11.50	12.01	12.00	12.35	11.02	10.60	9.852	9.326	8.648	8.329	7.224	7.382	6.591	6.126	5.974	5.737	5.065	4.876	4.769	4.599	4.162	4.031	3.583	3.349	3.335	3.340	3.375	3.548	3.854	3.660	3.290	3.256	3.541	3.278	3.482	3.643	3.498	3.868	3.686	3.638	3.393	3.322	3.327	3.192	4.528	15.04	50.04	108.5	319.4	264.8
600.0	99.05	75.89	70.75	54.72	50.12	45.64	45.71	47.05	58.34	76.47	128.0	93.01	69.13	55.47	161.0	1737	2361	58.02	14.54	12.26	11.88	10.67	10.78	10.66	10.71	10.08	10.06	9.794	10.29	9.944	9.892	9.215	8.650	8.555	7.945	7.430	6.736	6.331	6.013	5.515	5.154	5.164	4.538	4.489	4.179	4.042	3.934	3.497	3.574	3.247	3.018	2.748	2.877	2.710	3.012	3.183	3.492	2.903	2.693	2.891	3.006	2.735	2.856	2.882	3.198	3.426	3.268	2.958	2.886	2.638	2.311	2.315	4.597	12.18	25.20	107.8	353.4
605.0	82.95	77.32	69.52	53.04	42.21	44.16	44.13	46.23	54.83	67.00	111.8	106.6	67.26	50.84	60.99	572.2	3044	377.3	13.74	11.68	10.64	9.458	9.703	9.272	8.714	8.583	8.449	8.535	8.645	8.608	8.724	8.018	7.538	7.256	6.764	6.498	6.014	5.419	5.030	4.965	4.568	4.307	3.998	3.780	3.665	3.461	3.281	3.297	3.072	2.833	2.612	2.459	2.431	2.374	2.473	2.705	3.087	2.542	2.593	2.539	2.490	2.482	2.497	2.365	2.757	2.758	2.974	2.463	2.307	2.215	1.938	1.655	2.011	3.565	6.371	25.19	138.8
610.0	82.16	76.42	71.01	49.41	42.90	39.28	39.43	40.99	50.59	62.83	86.31	113.2	72.54	47.97	40.11	151.5	1688	1783	45.63	10.35	9.011	8.405	7.785	7.494	7.427	7.447	7.110	7.163	7.314	7.146	7.290	7.054	6.893	6.221	5.995	5.402	5.227	4.790	4.186	4.014	3.837	3.690	3.420	3.258	3.020	2.928	2.799	2.842	2.448	2.322	2.151	2.129	2.055	1.890	2.091	2.083	2.284	2.544	2.370	2.150	2.040	2.111	1.979	2.098	2.125	2.238	2.387	2.302	1.932	1.852	1.675	1.377	1.299	1.531	2.049	6.254	32.27
615.0	76.81	82.05	70.20	50.90	39.14	34.40	35.47	38.30	45.13	58.69	69.55	102.3	84.55	47.41	34.35	50.41	441.6	2288	508.0	10.44	7.987	6.915	6.624	6.320	6.430	5.829	6.003	5.961	5.760	5.945	6.084	5.813	5.605	5.095	5.302	4.941	4.367	4.162	3.475	3.452	3.094	2.774	2.689	2.667	2.604	2.463	2.188	2.292	2.108	1.886	1.845	1.769	1.607	1.589	1.691	1.746	1.718	1.906	2.045	1.756	1.631	1.717	1.861	1.964	1.735	1.789	1.828	2.020	1.903	1.528	1.560	1.188	1.091	1.020	1.032	1.936	7.751
620.0	77.40	81.94	67.56	49.96	36.75	32.19	34.46	35.44	44.47	54.90	66.47	86.31	95.33	50.90	33.45	27.93	112.7	1399	1583	27.40	7.499	6.333	6.088	5.481	5.452	5.014	5.356	5.103	5.075	4.811	5.318	5.193	5.064	4.278	4.601	4.294	3.624	3.443	3.024	2.952	2.643	2.603	2.546	2.492	2.196	1.983	1.989	1.856	1.803	1.791	1.478	1.432	1.362	1.489	1.472	1.528	1.449	1.616	1.772	1.849	1.473	1.465	1.528	1.607	1.661	1.675	1.600	1.713	1.746	1.429	1.356	1.206	1.041	0.845	0.786	0.897	2.182
625.0	81.10	79.30	67.48	45.87	35.51	32.49	30.25	35.46	44.43	52.45	66.68	73.31	96.48	54.56	33.57	23.15	36.44	487.8	2240	77.75	7.217	5.903	5.512	4.844	4.777	4.420	4.928	4.265	4.389	4.190	4.287	4.419	4.315	4.065	3.632	3.379	3.373	3.048	2.759	2.557	2.215	2.107	2.232	2.016	1.881	1.835	1.777	1.849	1.739	1.508	1.458	1.258	1.270	1.362	1.296	1.329	1.347	1.256	1.585	1.636	1.442	1.431	1.365	1.540	1.470	1.470	1.513	1.354	1.425	1.433	1.394	0.943	1.009	0.823	0.698	0.593	1.028
630.0	76.54	80.57	65.34	44.35	33.02	31.31	29.32	33.78	42.83	50.77	63.54	68.79	82.95	65.71	35.24	22.69	19.23	124.7	1380	1052	26.92	5.374	5.011	4.312	4.450	4.019	3.863	3.671	3.746	3.673	3.635	3.469	3.422	3.255	3.017	2.832	2.708	2.314	2.303	2.119	1.832	1.714	1.804	1.747	1.567	1.550	1.451	1.424	1.412	1.268	1.239	1.183	1.123	1.139	1.079	1.089	1.143	1.131	1.203	1.356	1.331	1.304	1.180	1.335	1.256	1.249	1.367	1.196	1.270	1.202	1.291	0.988	0.842	0.696	0.697	0.569	0.656
635.0	77.17	80.49	59.15	40.79	31.78	26.84	31.23	34.69	40.88	51.29	60.80	64.81	69.02	71.65	39.56	21.69	15.18	36.25	368.6	1749	333.6	5.824	4.627	3.690	3.650	3.620	3.267	3.225	2.997	3.074	2.859	2.814	2.797	2.511	2.553	2.483	2.304	1.918	1.960	1.826	1.583	1.666	1.456	1.549	1.452	1.395	1.236	1.326	1.214	1.077	0.962	0.978	1.052	0.903	0.889	0.886	1.048	0.968	1.121	1.031	1.284	1.282	1.163	1.047	1.067	1.052	1.101	1.118	1.049	0.982	1.032	0.942	0.902	0.720	0.588	0.566	0.485
640.0	75.21	76.18	61.76	41.55	28.53	25.43	29.25	31.53	38.82	48.36	58.39	64.40	63.27	68.56	47.80	22.82	14.55	16.08	92.22	1202	1057	13.98	4.242	3.663	3.476	3.069	3.020	2.885	2.849	2.569	2.556	2.711	2.530	2.304	2.095	1.997	1.912	1.754	1.620	1.445	1.424	1.461	1.282	1.254	1.392	1.115	1.093	1.106	1.042	0.955	0.873	0.803	0.870	0.717	0.825	0.770	0.901	0.776	0.962	0.865	1.079	1.209	1.145	1.014	0.965	0.977	0.990	0.978	0.979	1.004	0.973	0.887	0.960	0.708	0.625	0.534	0.554
645.0	92.91	74.99	60.45	44.05	29.17	22.78	28.23	30.85	38.30	48.17	56.87	63.61	59.78	59.88	53.40	24.44	15.20	12.10	27.69	455.4	1649	60.91	4.701	3.516	3.009	3.057	2.804	2.523	2.482	2.430	2.436	2.286	2.045	2.171	1.755	1.712	1.769	1.510	1.432	1.292	1.291	1.541	1.215	1.068	1.030	1.017	1.023	1.064	1.065	0.844	0.906	0.820	0.784	0.747	0.774	0.802	0.677	0.736	0.818	0.859	0.868	0.920	0.968	0.994	0.875	0.890	0.970	0.955	0.925	0.910	0.876	0.930	0.869	0.728	0.614	0.646	0.504
650.0	84.70	81.48	66.66	41.53	28.52	24.56	24.98	30.37	38.06	47.75	56.80	64.43	58.86	55.75	57.36	26.52	15.38	11.65	12.35	121.5	1459	453.1	5.621	3.326	3.016	2.860	2.454	2.244	2.313	2.385	2.355	2.000	1.918	2.042	1.613	1.626	1.562	1.362	1.266	1.142	1.105	1.211	1.186	0.973	1.119	0.998	1.010	1.132	0.933	0.816	0.764	0.702	0.716	0.732	0.691	0.727	0.746	0.657	0.743	0.722	0.750	0.799	1.017	0.887	0.903	0.818	0.878	0.846	0.822	0.814	0.816	0.785	0.731	0.768	0.660	0.600	0.491
