Sample:	'1
File name:	Default_20230506_103922.FD3
Run date:	'10:33:01, 05/06/2023
Operator:	user
Comment:	'

Instrument
Model:	F-2700 FL Spectrophotometer
Serial number:	2190-003
ROM Version:	4J14000 07

Instrument parameters
Measurement type:	3-D scan
Data mode:	Fluorescence
EX  Start WL:	220.0 nm
EX  End WL:	600.0 nm
EX Sampling interval:	5.0 nm
EM  Start WL:	230.0 nm
EM  End WL:	650.0 nm
EM Sampling interval:	5.0 nm
Scan speed:	12000 nm/min
EX Slit:	5.0 nm
EM Slit:	5.0 nm
PMT Voltage:	700 V
Response:	Auto 
Corrected spectra:	Off
Contour interval:	50.000

Peak integration
Integration method:	Rectangular
Sensitivity:	1
Threshold:	1.000

Peaks
No.	ApexEX/EM(nm)	Height(Data)
1	225.0/565.0	67.84
2	225.0/600.0	61.56
3	225.0/630.0	53.48
4	230.0/550.0	67.80
5	230.0/560.0	58.47
6	230.0/590.0	62.77
7	230.0/625.0	52.24
8	230.0/635.0	53.45
9	235.0/580.0	61.12
10	235.0/640.0	51.43
11	240.0/555.0	72.66
12	240.0/600.0	49.43
13	245.0/265.0	208.3
14	245.0/530.0	158.5
15	245.0/610.0	44.96
16	245.0/625.0	46.16
17	245.0/635.0	50.17
18	250.0/365.0	 2074
19	250.0/540.0	139.8
20	250.0/580.0	48.65
21	255.0/280.0	363.4
22	255.0/555.0	130.9
23	260.0/235.0	20.48
24	260.0/285.0	492.7
25	260.0/565.0	129.5
26	265.0/290.0	574.9
27	265.0/580.0	108.6
28	265.0/625.0	71.44
29	270.0/245.0	21.75
30	270.0/590.0	113.6
31	275.0/305.0	 1306
32	275.0/330.0	 1092
33	275.0/605.0	107.8
34	275.0/645.0	67.54
35	280.0/310.0	 1308
36	280.0/615.0	108.7
37	285.0/315.0	 1236
38	285.0/625.0	86.38
39	290.0/320.0	 1094
40	305.0/340.0	626.2
41	310.0/345.0	576.2
42	320.0/360.0	512.3
43	325.0/365.0	515.7
44	335.0/380.0	488.1
45	340.0/385.0	486.1
46	350.0/400.0	433.1
47	355.0/405.0	437.2
48	370.0/425.0	346.1
49	430.0/505.0	54.25
50	440.0/515.0	40.31
51	450.0/530.0	27.89
52	460.0/545.0	19.46
53	475.0/565.0	9.167
54	500.0/365.0	9.458
55	510.0/280.0	3.291
56	520.0/285.0	3.630
57	540.0/325.0	5.043
58	550.0/305.0	5.691
59	560.0/310.0	5.244
60	570.0/315.0	4.801
61	575.0/320.0	5.414

Data points
	220.0	225.0	230.0	235.0	240.0	245.0	250.0	255.0	260.0	265.0	270.0	275.0	280.0	285.0	290.0	295.0	300.0	305.0	310.0	315.0	320.0	325.0	330.0	335.0	340.0	345.0	350.0	355.0	360.0	365.0	370.0	375.0	380.0	385.0	390.0	395.0	400.0	405.0	410.0	415.0	420.0	425.0	430.0	435.0	440.0	445.0	450.0	455.0	460.0	465.0	470.0	475.0	480.0	485.0	490.0	495.0	500.0	505.0	510.0	515.0	520.0	525.0	530.0	535.0	540.0	545.0	550.0	555.0	560.0	565.0	570.0	575.0	580.0	585.0	590.0	595.0	600.0
230.0	47.02	97.93	868.5	928.7	112.9	28.60	25.74	20.15	18.81	17.98	14.43	14.33	13.71	10.67	9.580	8.746	6.624	6.776	5.924	5.193	4.569	4.439	3.790	3.363	3.709	2.773	3.264	3.102	3.136	2.825	2.732	2.273	2.598	2.300	2.162	1.987	1.889	1.789	1.910	1.775	1.926	1.691	1.835	1.655	1.424	1.482	1.408	2.194	3.379	3.907	2.384	1.352	1.226	1.373	1.248	1.372	1.300	1.185	1.191	1.273	1.344	1.202	1.291	1.264	1.157	1.093	1.200	1.173	1.215	1.355	1.150	1.209	1.108	0.963	1.166	1.154	1.167
235.0	55.78	68.42	356.0	 1527	 1390	152.8	26.09	17.38	20.48	14.44	15.28	15.78	14.93	12.68	8.993	7.450	5.889	6.597	5.507	4.001	4.080	4.197	4.323	2.959	3.841	3.233	2.681	3.343	3.284	2.347	2.390	2.202	2.525	2.148	1.877	2.033	2.220	1.559	1.811	1.667	1.551	1.746	1.639	1.560	1.223	1.735	1.365	1.680	1.676	3.067	5.701	6.350	4.118	1.992	1.288	1.031	1.297	1.436	1.069	1.015	1.417	1.201	1.189	1.303	1.047	1.291	1.274	1.134	1.216	1.337	1.027	0.988	1.373	1.146	1.216	1.238	1.592
240.0	56.52	65.43	117.5	760.4	 2471	 1367	102.8	22.16	17.71	16.66	14.44	16.26	13.20	10.78	8.481	8.051	6.566	6.717	5.324	4.590	4.784	3.790	4.339	3.194	3.219	3.428	3.218	2.706	2.944	2.379	2.088	2.350	2.642	2.322	2.113	2.283	1.882	2.002	1.770	2.345	1.578	1.394	1.321	1.645	1.524	1.583	1.271	1.700	1.338	1.478	3.192	7.551	10.00	8.357	3.000	1.670	1.307	1.137	1.040	1.242	1.117	1.157	1.119	1.316	1.215	1.220	1.121	1.129	1.291	1.436	0.855	1.015	1.261	1.157	1.273	1.259	1.290
245.0	49.57	61.14	73.63	225.1	 1469	 3243	 1195	55.21	16.08	16.18	21.75	15.59	11.92	11.57	10.64	8.043	6.502	7.114	4.751	4.732	5.212	4.640	3.675	4.034	3.507	2.724	3.714	3.477	3.209	2.759	2.616	2.266	2.495	2.220	1.787	2.209	1.987	2.254	1.982	2.027	1.918	1.637	1.750	1.723	1.564	1.347	1.448	1.548	1.504	1.167	1.574	3.212	6.139	11.56	12.58	6.575	2.728	1.457	1.315	1.505	1.268	1.047	1.242	1.430	0.879	1.150	1.105	0.928	1.170	1.299	1.205	1.219	1.626	1.215	1.295	1.278	1.403
250.0	53.71	57.48	77.91	111.7	395.9	 1638	 3527	 2731	409.8	20.79	18.99	16.96	12.20	12.34	11.82	8.041	7.332	6.648	4.870	6.406	4.988	4.286	4.330	3.364	3.054	2.946	3.558	3.497	3.340	2.349	2.298	2.565	2.208	2.414	1.965	2.050	1.683	1.810	1.525	2.154	1.833	1.826	2.017	1.687	1.589	1.458	1.498	1.466	1.505	1.498	1.257	1.541	2.336	4.409	7.725	11.58	14.58	13.57	7.375	2.488	1.254	1.228	1.299	1.225	1.240	0.990	1.272	1.037	1.204	1.117	1.140	1.260	1.414	1.362	1.245	1.225	1.307
255.0	67.77	57.17	54.54	109.0	188.4	409.1	 1245	 5063	 4983	494.7	19.92	16.60	17.55	12.59	10.38	10.20	6.968	5.610	6.678	6.190	5.519	3.620	3.979	4.034	3.639	3.353	3.460	3.745	3.818	2.253	3.101	2.215	2.051	2.308	1.952	1.931	1.417	1.505	1.786	1.699	1.805	1.901	1.679	1.567	1.814	1.360	1.167	1.291	1.450	1.349	1.536	1.614	1.559	2.140	2.686	3.591	6.118	13.05	21.99	22.66	10.26	2.819	1.147	0.826	1.236	1.230	1.098	1.119	1.178	1.207	1.155	1.208	1.619	1.341	1.279	1.100	1.282
260.0	54.32	52.88	55.39	80.74	189.8	166.4	317.4	 2179	 7511	 4695	271.9	19.58	17.32	14.00	12.85	9.803	8.595	6.943	6.255	6.110	5.583	5.082	4.676	3.978	3.805	3.563	3.669	2.953	3.286	2.540	2.972	3.103	2.378	2.322	2.601	2.244	1.909	1.826	2.331	1.850	1.668	1.793	1.897	1.890	1.790	1.366	1.274	1.528	1.269	1.247	1.376	1.421	1.669	1.639	1.663	2.016	2.313	4.028	9.411	23.43	32.00	22.53	6.160	1.419	1.211	1.113	1.052	1.256	1.085	1.152	1.138	1.006	1.227	1.215	1.533	1.307	1.265
265.0	63.78	51.68	46.43	63.64	131.8	208.3	131.4	554.3	 3547	 9366	 1208	120.9	20.63	15.09	13.36	9.476	9.707	6.265	7.398	6.147	5.243	4.978	4.855	3.110	3.699	4.211	3.192	3.265	2.663	2.461	3.318	2.444	2.620	1.938	2.416	1.721	1.812	1.970	2.274	1.700	1.537	1.931	1.887	1.895	1.591	1.839	1.287	1.440	1.179	1.241	1.287	1.383	1.669	2.073	1.846	1.425	1.587	2.075	3.294	8.550	18.15	33.24	35.48	17.33	2.985	1.525	1.026	1.265	1.194	1.230	1.158	1.313	1.070	1.129	1.253	1.165	1.284
270.0	62.14	59.19	52.38	57.65	61.93	175.1	249.9	213.9	877.6	 3926	 7463	 4459	391.2	20.63	14.88	11.14	9.835	7.670	6.772	5.740	5.116	5.721	4.538	3.645	4.029	3.548	3.028	3.241	2.541	2.437	3.015	2.568	2.498	2.666	2.035	1.925	2.071	2.052	2.092	1.704	1.720	1.760	2.030	1.758	1.467	1.867	1.347	1.556	1.257	1.299	1.194	1.346	1.357	1.597	1.896	2.236	2.211	1.846	1.903	2.877	5.234	10.50	19.46	29.74	34.43	27.46	12.62	2.687	1.341	1.396	1.235	1.126	1.134	1.203	1.241	1.125	1.296
275.0	60.44	55.68	62.31	61.42	47.09	77.60	199.2	332.2	285.8	921.7	 2292	 9826	 6881	498.3	19.26	13.34	12.43	9.357	8.046	6.666	5.951	4.279	4.307	4.509	3.635	3.337	3.093	4.098	2.611	3.122	3.408	2.832	2.759	2.569	2.164	2.137	2.083	1.828	1.843	1.709	1.420	2.178	1.732	1.809	1.304	1.915	1.737	1.401	1.408	1.192	1.363	1.379	1.155	1.206	1.411	1.464	2.397	2.781	2.055	1.702	2.317	3.328	5.514	7.904	12.39	28.98	51.02	41.62	13.62	2.013	1.054	1.270	1.604	1.116	1.322	1.560	1.085
280.0	62.60	68.36	66.58	69.19	45.78	59.03	98.02	363.4	348.7	283.2	595.7	 3480	9999.9	 5729	296.0	17.41	14.87	11.10	7.666	7.565	6.744	5.401	4.637	4.999	4.029	3.976	3.696	3.786	3.141	3.503	2.645	3.111	2.702	2.102	2.460	2.387	2.490	1.971	2.123	1.648	1.590	1.801	1.583	1.811	1.695	1.661	1.349	1.775	1.440	1.056	1.420	1.234	1.342	1.306	1.500	1.338	1.595	2.327	3.291	2.760	2.345	2.041	2.170	3.264	4.337	8.646	21.51	46.13	58.32	32.77	6.088	1.056	1.403	1.410	1.266	1.478	1.205
285.0	64.62	84.24	82.75	79.86	61.41	55.30	61.80	187.7	492.7	280.8	241.0	914.3	 4713	9999.9	 4207	120.2	17.32	11.27	8.017	7.713	6.414	5.682	5.578	4.497	3.710	4.236	3.063	3.995	3.862	3.161	2.916	2.937	2.641	2.190	2.661	2.081	2.329	1.915	2.030	1.768	1.652	1.931	1.605	1.574	1.562	1.466	1.590	1.596	1.342	1.354	1.436	1.526	1.340	1.455	1.459	1.364	1.551	1.961	2.299	2.950	3.630	2.491	1.786	1.866	2.235	3.542	6.305	14.67	36.28	60.70	50.96	18.70	2.833	1.562	1.305	1.301	1.231
290.0	58.96	82.56	112.9	103.5	77.03	69.13	78.29	130.1	316.2	574.9	417.8	419.2	 1281	 4783	9999.9	 7098	250.2	17.87	10.95	8.835	6.564	6.374	5.449	4.716	4.206	4.040	3.219	3.577	3.892	3.381	3.080	2.787	2.642	2.284	2.777	2.115	2.113	2.072	1.938	1.759	1.458	1.557	1.651	1.617	1.578	1.814	1.505	1.776	1.416	1.573	1.363	1.578	1.428	1.659	1.710	1.490	1.439	1.808	1.942	2.023	2.958	3.389	3.389	2.895	2.025	2.312	2.966	4.742	9.888	19.36	31.64	43.40	43.83	31.61	13.32	2.860	1.310
295.0	75.34	89.57	139.5	125.7	113.0	127.4	162.0	210.0	305.9	497.2	886.5	662.2	629.4	 1329	 2897	9999.9	9999.9	325.4	16.17	12.42	7.015	6.882	7.388	5.093	4.278	3.657	4.006	3.423	3.625	3.117	2.706	2.968	2.823	2.177	2.481	2.286	2.090	1.792	2.329	2.037	2.034	1.686	1.545	1.425	1.905	1.589	1.813	1.578	1.380	1.426	1.160	1.931	1.659	1.591	1.588	1.825	2.145	1.792	2.282	2.354	2.614	2.615	3.448	4.408	4.425	3.214	2.663	2.891	4.223	6.159	8.138	11.35	17.79	38.83	63.47	45.63	13.06
300.0	64.93	98.52	135.5	163.1	150.9	189.6	254.9	333.5	438.2	564.2	932.8	 1121	701.8	657.7	858.4	 3699	9999.9	 3444	212.6	15.86	10.01	7.255	7.045	5.977	5.107	5.003	4.651	3.513	3.293	3.662	3.025	2.735	3.100	2.340	3.204	1.626	2.195	2.138	1.856	1.753	1.677	1.606	1.493	1.392	1.894	1.550	1.344	1.810	1.633	1.556	1.648	1.513	1.722	1.762	1.760	1.875	2.260	2.426	2.717	2.614	2.859	3.076	3.323	3.898	4.808	5.278	4.331	2.973	3.023	3.431	3.795	4.237	5.595	11.50	30.49	58.00	66.87
305.0	70.25	113.6	165.6	169.0	178.1	237.0	332.8	447.1	576.3	685.0	867.7	 1306	 1013	629.9	469.9	991.4	 5049	9999.9	 2836	111.5	13.38	7.825	7.726	7.102	5.657	5.267	4.366	4.232	3.759	4.070	2.839	2.651	3.849	2.318	2.736	2.204	1.738	2.095	2.395	1.520	1.628	1.671	1.660	1.983	1.880	1.581	1.331	1.765	1.796	1.681	1.662	1.412	1.789	2.090	2.082	2.327	2.083	2.707	2.689	2.833	3.347	3.611	3.297	3.489	4.166	5.300	5.691	4.458	3.154	3.165	2.817	2.646	2.854	4.043	8.459	19.78	45.87
310.0	66.14	118.2	172.0	217.8	225.0	293.4	408.5	551.8	673.5	814.1	941.9	 1134	 1308	 1004	496.9	419.3	 1263	 4910	9999.9	 7198	177.4	15.33	10.21	7.915	5.584	5.670	4.721	3.954	4.376	4.036	3.235	2.941	3.438	2.357	2.414	2.406	1.877	2.157	2.336	1.977	1.609	1.778	1.699	1.733	1.690	1.581	1.455	1.525	1.688	1.663	1.608	1.845	1.819	2.016	2.503	2.620	2.997	3.206	3.199	3.554	3.474	3.861	3.978	3.939	4.118	4.376	5.120	4.814	5.244	4.287	3.008	2.656	2.324	2.595	3.297	5.817	12.10
315.0	71.03	117.3	180.9	241.6	261.9	322.1	476.6	617.0	773.5	911.1	 1006	 1111	 1112	 1236	758.7	370.9	417.6	 1172	 2915	9999.9	 9572	238.0	12.72	9.507	7.056	5.593	5.859	5.110	3.991	4.191	3.519	3.315	3.023	2.397	3.294	2.145	2.438	1.785	2.208	2.407	1.595	2.217	2.153	1.708	1.776	1.875	1.680	1.511	1.651	1.751	1.663	1.778	1.928	1.839	2.557	2.974	2.949	3.637	3.170	3.138	4.293	4.189	4.080	4.358	4.683	4.257	4.349	4.089	4.678	4.722	4.801	3.731	2.635	2.265	2.472	2.534	3.850
320.0	73.66	113.2	197.1	262.9	320.0	380.7	488.6	643.3	786.2	925.4	 1034	 1077	 1050	 1065	 1094	518.4	259.7	359.6	719.8	 3872	9999.9	 6842	161.0	11.15	9.560	6.543	5.425	5.182	4.657	4.017	3.485	3.836	3.113	2.659	3.017	2.289	2.404	1.969	1.940	2.337	2.010	1.839	1.793	1.948	1.514	1.549	1.442	1.740	1.847	1.749	1.842	1.914	2.070	2.566	3.011	2.814	3.213	3.564	3.491	3.784	4.034	4.097	3.978	4.613	4.256	4.259	4.346	4.331	3.784	3.786	4.743	5.414	4.019	2.457	2.368	2.460	2.018
325.0	90.91	151.6	217.8	307.7	366.7	408.8	547.9	674.6	804.7	922.7	 1012	 1091	 1035	973.4	986.7	773.3	302.9	202.0	241.5	949.3	 5097	9999.9	 2092	87.86	10.37	7.794	6.047	4.924	3.986	4.272	4.076	3.712	3.243	2.639	2.679	2.758	2.132	1.949	2.086	1.868	2.087	1.965	1.810	1.726	1.948	1.622	1.661	1.809	1.931	1.607	1.903	2.551	2.273	2.642	3.264	3.046	3.090	3.931	3.735	4.108	4.026	4.265	4.140	4.500	5.043	4.650	3.973	4.191	3.536	4.125	3.816	4.371	4.195	4.360	2.611	2.315	1.572
330.0	86.91	149.2	288.2	419.5	499.1	617.9	720.4	836.8	897.2	991.4	 1041	 1092	 1040	945.2	812.5	778.1	579.5	268.7	168.5	292.7	 1240	 4754	 9459	 5752	138.9	12.52	8.111	6.344	5.676	4.817	4.193	4.159	3.678	2.951	2.575	2.752	2.366	2.195	2.157	2.028	2.140	1.917	2.007	1.820	1.945	2.036	1.840	1.983	2.064	2.142	2.362	2.935	2.859	2.937	3.522	3.939	4.037	4.038	3.929	4.287	4.441	4.349	4.523	4.357	5.004	4.400	4.201	4.132	3.854	4.247	3.623	3.374	3.455	3.584	3.528	3.403	2.684
335.0	104.7	175.4	361.1	534.8	730.3	922.3	 1011	 1051	 1082	 1106	 1069	 1065	 1054	954.3	783.7	639.1	640.1	487.1	232.1	179.8	358.6	 1117	 2851	9999.9	 8046	192.2	11.47	7.625	6.519	5.075	4.930	3.810	3.940	3.184	2.669	2.469	2.536	2.361	2.011	2.059	2.121	1.825	2.443	2.031	1.791	1.834	1.708	2.170	2.360	2.385	2.945	3.454	3.712	4.237	4.439	4.846	4.938	4.979	4.433	5.347	5.033	4.635	4.877	4.386	4.758	4.197	4.236	4.240	4.218	4.898	4.148	3.406	3.248	3.103	3.198	3.477	3.668
340.0	99.16	181.2	415.5	681.3	925.2	 1145	 1328	 1279	 1241	 1201	 1121	 1040	 1030	946.4	805.0	620.3	522.0	626.2	398.7	191.4	178.7	326.1	698.3	 3839	9999.9	 5853	136.3	10.39	7.241	5.771	5.271	4.231	4.221	3.381	2.580	2.638	2.606	2.341	2.184	2.287	2.107	1.685	2.087	1.910	1.973	1.875	1.759	2.151	2.293	2.709	3.138	4.237	4.122	5.384	5.528	5.380	5.768	5.641	5.468	5.079	5.195	5.065	5.355	4.532	4.766	4.363	4.209	4.230	4.047	4.336	3.525	3.746	3.110	3.100	2.879	2.884	3.130
345.0	99.76	208.4	464.9	784.6	 1137	 1351	 1503	 1472	 1371	 1293	 1131	 1019	 1001	927.6	824.0	621.4	484.5	534.3	576.2	285.5	168.0	167.3	225.8	936.8	 5117	9999.9	 1696	76.35	9.885	6.435	5.076	4.496	4.156	3.305	2.943	2.839	2.180	2.928	2.343	2.520	1.532	1.760	1.528	2.101	1.602	1.943	1.972	2.120	2.397	3.012	3.592	3.965	4.811	6.372	5.975	5.972	6.714	6.445	6.239	5.960	5.681	5.570	6.095	4.592	4.167	4.176	4.326	4.000	4.358	4.062	3.315	3.857	3.885	2.894	2.711	2.934	2.913
350.0	96.61	230.1	498.5	895.6	 1310	 1622	 1776	 1673	 1510	 1359	 1147	 1003	953.6	920.2	807.1	631.7	502.4	456.0	501.8	463.5	273.6	169.2	151.7	286.0	 1260	 4799	 8314	 4775	119.9	10.74	6.870	5.796	4.891	4.202	3.216	3.217	2.080	2.805	2.512	2.394	1.729	2.110	1.862	1.909	1.788	1.966	2.093	2.901	2.715	3.284	3.833	4.455	5.535	6.518	7.154	6.868	7.211	7.395	6.745	6.191	6.172	5.950	5.886	4.569	4.640	4.070	4.018	4.096	4.103	4.200	3.776	3.764	3.435	2.999	2.551	3.279	2.891
355.0	113.7	219.9	505.7	 1025	 1481	 1824	 1954	 1824	 1589	 1417	 1149	945.4	909.6	879.7	807.7	654.9	529.4	471.4	430.0	478.4	485.5	257.6	173.3	169.7	363.0	 1127	 2722	 8895	 6501	161.5	9.945	7.018	5.733	4.394	3.819	2.712	2.427	2.673	2.114	2.424	2.232	2.274	2.261	2.000	1.983	2.094	2.255	2.517	2.593	3.358	3.950	5.217	5.848	6.897	7.768	7.627	8.251	8.261	7.063	6.772	6.445	5.863	6.365	4.976	4.072	3.853	4.020	3.875	3.518	3.841	3.872	3.544	3.356	3.214	2.681	3.320	2.539
360.0	114.0	227.8	523.4	 1006	 1531	 1909	 2073	 1904	 1613	 1447	 1138	913.1	889.4	856.4	791.8	678.2	566.4	505.4	446.7	417.9	512.3	400.8	219.7	167.9	180.4	327.1	669.6	 3675	9999.9	 4535	107.8	8.576	6.256	4.745	3.941	3.050	3.331	2.327	1.924	2.590	2.336	1.986	2.271	2.119	1.915	1.741	2.216	2.465	2.961	3.420	3.977	5.794	6.317	7.265	7.221	8.148	8.658	8.343	7.661	6.918	6.612	6.206	5.690	4.828	4.279	3.456	3.651	3.842	3.629	3.744	3.775	3.742	3.521	3.458	3.328	3.047	3.197
365.0	114.4	237.7	563.2	 1046	 1524	 1891	 2074	 1877	 1689	 1443	 1111	914.3	863.6	833.4	781.1	680.6	583.7	522.9	478.4	417.0	448.4	515.7	310.0	198.9	168.2	168.1	214.4	909.2	 4986	9999.9	 1453	54.24	7.389	5.268	3.982	3.508	3.252	3.107	2.447	2.453	2.843	1.983	2.480	1.675	1.651	2.375	2.375	2.740	2.521	3.094	3.988	5.915	7.040	7.261	7.795	8.565	9.458	8.296	6.871	6.682	6.533	6.313	5.684	5.251	3.977	3.777	3.750	3.420	3.790	4.067	3.414	3.325	3.447	3.510	3.256	2.981	3.272
370.0	109.7	240.4	521.6	 1006	 1507	 1896	 1996	 1835	 1607	 1408	 1084	876.4	841.9	809.4	766.7	696.3	601.2	552.2	503.3	453.4	434.3	461.8	454.6	313.1	208.8	162.4	144.2	267.0	 1230	 4692	 7641	 3999	91.00	7.918	5.463	4.448	3.670	3.181	2.641	2.550	2.610	2.008	2.318	1.850	1.971	2.243	2.110	2.419	2.933	2.946	3.973	5.578	6.634	6.987	7.689	8.056	8.512	7.808	7.567	6.457	6.168	5.621	5.715	5.196	4.448	3.855	3.648	3.671	3.384	3.666	3.438	3.414	3.058	3.721	3.050	3.414	3.112
375.0	90.67	201.3	514.4	946.3	 1347	 1781	 1895	 1775	 1521	 1327	 1065	851.4	823.3	783.0	752.9	687.1	606.8	570.6	554.0	485.4	460.5	420.7	442.9	471.2	305.6	204.2	159.7	153.3	344.3	 1093	 2726	 8350	 5054	117.4	7.607	5.023	3.894	3.137	2.657	2.691	2.596	2.215	2.457	2.027	2.086	1.791	2.197	2.885	2.836	3.010	3.772	5.472	6.363	6.671	7.236	7.737	8.802	7.609	6.691	6.273	6.136	5.600	5.378	4.960	4.170	3.530	3.315	3.708	3.649	3.386	3.866	3.453	3.320	3.432	2.769	3.339	3.295
380.0	93.76	201.4	468.2	931.5	 1331	 1651	 1795	 1657	 1452	 1287	989.4	840.9	773.3	777.3	738.4	682.3	612.3	595.0	562.5	525.0	488.8	446.0	425.5	488.1	421.7	253.9	188.1	145.0	163.1	302.3	663.2	 3794	 8922	 1312	73.09	5.879	3.966	3.500	2.609	3.290	2.834	2.097	2.081	2.679	1.841	2.208	2.237	2.603	2.514	2.916	3.956	5.123	5.718	6.795	6.945	7.796	7.852	7.694	6.432	6.095	5.787	5.180	5.066	4.162	4.179	3.264	3.406	3.481	3.313	3.605	3.903	3.269	3.466	3.250	3.391	3.237	3.403
385.0	116.4	206.9	442.7	859.3	 1249	 1598	 1612	 1558	 1352	 1201	966.3	798.8	753.2	731.2	718.5	672.5	615.8	604.4	573.2	532.4	507.3	460.6	433.3	439.7	486.1	342.9	224.1	168.4	138.7	140.7	202.3	948.7	 4992	 7597	 1066	22.61	5.634	4.186	3.121	3.114	2.504	2.222	2.203	2.344	2.179	1.975	2.148	2.313	2.352	2.652	3.591	4.933	4.997	6.199	7.365	7.369	6.887	6.890	6.737	5.760	5.759	4.719	5.154	4.460	4.068	3.592	3.312	3.392	3.433	3.274	3.137	3.603	3.307	3.513	2.902	3.543	3.137
390.0	105.1	182.2	424.7	749.3	 1095	 1389	 1510	 1387	 1214	 1104	912.1	772.1	726.5	713.9	697.0	662.0	626.2	605.7	582.3	549.9	526.5	489.9	458.5	428.2	440.7	440.6	312.7	217.4	162.9	136.6	121.9	263.3	 1255	 4060	 5857	 2386	64.99	5.567	4.223	3.160	2.890	2.319	2.418	2.150	2.180	1.911	1.994	2.111	2.425	2.785	2.999	4.402	5.128	5.557	6.133	6.556	6.506	6.679	5.648	5.443	5.155	4.267	4.694	4.181	3.686	3.475	3.779	3.420	3.390	3.235	3.092	3.428	2.990	3.380	3.241	3.404	3.293
395.0	81.20	181.6	371.5	686.7	992.4	 1228	 1340	 1235	 1111	 1015	836.2	720.4	712.8	680.3	689.4	640.0	618.8	596.6	590.6	574.5	542.1	516.3	484.4	447.5	424.3	420.7	426.9	302.1	210.0	163.6	128.1	130.0	330.8	942.7	 2361	 6434	 3279	79.29	5.888	4.058	3.102	2.854	3.230	2.221	2.165	2.272	2.165	2.316	2.532	2.473	3.025	4.133	4.880	5.346	5.254	6.364	5.820	5.239	5.282	4.919	4.639	4.283	3.992	4.086	3.378	3.204	3.044	3.695	3.168	3.567	3.307	3.402	3.397	3.153	3.487	3.211	3.153
400.0	99.65	161.2	337.7	604.4	896.2	 1112	 1170	 1149	 1044	935.4	798.5	705.6	689.1	683.9	667.8	622.7	606.3	599.4	591.8	573.5	557.8	518.3	496.9	473.3	425.8	403.9	433.1	395.4	247.4	194.1	146.2	113.4	134.2	251.8	577.9	 3300	 6544	 1041	44.15	5.007	3.327	2.785	2.789	2.861	2.430	2.276	2.070	2.264	2.121	2.180	3.056	3.771	4.002	5.011	5.096	5.431	5.696	5.040	5.434	4.327	4.575	4.505	4.087	3.915	3.569	3.436	3.359	3.561	2.682	3.590	3.255	3.192	3.615	3.037	3.040	3.458	3.735
405.0	91.44	150.0	306.4	563.1	786.0	 1005	 1068	 1018	971.1	861.3	766.4	686.1	684.8	660.9	665.5	621.3	584.5	590.7	581.3	560.9	550.8	525.1	506.2	472.3	444.8	412.1	404.6	437.2	324.4	221.9	166.0	122.0	103.3	106.2	165.9	842.0	 4049	 5529	811.8	16.70	4.287	3.858	2.908	3.078	2.280	2.515	2.279	2.257	2.622	2.419	2.690	4.224	3.918	4.874	4.801	5.099	5.503	4.808	4.813	4.470	4.527	4.352	3.845	3.560	3.667	3.553	3.300	3.299	2.966	3.385	3.070	3.056	3.144	3.149	2.858	3.601	3.203
410.0	83.90	131.5	276.9	499.8	683.9	879.3	923.3	916.0	847.7	822.1	723.7	660.6	651.7	634.5	631.8	601.1	569.6	568.8	563.9	554.5	539.2	529.8	510.7	477.4	448.6	417.9	392.9	399.4	390.8	293.1	201.8	150.5	114.4	91.33	83.07	219.1	 1037	 3235	 4378	 1718	52.88	4.655	3.510	3.107	2.184	2.270	2.213	2.397	2.133	2.388	2.670	3.289	3.863	4.345	4.305	4.756	4.789	4.549	4.758	4.322	4.265	4.030	3.680	3.510	3.265	3.079	3.179	3.131	3.266	3.029	2.980	3.079	3.458	2.915	2.956	2.962	3.149
415.0	86.82	123.7	256.2	436.9	597.7	760.7	817.2	798.0	751.3	741.7	677.7	610.5	634.1	619.7	604.6	578.6	555.9	542.2	542.2	543.0	518.3	521.5	502.7	477.8	458.9	423.5	395.6	371.0	362.7	357.6	262.1	179.9	131.9	101.7	78.46	88.39	261.8	747.4	 1885	 4673	 1004	66.53	4.238	3.444	2.837	2.576	2.201	2.462	2.276	2.427	2.461	3.168	3.716	3.899	4.171	4.033	4.633	3.694	4.242	3.914	3.899	3.476	3.455	3.219	3.285	2.746	2.888	2.751	2.938	2.927	2.603	2.939	3.218	2.950	3.014	2.864	3.473
420.0	72.01	124.6	249.3	395.9	563.5	682.9	761.1	758.4	731.9	692.1	639.8	594.4	629.0	603.4	586.7	558.8	549.4	519.2	528.4	516.8	502.9	501.3	483.1	469.5	457.7	426.9	398.4	367.4	344.6	352.4	321.9	209.2	152.4	111.7	83.81	68.14	92.05	193.2	460.3	 2464	 4447	880.0	30.30	4.035	3.663	2.678	2.339	2.462	2.378	2.321	2.326	2.888	3.440	3.681	4.349	3.835	3.971	3.754	3.865	3.806	3.625	3.592	3.369	3.719	3.295	2.856	2.972	3.065	2.850	2.629	3.212	2.916	2.759	3.469	3.236	2.862	3.026
425.0	68.58	114.2	228.6	361.2	511.0	615.3	677.5	721.8	690.2	677.9	636.9	597.2	597.4	577.8	560.5	551.9	520.2	507.6	503.4	501.7	489.2	486.9	467.4	458.9	443.0	423.1	404.6	363.1	341.2	325.5	346.1	257.9	164.9	124.7	95.48	69.60	59.74	73.54	124.2	635.5	 2917	 4024	639.3	10.75	3.787	3.086	2.366	2.538	2.267	1.867	2.483	2.732	2.665	3.639	3.717	4.243	3.893	3.620	3.859	3.712	3.722	3.736	3.502	3.400	3.092	2.871	3.212	3.223	2.470	3.091	3.358	2.924	2.846	3.235	2.649	2.899	2.696
430.0	82.29	112.3	207.6	337.2	455.3	557.4	629.3	653.2	644.0	648.9	620.8	594.5	582.8	568.8	541.1	528.8	496.1	479.3	479.9	480.1	468.4	464.6	456.5	453.5	437.0	418.8	398.1	365.8	344.2	321.5	307.8	296.0	215.7	145.5	110.0	82.07	64.49	55.72	55.11	161.1	748.7	 2392	 3312	 1268	44.30	3.689	2.928	2.443	2.364	2.080	2.562	2.711	2.797	3.451	3.780	3.550	3.841	3.528	3.584	3.499	3.423	3.276	3.137	3.282	2.932	2.932	2.955	2.993	3.034	2.843	2.958	2.912	2.892	2.921	2.534	2.895	2.696
435.0	94.10	123.7	179.6	319.9	441.1	517.4	581.5	592.4	613.1	611.4	625.5	578.3	569.8	572.8	521.2	507.1	474.0	457.4	455.4	450.3	446.1	438.4	439.2	435.7	424.5	417.0	397.8	366.3	354.4	319.3	289.5	278.7	270.2	183.2	123.5	94.49	73.93	59.65	47.46	62.38	186.8	553.9	 1541	 3822	888.6	53.46	4.123	2.843	2.647	2.422	2.626	2.438	2.543	2.988	3.301	3.214	4.009	3.767	3.910	3.265	3.740	3.612	3.075	3.497	2.802	2.925	2.882	2.694	3.217	2.792	3.175	2.516	2.580	3.397	2.260	2.679	2.654
440.0	106.5	121.0	157.3	320.7	414.0	481.6	527.1	586.0	584.2	594.0	588.4	568.6	535.5	535.9	521.4	482.5	448.5	444.5	436.5	428.2	439.5	423.0	422.7	418.6	403.6	396.4	386.4	368.0	345.9	320.6	282.6	262.4	259.7	224.3	145.3	105.2	83.74	66.11	49.64	46.11	64.87	141.1	380.4	 2170	 3722	753.5	24.14	4.072	2.999	2.557	2.382	3.065	2.612	2.730	3.242	3.543	3.484	3.148	3.462	3.755	3.228	3.576	3.396	2.912	3.152	2.738	2.874	2.870	2.929	3.210	2.783	2.989	2.817	2.644	2.448	2.719	2.822
445.0	98.46	140.4	157.5	296.2	383.4	463.2	498.7	557.9	558.1	579.1	583.7	557.8	536.4	513.9	501.3	457.7	426.8	423.6	415.0	409.4	417.0	408.7	401.0	406.5	392.9	384.2	375.8	362.9	344.2	317.1	284.9	255.5	234.0	235.4	173.0	118.3	91.86	71.75	58.30	45.31	42.66	52.61	100.3	571.3	 2645	 3493	517.2	8.320	3.363	2.542	2.774	2.595	2.971	2.972	3.069	2.965	3.558	2.826	3.257	3.353	3.353	2.742	3.235	2.959	2.866	3.107	2.970	2.684	2.499	2.434	2.604	2.708	2.799	2.807	2.822	2.406	2.750
450.0	83.58	200.2	213.7	267.2	345.8	424.6	479.8	509.3	527.7	551.7	550.4	530.1	504.3	493.2	473.5	430.4	413.3	400.6	394.3	383.6	388.0	382.7	375.8	376.4	370.1	364.8	360.1	337.2	330.9	308.3	283.9	251.1	221.2	209.9	198.4	143.6	104.0	77.96	65.34	50.22	42.12	37.08	42.48	143.0	692.6	 2217	 3091	 1086	35.05	3.060	2.759	2.869	3.181	3.083	2.803	3.081	3.352	2.963	3.236	3.073	3.283	2.764	3.186	2.998	2.965	2.927	2.753	2.491	2.371	2.352	2.662	2.679	2.678	2.562	2.558	2.552	2.636
455.0	70.76	183.2	398.1	270.7	324.5	386.6	431.9	454.1	493.9	498.9	511.5	501.1	485.8	459.5	432.1	405.6	381.0	361.7	363.9	354.1	353.6	352.5	344.3	351.8	342.9	339.4	337.2	315.3	316.0	297.5	275.2	240.0	217.6	189.9	178.1	167.9	123.0	87.07	72.74	56.91	47.20	38.60	33.00	50.88	167.9	512.7	 1447	 3324	707.9	36.31	2.923	3.092	2.922	3.177	3.107	2.764	3.237	3.102	3.328	3.386	3.213	2.640	2.900	3.304	2.905	2.783	2.766	2.658	2.869	2.373	2.543	2.290	2.231	2.292	2.680	2.262	2.471
460.0	62.79	128.6	574.8	401.7	285.5	355.3	417.6	425.2	455.8	489.2	469.8	469.1	455.5	438.1	401.4	381.1	351.9	340.4	332.5	327.1	321.7	328.9	320.4	326.6	318.2	318.1	310.2	306.6	291.8	280.9	258.9	230.7	207.3	182.0	161.6	163.9	142.1	96.64	76.06	60.81	51.16	41.17	33.33	32.09	53.04	126.5	354.7	 1908	 3072	527.8	16.57	3.578	3.255	3.146	2.848	2.433	3.141	3.273	3.318	3.192	2.948	2.819	2.801	3.097	2.978	2.612	2.767	2.365	2.865	2.390	2.644	1.779	2.958	2.556	2.414	2.086	2.470
465.0	70.87	100.6	536.7	735.9	303.8	354.4	378.0	423.9	418.3	457.7	466.2	456.9	427.7	410.5	384.9	359.4	327.6	307.9	312.8	311.5	297.5	293.5	299.4	301.0	294.0	302.2	290.8	286.6	280.7	268.4	253.4	224.2	199.3	174.5	152.8	143.2	146.3	112.8	80.99	63.44	52.50	43.92	35.86	28.12	28.83	41.90	90.29	503.8	 2252	 2566	397.0	6.226	3.664	3.217	2.552	2.904	2.915	2.955	2.953	2.492	2.835	2.597	2.641	3.066	2.602	2.604	2.372	2.077	2.136	2.952	2.300	2.087	2.369	2.342	2.697	2.354	2.244
470.0	71.59	88.06	264.7	 1025	643.1	310.7	353.8	369.2	396.4	422.1	434.2	417.9	395.8	369.1	351.2	323.2	292.4	283.1	286.7	277.5	267.7	264.5	266.1	266.8	267.9	269.6	259.9	258.2	252.3	245.2	236.5	212.1	191.2	164.1	144.1	128.1	126.2	122.1	92.52	66.91	54.71	46.83	36.47	29.33	23.84	24.19	31.54	122.7	587.9	 1710	 2052	410.3	30.17	3.279	2.993	2.893	2.813	2.821	2.824	3.030	2.736	3.001	2.535	2.566	2.507	2.612	2.425	2.214	2.165	2.464	2.173	2.114	2.323	2.142	2.127	2.530	2.289
475.0	86.48	86.26	150.6	659.4	 1314	359.1	293.5	342.3	366.7	387.2	385.4	384.2	369.2	334.2	319.4	300.2	265.1	254.0	250.6	250.0	240.3	236.4	239.8	235.4	241.8	238.9	232.2	229.3	230.1	217.7	212.6	196.6	176.3	154.9	138.0	120.9	108.4	106.8	101.5	76.19	57.63	46.27	38.89	29.96	25.14	20.86	20.08	37.54	139.6	392.2	973.1	 2066	627.4	33.08	3.516	2.930	3.174	3.019	2.523	3.031	2.462	2.809	2.663	2.404	2.259	2.216	2.206	2.330	2.274	1.948	2.246	2.184	2.126	2.191	2.182	2.224	2.482
480.0	53.94	74.65	124.1	319.7	 1524	735.7	272.9	308.4	346.5	366.7	358.7	346.8	334.0	317.5	295.4	276.2	247.4	239.4	229.1	229.4	220.0	222.8	219.6	218.4	220.6	220.4	221.2	215.8	214.8	204.2	196.8	182.5	166.4	146.5	132.0	116.3	100.2	95.05	98.35	88.68	61.96	46.82	40.54	31.50	26.88	22.15	19.25	19.99	39.57	94.74	239.9	 1207	 2060	518.6	11.53	3.245	2.828	2.758	2.464	2.605	2.322	2.517	2.237	2.094	2.514	2.236	2.812	2.192	2.120	2.149	1.862	1.982	1.732	2.259	2.182	2.570	1.982
485.0	63.61	73.85	111.7	171.8	 1049	 1375	289.3	291.5	323.1	337.6	341.3	337.6	317.1	309.7	272.1	254.9	229.0	227.5	217.4	206.4	205.3	202.9	208.7	204.1	202.2	202.1	201.4	199.1	199.2	196.9	183.3	170.3	160.2	136.4	126.4	110.1	98.29	90.39	86.31	89.40	70.03	49.86	40.68	32.11	27.09	23.49	18.80	17.01	18.94	28.51	60.64	320.5	 1468	 1848	93.12	5.799	3.301	2.947	2.343	2.889	2.381	2.391	1.973	2.793	2.328	2.004	2.740	2.330	2.124	2.217	2.126	1.861	2.361	2.106	2.014	1.841	2.181
490.0	77.96	86.07	107.3	150.2	459.5	 1634	843.5	267.2	290.9	309.1	312.4	311.9	289.2	274.8	248.9	228.1	211.0	209.7	195.9	189.0	186.6	184.0	188.1	182.0	185.6	181.6	183.4	182.6	182.5	180.5	170.1	159.1	146.9	129.7	118.8	106.7	94.65	84.08	76.06	77.59	75.85	57.96	42.58	33.66	29.24	24.32	21.36	17.28	15.53	14.94	20.71	77.76	381.7	 1137	 1561	414.5	29.87	3.531	2.651	2.675	2.601	2.459	2.415	2.562	2.346	2.024	2.203	2.275	2.260	2.246	1.986	1.817	1.946	1.777	2.099	2.161	2.128
495.0	61.06	71.30	112.5	144.5	223.2	882.4	 1907	393.2	271.0	280.2	282.7	288.1	280.9	250.9	228.7	201.0	186.0	184.7	181.2	169.8	165.7	162.7	162.8	165.7	165.2	162.8	158.9	163.6	162.1	158.9	157.5	144.5	136.0	122.2	108.2	98.92	89.71	79.88	71.46	65.75	66.37	66.19	47.13	35.36	31.24	24.67	22.95	18.47	15.03	13.31	13.14	24.13	91.63	261.9	743.2	 1837	650.4	31.67	3.014	2.336	2.882	2.356	2.286	2.192	2.550	2.079	1.978	2.401	1.875	2.025	2.119	1.945	1.776	1.799	1.931	1.938	2.142
500.0	64.22	69.73	107.4	149.4	172.7	395.0	 2009	974.5	252.2	271.0	250.4	275.3	262.3	233.1	217.1	195.0	176.8	173.9	166.5	160.6	151.6	152.2	147.2	148.7	149.0	147.6	146.4	147.8	146.7	150.0	140.4	134.1	123.3	112.0	104.4	93.25	82.86	75.46	67.88	59.23	56.49	63.52	52.70	39.52	30.37	25.90	23.51	18.57	16.40	12.98	11.57	13.09	26.85	64.75	182.3	 1044	 1887	502.8	11.94	2.998	2.616	2.356	2.179	2.289	2.504	2.154	2.107	2.002	1.822	1.974	1.980	2.284	1.811	1.846	1.558	2.102	1.964
505.0	80.27	71.50	100.7	143.9	159.2	218.8	 1333	 1778	317.0	238.1	241.1	240.6	235.2	218.2	208.1	176.2	163.4	154.9	144.3	144.9	140.0	136.7	139.3	139.6	134.2	131.6	132.0	135.6	136.2	130.5	130.5	124.6	112.2	104.5	93.84	84.36	80.57	71.40	63.09	56.23	52.51	53.71	54.25	41.60	31.41	26.27	23.60	18.79	16.17	13.62	10.51	10.52	12.99	20.56	46.81	272.2	 1305	 1717	97.64	4.791	2.880	2.519	2.161	2.446	2.142	1.898	1.845	1.900	1.956	1.963	2.186	1.567	1.805	2.109	1.912	2.224	1.927
510.0	72.45	69.73	98.28	134.6	134.1	163.3	506.1	 2090	 1062	228.3	222.5	214.6	207.0	192.1	181.4	161.3	142.8	134.0	131.0	128.4	124.8	119.7	125.0	122.7	115.3	115.3	117.6	118.2	119.5	118.9	115.9	110.4	101.3	93.50	82.57	78.43	70.94	65.85	59.47	51.96	48.11	45.92	46.53	44.20	35.41	26.63	22.60	19.46	16.45	13.82	12.16	10.54	10.68	10.75	16.29	66.09	336.6	 1029	 1329	397.2	27.05	2.833	2.121	2.217	2.230	2.015	1.816	1.657	1.875	1.937	1.774	1.721	1.723	1.956	1.753	1.903	1.728
515.0	72.07	55.76	69.94	121.1	144.2	136.3	229.9	 1004	 2543	427.1	197.0	190.1	182.7	162.8	160.7	142.8	123.6	113.7	111.2	111.2	107.9	105.2	102.9	105.2	103.5	101.7	103.0	103.7	103.8	103.2	98.25	96.04	90.44	82.92	75.32	70.57	63.47	57.10	53.99	46.92	42.33	39.92	37.22	38.44	40.31	31.29	22.99	18.29	17.31	14.11	12.40	10.83	10.18	8.880	9.676	20.57	79.97	234.9	597.3	 1448	583.8	22.45	2.492	2.056	2.678	2.319	2.265	1.780	1.865	1.595	1.706	1.647	1.481	1.392	1.730	1.702	1.848
520.0	69.43	66.90	65.99	106.7	134.2	136.4	148.2	370.1	 2509	 1165	179.1	180.7	171.6	155.9	143.4	121.7	109.8	107.8	103.0	102.1	96.52	94.29	95.71	90.82	92.01	92.63	92.26	92.49	91.87	92.78	90.71	87.32	82.82	78.10	68.96	64.79	58.52	53.82	47.05	43.76	39.92	35.61	33.56	32.58	37.12	34.23	23.33	18.02	16.02	14.07	12.32	11.20	9.933	8.844	7.945	9.556	22.65	56.19	145.0	790.2	 1384	105.3	8.226	2.161	2.099	1.886	1.783	1.691	1.958	1.719	1.662	1.440	1.790	1.339	1.540	1.583	1.518
525.0	58.33	67.25	84.71	80.64	131.6	146.6	140.7	183.9	 1416	 2541	274.0	167.6	153.3	141.4	132.5	105.8	105.1	98.93	94.50	93.61	86.36	85.77	85.55	81.44	82.29	84.35	81.35	84.40	83.12	82.52	82.70	79.13	74.47	68.92	63.03	58.53	52.54	48.25	45.21	41.42	37.90	33.15	30.29	28.98	31.11	34.05	26.18	18.04	15.62	13.21	12.15	10.89	9.766	8.458	7.878	7.113	9.449	16.61	36.37	202.5	915.8	 1132	88.71	3.493	2.410	1.947	1.788	1.802	2.211	1.738	1.600	1.592	1.699	1.445	1.646	1.868	1.326
530.0	57.58	64.85	70.29	73.70	106.0	158.5	130.2	136.8	477.0	 2503	 1399	162.4	138.9	130.9	118.2	103.1	93.89	84.62	84.26	80.98	78.03	76.34	72.14	73.30	73.10	73.31	73.31	73.14	72.84	71.74	72.81	69.83	64.94	58.52	55.35	50.84	47.75	43.03	40.18	36.65	34.39	31.05	27.74	25.79	24.95	27.66	27.89	21.16	15.42	12.46	11.38	10.09	8.660	8.055	7.245	6.471	6.588	7.295	11.47	48.09	232.0	685.4	818.6	337.5	19.93	2.041	1.912	1.664	1.683	1.429	1.587	1.742	1.546	1.478	1.481	1.771	1.400
535.0	56.06	69.78	60.93	71.96	80.17	131.1	126.4	106.6	190.5	954.0	 2861	478.9	122.2	112.2	105.9	89.68	84.34	77.78	71.91	69.32	67.94	63.20	61.14	61.82	66.32	63.27	65.72	62.20	61.31	60.87	63.76	59.45	56.20	52.99	46.96	45.53	40.45	36.96	34.75	33.51	29.42	27.46	24.39	23.45	21.34	21.77	24.31	23.11	16.46	12.66	10.76	10.40	8.972	7.898	6.680	5.758	6.360	5.675	5.877	14.21	54.46	156.3	364.8	948.5	411.6	14.31	1.814	2.152	1.865	1.428	1.531	1.669	1.491	1.415	1.448	1.568	1.610
540.0	56.62	69.51	57.81	70.75	74.76	99.10	139.8	107.9	131.4	320.6	 2515	 1101	116.2	99.52	94.75	83.57	75.77	68.54	67.73	60.05	59.87	56.03	56.49	54.93	56.54	54.67	56.44	55.32	57.47	55.63	56.95	52.26	48.38	45.93	43.37	39.26	37.31	32.86	31.45	29.35	26.94	24.11	21.94	20.82	19.94	19.30	19.26	21.53	19.35	12.94	10.66	9.499	8.435	6.917	6.241	6.114	5.570	5.008	4.587	5.844	14.91	37.62	88.27	496.0	877.0	99.69	5.475	1.900	1.738	1.742	1.374	1.495	1.364	1.405	1.459	1.457	1.399
545.0	49.26	61.44	57.43	51.96	72.71	84.91	132.1	103.9	105.0	160.5	 1289	 2781	217.4	92.98	82.22	77.00	62.49	60.48	56.87	55.80	52.34	50.92	51.03	48.51	52.48	49.08	49.03	48.08	47.56	50.64	50.18	47.13	43.90	42.48	38.73	35.45	33.29	29.57	28.51	26.81	25.18	24.10	20.02	19.71	17.93	16.51	16.57	18.24	19.46	13.88	10.02	8.545	7.798	6.484	6.169	5.780	5.548	4.882	4.509	4.876	6.161	11.40	22.05	126.7	603.5	726.9	76.27	2.308	1.490	1.670	1.696	1.273	1.714	1.625	1.551	1.393	1.368
550.0	58.41	63.24	67.80	59.26	69.49	69.82	112.9	118.8	89.92	110.6	397.0	 2429	 1435	96.63	71.37	65.62	56.54	55.11	47.90	46.25	46.43	43.68	43.54	43.30	43.14	40.49	40.53	41.92	41.16	40.75	43.66	39.57	36.55	34.88	32.56	29.94	28.50	26.35	24.45	22.36	21.86	20.34	18.52	17.19	15.64	14.70	14.11	13.81	16.15	14.68	10.70	7.781	7.304	6.411	5.642	5.513	5.084	5.211	4.114	3.781	4.019	4.704	7.274	30.41	154.5	454.3	566.4	206.2	10.37	1.609	1.524	1.556	1.304	1.576	1.257	1.347	1.276
555.0	56.21	54.25	55.68	53.83	72.66	61.98	74.44	130.9	89.89	78.77	153.2	828.5	 2821	423.4	58.80	54.73	51.47	45.40	42.25	39.45	38.65	35.87	35.28	35.04	33.21	34.08	34.35	35.16	33.10	33.59	35.05	34.01	31.15	29.42	26.82	25.52	23.21	21.27	20.56	18.98	18.20	16.35	15.45	14.53	13.53	11.86	11.79	10.45	11.96	13.18	11.31	8.455	6.448	6.228	5.185	5.067	4.969	4.254	3.854	3.466	3.019	2.977	3.567	8.648	36.53	104.3	256.8	610.2	102.0	6.860	1.465	1.924	1.176	1.506	1.309	1.720	1.452
560.0	49.57	55.69	58.47	55.01	61.74	54.71	59.75	105.2	110.1	69.09	88.79	254.4	 2365	 1450	55.66	48.10	43.61	40.24	36.97	34.00	34.66	29.69	28.78	30.08	29.93	30.85	29.08	31.01	26.60	29.01	29.16	29.11	27.24	24.88	22.52	21.59	20.54	18.05	17.29	17.03	16.75	14.13	13.69	12.49	11.32	10.70	10.71	9.377	9.532	10.27	11.13	8.585	6.231	5.170	4.484	4.636	4.259	3.937	4.039	3.710	2.470	2.547	2.618	3.896	9.699	25.19	63.44	342.6	518.2	81.90	2.654	1.704	1.502	1.474	1.267	1.673	1.403
565.0	48.06	67.84	55.17	53.63	57.06	58.07	48.03	72.52	129.5	75.82	69.56	109.5	 1069	 2598	154.9	41.63	37.97	35.53	31.92	28.77	29.24	28.39	26.68	25.75	25.32	25.10	24.25	24.03	25.09	26.62	24.55	24.11	22.87	21.83	19.95	17.87	18.05	15.84	15.72	15.00	14.60	12.61	11.52	12.26	10.27	9.568	9.378	7.947	7.846	8.148	8.970	9.167	6.298	5.057	4.442	3.722	4.359	3.677	3.819	3.394	3.085	2.770	2.309	3.127	3.837	7.719	15.68	90.02	378.9	408.8	52.33	1.654	1.507	1.541	1.415	1.640	1.590
570.0	54.50	57.72	53.51	50.67	53.47	50.04	48.73	55.06	108.2	89.45	64.41	68.41	307.3	 2140	 1219	48.99	32.77	28.57	27.41	24.74	23.29	23.17	22.23	20.20	20.89	21.12	19.33	20.89	20.59	21.08	21.46	20.45	18.16	17.45	16.26	15.58	14.61	13.53	13.40	12.20	11.42	11.28	9.930	9.643	8.670	8.083	7.536	6.788	6.428	6.118	6.674	8.010	6.683	4.989	3.863	3.348	3.636	3.235	3.519	2.786	3.188	2.546	2.439	2.556	2.658	3.284	5.166	21.66	98.81	270.8	312.5	61.10	4.819	1.614	1.489	1.476	1.497
575.0	51.42	53.43	54.01	51.85	45.29	39.26	47.12	44.11	79.60	104.7	62.49	64.93	109.7	667.2	 2469	327.1	30.42	24.48	23.70	19.77	20.06	19.78	19.40	18.36	17.79	17.27	17.53	16.89	16.85	17.03	17.52	17.64	15.41	14.27	12.58	13.24	11.58	11.09	10.79	10.04	9.077	8.973	8.207	7.086	7.052	6.684	7.255	5.640	5.676	4.666	4.815	5.382	6.536	5.273	3.987	3.363	3.651	2.945	2.960	2.389	3.085	3.176	2.270	2.508	2.191	2.077	2.576	6.297	23.43	62.10	155.0	323.2	83.25	3.225	1.695	1.448	1.218
580.0	47.84	45.01	49.40	61.12	45.67	44.23	48.65	41.63	55.15	108.6	75.55	71.40	69.30	193.4	 1976	 1181	26.53	19.49	19.14	18.19	18.28	17.41	17.51	16.40	15.91	14.71	14.67	15.70	15.12	14.51	14.37	14.35	13.59	12.36	10.41	10.35	10.96	10.01	9.184	8.519	8.331	7.153	7.639	6.791	6.421	5.971	5.716	5.461	4.799	4.261	3.872	4.331	5.170	5.204	4.430	3.368	3.071	3.146	2.736	2.587	2.924	3.000	2.459	2.629	1.917	1.972	2.254	2.958	6.651	15.46	38.73	194.8	284.7	55.51	1.778	1.510	1.469
585.0	43.81	43.46	56.59	50.81	42.60	38.13	45.89	42.93	48.93	89.72	86.25	63.74	55.64	82.06	887.5	 2113	100.7	18.60	18.25	16.59	15.85	14.54	14.58	13.75	12.74	13.17	14.62	13.64	13.87	12.70	12.96	11.58	11.59	10.56	9.810	9.903	9.065	8.806	8.144	7.264	7.104	6.857	6.802	6.038	5.663	5.246	4.618	3.836	4.506	3.987	3.824	3.828	3.835	4.887	4.286	3.135	2.681	2.657	2.508	2.376	2.339	2.732	2.079	2.716	2.240	1.997	2.171	2.220	2.755	4.960	9.970	53.88	221.1	219.9	26.38	1.652	1.331
590.0	61.96	56.34	62.77	39.33	46.06	40.42	38.48	44.01	49.40	71.08	113.6	78.07	55.07	53.48	244.9	 1687	863.7	23.42	16.15	14.39	13.88	12.32	12.19	12.25	12.19	12.13	11.58	12.10	11.15	11.13	10.22	10.01	9.920	9.283	8.337	8.567	7.564	6.897	6.566	6.661	6.161	5.884	5.879	5.414	4.829	4.462	4.160	3.898	3.875	3.333	3.199	2.857	3.331	3.656	3.953	3.435	2.970	2.408	2.274	2.328	2.252	2.209	2.092	2.412	2.342	1.878	1.904	1.939	1.836	2.494	3.365	13.33	59.85	156.4	150.9	47.96	3.288
595.0	65.23	49.52	51.94	42.57	48.82	44.35	40.94	49.38	50.98	60.71	101.8	96.53	55.01	49.98	83.38	527.2	 1764	204.2	14.78	13.26	12.22	11.72	10.19	9.582	9.308	10.84	9.115	9.821	8.948	9.804	8.695	8.586	7.488	7.657	7.641	7.300	5.809	5.678	5.940	6.025	5.472	4.736	4.805	4.286	4.847	3.981	4.001	3.609	3.517	2.928	3.091	2.965	2.923	2.910	3.289	3.826	3.232	2.469	2.283	2.363	2.284	1.979	2.021	1.823	1.871	1.400	1.653	1.543	1.887	1.793	2.192	4.201	14.28	36.57	88.06	190.3	58.90
600.0	59.56	61.56	53.61	41.89	49.43	43.02	50.25	50.51	55.53	59.54	82.46	104.7	65.61	52.93	47.07	139.2	 1424	778.3	14.23	11.90	11.54	9.613	8.502	9.061	8.545	9.237	8.379	8.835	8.393	7.735	8.650	6.998	6.592	6.966	6.673	6.192	4.671	4.712	5.458	5.233	4.866	4.226	4.266	3.912	4.007	3.850	3.443	3.369	3.141	2.584	2.475	2.853	2.483	2.295	2.083	3.416	3.356	2.533	1.890	2.055	1.991	1.877	1.704	2.018	1.578	1.894	1.483	1.694	1.513	2.079	1.791	2.201	4.714	9.216	23.29	122.5	167.4
605.0	65.20	59.39	51.56	42.14	46.79	42.73	41.47	53.40	56.24	55.84	72.86	107.8	75.80	48.94	37.57	48.13	626.1	 1435	64.04	11.28	10.52	8.676	8.575	8.131	8.782	7.925	8.001	7.998	7.846	7.075	6.813	6.659	5.856	6.776	6.114	5.474	5.126	5.280	5.047	3.954	4.045	3.290	3.880	3.341	3.558	3.568	3.155	3.337	3.173	2.397	2.432	2.348	2.367	1.997	2.282	2.529	2.753	2.873	1.929	2.072	1.851	1.867	1.671	1.892	1.760	2.093	1.857	2.027	1.481	1.567	1.521	1.758	2.333	3.222	6.613	35.10	137.1
610.0	58.45	52.60	46.74	42.16	44.57	44.96	43.45	52.45	53.47	58.95	74.97	98.07	98.06	54.44	36.73	30.47	166.9	 1202	607.2	15.80	9.169	8.585	7.816	7.062	7.143	6.691	7.329	7.241	6.258	6.149	6.042	5.801	5.523	5.753	5.213	5.204	4.414	4.473	4.029	3.925	3.476	3.192	3.632	2.784	2.954	2.832	2.768	2.720	2.795	2.092	2.155	2.126	2.044	2.016	1.939	2.086	2.368	2.852	2.235	1.991	1.701	1.778	1.569	1.657	1.845	1.762	1.836	1.924	1.682	1.735	1.671	1.464	1.585	1.867	2.798	9.034	37.67
615.0	72.99	61.99	36.08	44.03	38.99	37.75	37.69	56.49	54.32	60.53	66.74	78.37	108.7	62.90	32.44	25.82	51.05	376.8	 1265	137.0	8.849	8.377	7.192	6.835	5.736	6.202	5.846	6.509	5.807	5.727	5.162	5.039	5.264	5.581	4.857	4.878	4.341	3.694	2.963	3.430	3.302	2.600	3.284	2.265	2.973	2.472	2.780	2.338	2.088	1.923	1.900	1.867	1.953	2.005	1.663	1.865	1.996	2.500	2.533	2.041	1.755	1.621	1.720	1.840	1.817	1.995	1.587	1.866	1.965	1.640	1.748	1.485	1.452	1.472	1.748	3.156	9.573
620.0	65.82	56.30	48.43	47.97	37.46	45.41	39.44	52.37	55.93	62.97	68.08	66.80	94.29	77.67	31.04	22.55	23.54	99.29	 1063	377.6	8.792	6.409	6.352	5.532	5.820	6.349	5.772	5.503	4.737	5.009	5.024	5.119	5.009	5.121	4.085	4.147	3.632	3.718	2.870	2.806	2.938	2.659	2.720	2.191	2.589	2.550	2.132	1.884	2.076	1.759	1.865	1.773	1.540	1.716	2.046	1.824	1.774	2.124	2.437	2.223	1.660	1.810	1.859	1.969	1.559	1.652	1.520	1.809	1.823	1.663	1.489	1.356	1.471	1.412	1.436	1.538	3.325
625.0	48.00	49.53	52.24	43.00	37.16	46.16	36.43	53.31	58.52	71.44	70.87	60.26	72.55	86.38	35.07	22.06	17.96	33.24	499.1	 1055	40.06	6.579	6.070	6.756	5.355	5.439	5.386	4.782	4.596	4.554	4.542	4.126	4.262	3.927	4.121	3.614	3.205	3.282	2.710	2.680	2.914	2.730	2.610	2.338	1.835	2.335	1.723	1.920	1.906	1.755	1.542	1.601	1.689	1.905	1.868	1.801	1.602	2.079	1.842	2.220	2.004	1.772	1.858	1.905	1.637	1.683	1.459	1.525	1.559	1.785	1.635	1.342	1.302	1.620	1.345	1.257	1.755
630.0	48.89	53.48	46.91	45.25	43.53	42.31	43.53	47.17	58.47	63.76	66.81	66.78	65.64	79.66	53.20	24.64	16.85	16.82	132.0	959.4	458.3	9.653	6.308	5.970	5.699	5.008	4.798	4.595	4.613	4.513	4.120	3.905	3.379	3.788	3.790	3.274	2.715	2.913	2.732	2.759	2.565	2.681	2.216	2.105	2.144	2.028	1.734	1.790	1.599	1.555	1.408	1.585	1.600	1.698	1.628	1.474	1.656	1.707	1.972	1.910	2.068	1.939	1.836	1.479	1.549	1.550	1.578	1.775	1.557	1.626	1.467	1.425	1.619	1.362	1.186	1.466	1.429
635.0	41.29	44.42	53.45	47.40	43.53	50.17	37.36	49.81	50.35	54.90	66.46	63.52	61.71	68.09	65.42	26.62	15.69	12.78	36.57	317.5	998.2	91.51	5.276	4.580	5.768	4.266	4.334	3.806	4.691	3.815	4.117	4.043	4.294	3.383	3.594	2.605	2.418	2.776	2.650	2.552	2.484	2.317	2.126	1.879	2.033	2.048	2.060	1.606	1.685	1.738	1.584	1.666	1.404	1.530	1.589	1.334	1.521	1.559	1.411	1.964	1.506	1.839	1.816	1.877	1.204	1.885	1.598	1.350	1.283	1.382	1.511	1.544	1.493	1.427	1.084	1.614	1.219
640.0	54.67	52.03	43.44	51.43	43.04	42.82	45.14	45.96	51.39	56.62	61.13	66.85	58.15	58.04	62.99	30.27	18.61	12.16	15.14	82.34	866.4	302.2	6.032	5.034	4.636	4.294	4.483	3.952	4.696	3.440	4.119	3.712	3.783	3.180	3.242	3.052	2.795	2.830	2.487	2.731	2.059	2.540	2.232	1.887	1.784	1.810	1.715	1.638	1.574	1.288	1.489	1.474	1.406	1.360	1.152	1.160	1.711	1.611	1.574	1.814	1.876	1.672	1.738	1.837	1.429	1.604	1.317	1.557	1.731	1.465	1.500	1.368	1.478	1.390	1.485	1.303	1.252
645.0	57.30	47.53	40.58	41.20	45.94	37.68	42.70	46.52	57.69	59.91	56.92	67.54	53.82	49.96	57.82	37.41	16.66	11.48	13.17	25.76	438.3	775.5	26.14	4.075	4.376	3.895	3.995	3.572	3.642	4.243	4.071	3.124	3.206	3.092	3.040	2.836	3.088	2.515	2.367	2.768	2.013	2.224	1.930	2.069	1.780	2.144	1.618	1.713	1.468	1.237	1.127	1.377	1.128	1.382	1.296	1.203	1.588	1.604	1.331	1.580	1.825	1.802	1.942	1.349	1.638	1.453	1.313	1.305	1.627	1.263	1.607	1.609	1.685	1.452	1.326	1.288	1.318
650.0	54.33	51.43	45.23	46.72	47.01	40.97	40.91	43.41	52.19	55.63	53.84	62.45	59.34	52.25	43.13	46.57	18.62	11.65	11.51	13.80	130.9	895.7	169.6	4.924	4.738	4.297	4.165	2.993	4.074	4.103	3.211	3.564	3.891	3.505	3.011	3.171	3.079	2.640	2.918	2.072	2.107	2.008	1.718	1.992	1.855	1.581	1.558	1.317	1.297	1.142	1.101	1.728	1.258	1.609	1.373	1.170	1.553	1.660	1.386	1.399	1.796	1.626	1.424	1.562	1.741	1.251	1.357	1.286	1.254	1.363	1.446	1.244	1.054	1.340	1.148	1.728	1.072
