Sample:	'1
File name:	Default_20230208_115842.FD3
Run date:	'11:52:21, 02/08/2023
Operator:	dsjg
Comment:	'

Instrument
Model:	F-2700 FL Spectrophotometer
Serial number:	2198-001
ROM Version:	4J14000 07

Instrument parameters
Measurement type:	3-D scan
Data mode:	Fluorescence
EX  Start WL:	220.0 nm
EX  End WL:	600.0 nm
EX Sampling interval:	5.0 nm
EM  Start WL:	230.0 nm
EM  End WL:	650.0 nm
EM Sampling interval:	5.0 nm
Scan speed:	12000 nm/min
EX Slit:	5.0 nm
EM Slit:	5.0 nm
PMT Voltage:	700 V
Response:	Auto 
Corrected spectra:	Off
Contour interval:	50.000

Peak integration
Integration method:	Rectangular
Sensitivity:	1
Threshold:	1.000

Peaks
No.	ApexEX/EM(nm)	Height(Data)
1	230.0/355.0	321.7
2	230.0/620.0	9.526
3	235.0/380.0	340.4
4	240.0/410.0	361.6
5	240.0/525.0	106.2
6	245.0/415.0	366.5
7	245.0/460.0	358.4
8	245.0/535.0	89.06
9	250.0/420.0	364.7
10	250.0/430.0	364.1
11	250.0/550.0	74.60
12	255.0/280.0	207.3
13	255.0/435.0	363.7
14	255.0/560.0	60.47
15	260.0/570.0	44.48
16	265.0/585.0	38.72
17	270.0/300.0	347.5
18	270.0/425.0	359.3
19	270.0/595.0	33.48
20	275.0/305.0	414.5
21	275.0/610.0	29.56
22	280.0/310.0	405.3
23	280.0/350.0	480.3
24	280.0/620.0	26.42
25	285.0/315.0	403.6
26	285.0/630.0	20.59
27	290.0/325.0	389.5
28	305.0/345.0	253.9
29	310.0/350.0	234.0
30	315.0/355.0	231.1
31	320.0/360.0	240.0
32	325.0/370.0	237.1
33	330.0/375.0	239.8
34	335.0/380.0	243.5
35	350.0/400.0	216.0
36	365.0/420.0	187.6
37	415.0/485.0	43.41
38	430.0/505.0	24.96
39	440.0/515.0	17.70
40	445.0/525.0	14.64
41	460.0/545.0	7.913
42	555.0/350.0	2.274
43	560.0/340.0	2.373
44	565.0/345.0	2.369
45	570.0/315.0	2.510
46	575.0/320.0	2.263
47	585.0/325.0	2.349

Data points
	220.0	225.0	230.0	235.0	240.0	245.0	250.0	255.0	260.0	265.0	270.0	275.0	280.0	285.0	290.0	295.0	300.0	305.0	310.0	315.0	320.0	325.0	330.0	335.0	340.0	345.0	350.0	355.0	360.0	365.0	370.0	375.0	380.0	385.0	390.0	395.0	400.0	405.0	410.0	415.0	420.0	425.0	430.0	435.0	440.0	445.0	450.0	455.0	460.0	465.0	470.0	475.0	480.0	485.0	490.0	495.0	500.0	505.0	510.0	515.0	520.0	525.0	530.0	535.0	540.0	545.0	550.0	555.0	560.0	565.0	570.0	575.0	580.0	585.0	590.0	595.0	600.0
230.0	15.60	361.4	903.3	231.2	6.385	1.991	1.552	1.249	1.218	0.995	0.994	0.850	0.749	0.705	0.549	0.474	0.418	0.440	0.381	0.382	0.368	0.320	0.351	0.296	0.323	0.282	0.265	0.260	0.206	0.230	0.213	0.221	0.159	0.153	0.197	0.280	0.260	0.240	0.255	0.177	0.188	0.172	0.146	0.162	0.140	0.146	0.179	0.935	2.981	3.432	1.551	0.313	0.108	0.088	0.082	0.073	0.068	0.050	0.057	0.051	0.040	0.029	0.041	0.035	0.028	0.031	0.030	0.025	0.032	0.025	0.023	0.013	0.021	0.019	0.028	0.009	0.018
235.0	12.20	111.3	800.7	 1375	316.2	10.50	2.244	1.604	1.816	1.642	1.155	0.977	0.742	0.656	0.545	0.625	0.533	0.540	0.466	0.378	0.371	0.329	0.340	0.338	0.367	0.237	0.317	0.243	0.282	0.234	0.219	0.226	0.149	0.157	0.165	0.189	0.231	0.288	0.220	0.190	0.196	0.165	0.124	0.174	0.171	0.167	0.146	0.331	1.156	2.446	4.941	6.091	3.258	0.617	0.099	0.079	0.114	0.090	0.051	0.055	0.061	0.055	0.040	0.058	0.047	0.041	0.060	0.019	0.057	0.029	0.020	0.013	0.024	0.027	0.020	0.022	0.009
240.0	25.87	38.07	293.3	 1478	 1677	243.3	5.145	2.145	1.919	1.689	1.622	1.287	1.204	0.923	0.579	0.629	0.455	0.596	0.477	0.383	0.378	0.348	0.372	0.335	0.343	0.286	0.282	0.180	0.268	0.190	0.231	0.180	0.182	0.154	0.158	0.200	0.177	0.259	0.163	0.205	0.206	0.166	0.164	0.161	0.221	0.233	0.166	0.210	0.395	0.736	2.363	6.684	9.821	7.432	2.524	0.258	0.093	0.104	0.078	0.080	0.068	0.053	0.045	0.054	0.029	0.024	0.039	0.010	0.050	0.022	0.044	0.025	0.044	0.017	0.012	0.030	0.016
245.0	27.72	44.42	82.20	618.9	 2140	 1643	162.3	3.497	2.518	1.831	1.565	1.526	1.284	1.045	0.899	0.707	0.577	0.600	0.534	0.503	0.414	0.377	0.345	0.320	0.327	0.286	0.313	0.262	0.254	0.211	0.248	0.199	0.191	0.188	0.142	0.177	0.157	0.184	0.223	0.225	0.200	0.213	0.152	0.165	0.207	0.215	0.252	0.305	0.294	0.279	0.632	2.150	5.985	10.86	11.68	6.389	1.465	0.147	0.067	0.077	0.044	0.060	0.034	0.050	0.058	0.040	0.032	0.029	0.029	0.031	0.031	0.025	0.035	0.022	0.014	0.024	0.028
250.0	18.50	54.70	89.15	172.1	796.8	 2002	 2039	622.9	23.36	2.970	2.274	1.642	1.487	1.230	0.955	0.810	0.709	0.592	0.519	0.451	0.441	0.380	0.396	0.390	0.312	0.271	0.307	0.302	0.283	0.250	0.213	0.206	0.182	0.197	0.155	0.135	0.138	0.159	0.180	0.198	0.238	0.201	0.172	0.180	0.164	0.177	0.185	0.342	0.401	0.442	0.375	0.627	1.529	3.510	6.693	9.991	12.05	10.26	5.705	1.474	0.127	0.077	0.076	0.060	0.060	0.042	0.037	0.034	0.032	0.028	0.036	0.042	0.025	0.028	0.023	0.022	0.017
255.0	7.831	18.03	87.72	143.8	206.2	557.7	 1941	 2986	241.5	19.81	3.760	2.157	1.811	1.341	1.035	0.880	0.807	0.719	0.581	0.508	0.426	0.468	0.495	0.446	0.328	0.279	0.316	0.283	0.319	0.255	0.288	0.231	0.192	0.192	0.195	0.155	0.127	0.146	0.117	0.168	0.230	0.256	0.201	0.187	0.177	0.219	0.164	0.182	0.254	0.392	0.592	0.693	0.633	0.878	1.605	2.492	4.659	10.13	17.44	17.06	8.255	1.423	0.126	0.073	0.076	0.060	0.037	0.064	0.018	0.033	0.039	0.035	0.034	0.014	0.048	0.012	0.034
260.0	7.823	7.220	38.67	135.7	140.8	145.3	661.6	 2730	 2911	197.5	10.13	3.500	2.130	1.825	1.270	1.149	0.902	0.725	0.591	0.704	0.540	0.560	0.427	0.486	0.305	0.378	0.371	0.321	0.325	0.268	0.281	0.268	0.250	0.192	0.205	0.152	0.177	0.147	0.175	0.122	0.229	0.243	0.232	0.199	0.183	0.169	0.153	0.147	0.195	0.191	0.392	0.773	0.880	0.564	0.557	0.684	1.198	2.838	8.170	15.84	21.61	16.19	5.973	0.688	0.083	0.065	0.046	0.045	0.022	0.045	0.049	0.019	0.038	0.026	0.016	0.022	0.028
265.0	6.782	6.048	13.41	76.54	167.9	97.03	165.7	 1037	 3341	 2791	156.1	5.580	2.603	1.914	1.540	1.309	1.096	0.828	0.705	0.802	0.566	0.579	0.446	0.498	0.396	0.474	0.330	0.307	0.288	0.305	0.250	0.241	0.248	0.181	0.197	0.157	0.144	0.151	0.152	0.157	0.146	0.205	0.210	0.266	0.248	0.207	0.165	0.169	0.166	0.135	0.228	0.362	0.751	0.985	0.827	0.367	0.425	0.765	2.054	4.874	12.16	21.06	23.65	13.12	3.240	0.237	0.077	0.069	0.040	0.055	0.075	0.034	0.054	0.042	0.051	0.012	0.019
270.0	12.16	14.22	15.22	26.67	89.33	153.9	125.1	258.5	 1137	 2805	 2612	670.2	38.47	3.015	2.200	1.746	1.165	1.085	0.801	0.763	0.660	0.585	0.541	0.460	0.463	0.401	0.396	0.347	0.374	0.314	0.318	0.267	0.228	0.257	0.213	0.197	0.154	0.161	0.160	0.141	0.151	0.168	0.180	0.206	0.247	0.235	0.173	0.233	0.209	0.190	0.160	0.198	0.307	0.471	0.800	0.925	0.822	0.568	0.614	1.202	2.951	6.321	11.66	16.86	19.70	16.71	9.797	2.856	0.244	0.079	0.070	0.037	0.055	0.042	0.041	0.032	0.032
275.0	23.73	35.21	34.47	23.05	28.99	82.50	185.5	156.4	276.0	737.9	 2181	 4054	990.2	39.74	3.704	2.292	1.824	1.203	1.079	0.836	0.745	0.584	0.701	0.460	0.396	0.508	0.399	0.395	0.303	0.322	0.317	0.319	0.251	0.214	0.216	0.231	0.195	0.167	0.151	0.122	0.175	0.188	0.178	0.151	0.215	0.325	0.245	0.267	0.234	0.278	0.205	0.168	0.232	0.218	0.297	0.413	0.863	1.160	0.999	0.649	0.845	1.539	2.783	4.034	6.446	12.97	23.28	24.69	14.16	2.734	0.164	0.072	0.048	0.052	0.055	0.042	0.047
280.0	31.73	56.68	59.42	29.46	18.02	32.05	126.4	207.3	134.3	194.6	693.1	 2937	 4086	746.5	15.91	2.864	2.181	1.492	1.082	0.988	0.826	0.725	0.679	0.609	0.546	0.547	0.382	0.387	0.378	0.381	0.282	0.343	0.297	0.276	0.242	0.258	0.226	0.168	0.159	0.165	0.156	0.148	0.164	0.163	0.219	0.298	0.289	0.305	0.400	0.341	0.216	0.206	0.229	0.199	0.187	0.231	0.374	0.727	1.208	1.356	0.884	0.580	0.766	1.063	1.656	3.462	8.907	18.67	27.55	22.72	8.641	0.814	0.054	0.087	0.069	0.043	0.055
285.0	47.10	78.55	79.92	42.67	20.18	21.46	59.35	183.9	196.8	104.4	199.2	 1003	 3379	 3768	102.0	6.099	2.794	2.129	1.495	1.193	1.042	0.813	0.725	0.570	0.489	0.550	0.534	0.351	0.444	0.493	0.362	0.320	0.325	0.271	0.223	0.247	0.224	0.190	0.179	0.186	0.218	0.184	0.171	0.170	0.185	0.252	0.391	0.338	0.473	0.368	0.320	0.314	0.197	0.175	0.187	0.219	0.253	0.398	0.640	1.156	1.294	1.056	0.562	0.486	0.638	0.992	2.243	5.449	12.65	23.46	27.18	17.64	3.780	0.182	0.060	0.069	0.089
290.0	54.24	93.55	94.57	53.29	27.10	24.35	40.80	97.78	198.0	220.7	148.2	297.9	 1072	 2628	 3180	 1339	26.47	3.183	2.128	1.546	1.295	1.011	0.934	0.718	0.597	0.611	0.483	0.452	0.426	0.445	0.423	0.372	0.322	0.289	0.283	0.246	0.266	0.225	0.167	0.173	0.178	0.153	0.163	0.159	0.187	0.269	0.385	0.469	0.538	0.428	0.360	0.346	0.275	0.203	0.216	0.238	0.214	0.282	0.330	0.565	0.823	1.194	1.298	1.129	0.838	0.637	0.847	1.600	3.283	6.830	11.74	17.90	20.57	19.04	10.58	2.775	0.172
295.0	60.51	104.6	111.8	69.59	41.63	37.06	43.74	68.93	125.8	247.3	299.9	197.2	333.5	701.3	 1723	 3853	595.6	29.25	3.129	2.246	1.676	1.252	1.074	0.928	0.644	0.689	0.592	0.558	0.429	0.495	0.420	0.366	0.350	0.296	0.260	0.296	0.273	0.241	0.190	0.204	0.153	0.189	0.146	0.143	0.195	0.234	0.283	0.416	0.564	0.524	0.389	0.343	0.324	0.302	0.271	0.231	0.236	0.307	0.326	0.450	0.542	0.584	0.872	1.369	1.787	1.461	0.862	0.888	1.219	2.034	2.968	4.480	6.413	12.14	23.48	26.82	14.46
300.0	64.60	109.8	119.9	82.40	50.07	45.69	54.46	74.41	107.0	199.4	347.5	303.1	201.1	250.0	535.1	 2250	 3940	492.2	13.09	3.258	2.141	1.539	1.387	1.064	0.849	0.750	0.638	0.557	0.513	0.465	0.555	0.428	0.366	0.374	0.305	0.260	0.252	0.281	0.212	0.222	0.198	0.178	0.159	0.165	0.206	0.279	0.341	0.417	0.576	0.539	0.475	0.485	0.305	0.367	0.295	0.265	0.316	0.355	0.367	0.456	0.555	0.595	0.721	1.014	1.541	2.090	1.799	1.190	0.963	0.926	1.172	1.484	1.805	3.386	8.579	19.39	29.98
305.0	65.58	122.8	131.1	91.04	62.43	55.39	66.16	86.97	119.6	181.0	301.2	414.5	262.9	174.7	195.3	717.3	 2749	 3844	366.2	5.912	2.776	1.943	1.417	1.167	1.082	0.867	0.696	0.658	0.636	0.462	0.447	0.452	0.492	0.337	0.371	0.275	0.275	0.284	0.286	0.212	0.151	0.166	0.192	0.188	0.232	0.338	0.335	0.430	0.596	0.568	0.518	0.519	0.371	0.397	0.409	0.392	0.357	0.380	0.421	0.575	0.571	0.660	0.775	0.980	1.114	1.602	2.098	2.236	1.557	1.000	0.880	0.897	0.884	1.177	2.265	5.488	13.05
310.0	67.23	128.2	140.7	101.8	71.86	68.60	82.73	107.1	145.5	191.5	261.7	369.1	405.3	255.3	148.8	218.3	805.5	 2359	 3213	 1303	19.75	2.926	1.938	1.462	1.360	0.975	0.843	0.867	0.647	0.632	0.471	0.434	0.437	0.412	0.386	0.348	0.258	0.287	0.223	0.222	0.188	0.201	0.174	0.201	0.208	0.297	0.378	0.469	0.535	0.558	0.481	0.510	0.433	0.436	0.463	0.408	0.475	0.489	0.554	0.606	0.683	0.751	0.931	1.026	1.105	1.260	1.582	1.931	2.121	1.990	1.529	0.964	0.840	0.808	0.891	1.484	3.255
315.0	74.64	141.3	160.7	117.9	90.02	84.68	100.3	132.8	170.5	229.2	281.6	332.8	386.7	403.6	220.7	126.7	227.9	578.4	 1457	 3769	 1767	23.20	2.901	2.132	1.487	1.216	0.999	0.916	0.702	0.591	0.590	0.488	0.472	0.398	0.430	0.380	0.305	0.318	0.263	0.245	0.216	0.224	0.185	0.192	0.220	0.287	0.385	0.543	0.569	0.507	0.465	0.485	0.515	0.475	0.468	0.513	0.484	0.624	0.667	0.734	0.727	0.900	0.993	1.080	1.245	1.377	1.498	1.601	1.664	1.886	2.510	2.052	1.285	0.851	0.658	0.660	1.068
320.0	87.32	148.0	175.5	130.0	97.46	95.90	114.6	151.2	193.8	253.4	305.3	345.8	358.8	402.8	342.1	140.8	110.4	164.9	403.0	 1974	 4046	379.7	13.13	2.875	2.029	1.396	1.189	0.950	0.955	0.756	0.715	0.541	0.563	0.436	0.368	0.357	0.337	0.333	0.259	0.258	0.189	0.230	0.175	0.207	0.189	0.332	0.396	0.567	0.713	0.547	0.548	0.586	0.524	0.495	0.514	0.543	0.644	0.648	0.690	0.785	0.818	1.019	1.099	1.233	1.408	1.502	1.586	1.639	1.627	1.625	1.934	2.263	2.155	1.556	0.853	0.616	0.590
325.0	89.63	176.1	212.6	149.6	111.5	108.5	125.7	166.2	217.4	276.4	329.6	369.1	371.1	365.2	389.5	225.8	97.06	81.24	118.0	563.8	 2588	 3199	303.3	5.357	2.325	1.690	1.315	1.088	1.083	0.844	0.779	0.621	0.546	0.500	0.433	0.346	0.397	0.312	0.301	0.239	0.236	0.210	0.214	0.213	0.287	0.373	0.531	0.614	0.754	0.689	0.593	0.631	0.612	0.539	0.579	0.584	0.735	0.675	0.732	0.862	0.861	1.109	1.137	1.347	1.624	1.660	1.813	1.743	1.741	1.637	1.793	1.696	2.077	2.349	1.475	0.884	0.575
330.0	100.5	195.4	250.9	198.2	141.0	127.5	148.2	186.8	247.9	307.1	372.0	410.5	407.6	365.5	335.8	301.6	186.5	85.13	67.28	155.6	703.2	 2094	 2924	 1164	18.07	2.627	1.932	1.368	1.250	1.041	0.849	0.696	0.616	0.539	0.402	0.429	0.361	0.341	0.278	0.296	0.235	0.210	0.209	0.227	0.310	0.364	0.557	0.694	0.829	0.947	0.760	0.794	0.674	0.580	0.622	0.631	0.754	0.774	0.918	1.031	1.058	1.337	1.364	1.546	1.721	1.811	1.795	1.883	1.932	1.912	1.945	1.739	1.775	1.844	1.773	1.650	1.211
335.0	104.7	210.9	284.5	242.4	172.8	150.1	169.2	209.1	268.8	340.1	403.3	444.2	444.4	395.6	327.3	265.1	279.1	162.9	73.42	79.36	187.6	503.9	 1318	 3680	 1673	22.70	2.670	1.845	1.472	1.134	0.954	0.847	0.527	0.680	0.481	0.505	0.334	0.382	0.279	0.285	0.243	0.272	0.267	0.261	0.340	0.411	0.534	0.781	0.933	1.003	0.929	0.893	0.742	0.758	0.713	0.788	0.986	0.911	1.064	1.130	1.216	1.452	1.401	1.700	1.745	1.830	1.977	1.986	2.087	1.964	1.930	1.806	1.869	1.663	1.486	1.369	1.630
340.0	110.4	225.1	303.6	270.6	204.1	174.8	193.3	229.0	287.8	357.4	425.0	461.4	463.1	419.5	343.3	254.3	249.9	248.4	116.7	72.01	84.08	143.3	351.4	 1924	 3959	333.7	12.41	2.352	1.814	1.342	1.069	0.819	0.694	0.612	0.548	0.512	0.396	0.379	0.324	0.283	0.341	0.254	0.290	0.261	0.354	0.464	0.589	0.915	1.024	1.061	1.027	1.084	0.974	0.801	0.786	0.816	0.956	1.019	1.121	1.195	1.329	1.415	1.525	1.679	1.824	1.930	2.141	2.131	2.373	2.250	2.044	1.890	1.926	1.740	1.522	1.294	1.337
345.0	116.4	239.0	316.9	289.6	232.2	197.3	211.4	243.5	294.1	367.7	438.3	470.2	476.0	433.2	358.0	263.5	219.7	253.9	196.0	94.64	70.89	73.95	109.4	533.5	 2645	 2746	266.6	4.904	2.333	1.621	1.236	0.990	0.784	0.707	0.578	0.476	0.502	0.412	0.369	0.318	0.273	0.310	0.278	0.291	0.327	0.394	0.592	0.844	1.073	1.092	1.060	1.195	1.032	0.917	0.810	0.967	0.943	1.057	1.209	1.326	1.372	1.592	1.489	1.795	1.845	2.016	2.223	2.165	2.344	2.369	2.104	2.027	1.910	1.847	1.497	1.315	1.203
350.0	110.2	234.6	320.5	301.3	248.7	216.8	226.6	256.5	305.8	371.5	437.2	468.8	480.3	438.4	366.9	278.7	221.5	210.0	234.0	182.6	100.0	75.36	70.06	152.9	708.0	 1979	 2649	 1020	17.25	2.530	1.714	1.263	0.949	0.838	0.664	0.525	0.464	0.455	0.370	0.310	0.324	0.304	0.294	0.321	0.328	0.466	0.604	0.840	1.036	1.148	1.025	1.211	1.042	1.004	0.985	0.979	1.012	1.062	1.213	1.354	1.415	1.626	1.650	1.877	1.844	2.092	2.159	2.274	2.251	2.226	2.188	2.115	2.082	1.839	1.644	1.424	1.231
355.0	110.9	228.1	321.7	310.2	268.1	244.9	249.8	271.6	317.0	370.0	427.8	462.6	474.3	441.7	377.1	293.0	241.6	208.7	200.6	231.1	183.5	102.2	80.82	82.93	191.8	474.3	 1226	 3298	 1482	22.58	2.490	1.655	1.166	0.950	0.775	0.587	0.528	0.564	0.447	0.345	0.370	0.275	0.282	0.330	0.369	0.485	0.592	0.750	1.022	1.086	1.107	1.301	1.211	1.146	1.071	1.070	1.044	1.219	1.215	1.412	1.564	1.551	1.717	1.861	1.981	2.042	2.114	2.192	2.236	2.290	2.166	2.226	1.970	1.813	1.643	1.686	1.532
360.0	111.0	226.4	316.6	313.3	284.7	262.6	255.6	287.3	325.4	370.4	424.4	455.1	462.1	431.4	378.6	303.2	256.7	221.7	200.0	213.0	240.0	151.8	98.91	81.54	85.53	136.4	320.8	 1771	 3553	318.7	11.82	2.155	1.497	1.028	0.912	0.675	0.589	0.514	0.477	0.301	0.366	0.288	0.296	0.300	0.342	0.478	0.550	0.785	0.999	1.054	1.158	1.281	1.347	1.113	1.136	1.123	1.155	1.232	1.254	1.476	1.520	1.607	1.803	1.867	1.820	2.042	1.966	2.222	2.244	2.198	2.195	2.130	2.078	1.834	1.636	1.799	1.447
365.0	104.1	214.7	311.5	324.8	298.1	278.1	269.0	293.8	325.9	374.9	416.2	447.3	453.1	425.0	380.4	312.8	270.2	236.6	214.5	205.0	236.1	218.7	130.4	94.45	76.54	70.42	99.44	485.6	 2463	 2599	251.8	4.555	1.757	1.216	1.034	0.771	0.631	0.584	0.433	0.361	0.371	0.290	0.325	0.249	0.419	0.482	0.529	0.806	1.099	1.000	1.149	1.362	1.356	1.213	1.174	1.182	1.280	1.206	1.292	1.448	1.484	1.483	1.808	1.817	1.941	1.874	2.068	1.985	2.097	2.264	2.134	2.047	2.062	1.891	1.718	1.626	1.588
370.0	99.54	208.4	302.2	332.7	310.6	290.3	285.1	305.7	331.0	373.9	409.5	434.8	438.2	416.9	374.9	318.5	281.8	255.7	236.9	220.5	216.7	237.1	209.3	133.8	95.30	73.28	64.00	137.8	661.0	 1916	 2534	918.5	14.66	1.825	1.259	0.907	0.747	0.623	0.533	0.457	0.385	0.347	0.342	0.306	0.365	0.453	0.555	0.803	0.977	1.125	1.096	1.336	1.336	1.388	1.270	1.336	1.269	1.270	1.334	1.529	1.577	1.514	1.787	1.857	1.913	1.952	2.014	1.984	2.001	2.119	2.022	2.027	2.047	1.920	1.748	1.668	1.599
375.0	99.67	204.4	288.8	334.0	324.3	305.6	297.6	311.3	333.2	367.8	397.0	427.5	424.2	402.3	368.3	324.4	292.6	275.4	260.5	243.6	224.8	220.3	239.8	208.1	127.8	93.93	72.71	70.78	175.5	455.2	 1218	 3091	 1280	19.10	1.697	1.191	0.915	0.694	0.676	0.459	0.428	0.408	0.393	0.384	0.361	0.478	0.637	0.784	0.970	1.006	1.072	1.310	1.271	1.395	1.350	1.428	1.406	1.400	1.398	1.572	1.641	1.560	1.748	1.786	1.816	1.752	1.797	1.874	2.057	2.082	2.142	2.056	1.945	1.951	1.813	1.606	1.681
380.0	105.2	196.8	284.9	340.4	325.0	315.1	306.0	318.5	333.3	361.7	394.4	412.9	411.0	393.2	362.7	325.0	303.1	285.7	271.5	258.5	239.6	224.5	225.6	243.5	176.1	115.1	86.02	67.32	75.68	126.2	313.5	 1697	 3088	269.8	9.514	1.436	1.178	0.871	0.630	0.507	0.419	0.386	0.441	0.362	0.399	0.446	0.594	0.734	0.963	1.006	1.052	1.230	1.336	1.304	1.247	1.364	1.452	1.451	1.445	1.596	1.548	1.667	1.803	1.741	1.899	1.754	1.795	1.903	2.063	1.955	2.062	1.914	1.907	1.959	1.808	1.751	1.678
385.0	99.82	186.5	282.9	333.1	338.3	327.4	317.0	321.0	334.0	360.3	381.8	403.2	400.6	385.3	358.8	324.4	304.5	294.4	280.9	267.3	253.3	234.9	221.0	234.5	225.4	144.2	101.3	76.38	62.19	59.79	92.62	462.5	 2189	 2169	201.4	3.135	1.361	0.896	0.747	0.512	0.572	0.484	0.442	0.420	0.399	0.441	0.585	0.766	0.956	1.015	1.052	1.367	1.385	1.380	1.277	1.392	1.502	1.436	1.480	1.485	1.481	1.681	1.757	1.724	1.814	1.712	1.818	1.884	1.945	1.905	1.783	1.806	1.901	1.968	1.778	1.738	1.891
390.0	93.28	183.1	286.2	326.7	342.3	335.8	325.2	326.4	335.8	357.0	380.6	389.2	387.5	376.6	348.9	322.6	307.6	297.4	288.4	278.7	267.6	251.0	233.3	222.1	227.1	200.9	137.2	98.06	75.62	58.85	52.95	125.1	588.2	 1588	 1980	702.4	11.96	1.364	0.908	0.707	0.597	0.519	0.439	0.413	0.430	0.483	0.557	0.765	0.916	1.025	1.040	1.387	1.408	1.460	1.409	1.354	1.586	1.511	1.563	1.569	1.529	1.562	1.663	1.685	1.650	1.751	1.767	1.776	1.847	1.843	1.700	1.926	1.865	1.794	1.862	1.753	1.793
395.0	92.81	184.7	271.0	327.2	354.2	344.9	331.1	331.1	341.5	355.2	367.8	379.2	371.9	366.7	346.0	317.2	307.0	297.0	293.4	285.3	277.0	263.6	249.9	230.1	214.2	217.3	196.2	131.5	96.44	74.42	56.38	60.12	151.8	374.6	962.4	 2374	974.0	14.87	1.435	1.044	0.754	0.559	0.523	0.520	0.444	0.490	0.586	0.865	0.976	0.999	1.004	1.307	1.462	1.518	1.483	1.536	1.541	1.519	1.626	1.607	1.594	1.573	1.652	1.656	1.708	1.757	1.836	1.825	1.906	1.916	1.609	1.941	1.888	1.762	1.769	1.712	1.769
400.0	90.56	184.3	273.5	340.0	357.0	357.4	345.0	334.4	342.4	347.1	367.0	372.3	365.5	356.9	338.7	315.2	304.5	297.7	295.8	289.1	279.2	270.8	255.6	241.1	218.4	206.9	216.0	172.6	115.2	88.93	66.92	52.43	61.61	101.4	246.5	 1325	 2363	225.9	7.653	1.326	0.938	0.629	0.554	0.568	0.460	0.484	0.648	0.857	0.924	0.977	1.019	1.378	1.523	1.467	1.482	1.530	1.666	1.653	1.540	1.576	1.656	1.604	1.737	1.764	1.689	1.780	1.736	1.732	1.850	1.893	1.825	1.830	1.875	1.643	1.864	1.878	1.771
405.0	87.89	183.7	274.2	328.2	356.9	356.4	352.5	341.3	346.5	347.6	361.7	366.8	360.7	351.8	332.3	311.6	303.4	294.1	293.6	288.2	281.2	272.5	259.1	246.7	225.4	206.5	205.1	205.2	143.6	103.1	79.49	59.61	47.05	45.31	71.27	358.2	 1638	 1805	171.3	2.830	1.192	0.824	0.595	0.563	0.488	0.536	0.637	0.790	0.958	0.996	1.001	1.390	1.518	1.560	1.558	1.589	1.632	1.544	1.752	1.485	1.629	1.711	1.683	1.780	1.596	1.641	1.748	1.626	1.717	1.777	1.893	1.707	1.743	1.769	1.752	1.756	1.747
410.0	91.33	172.8	268.5	329.4	361.6	358.7	353.0	350.8	347.0	350.8	362.5	363.0	357.6	344.7	325.2	304.5	295.1	289.8	285.3	281.9	277.5	272.1	263.3	251.7	232.5	214.5	198.2	199.2	188.1	135.9	96.27	73.04	53.93	41.17	37.84	95.46	431.5	 1235	 1580	554.2	10.10	1.169	0.762	0.710	0.530	0.590	0.598	0.741	0.929	1.015	1.088	1.467	1.491	1.551	1.626	1.636	1.602	1.679	1.614	1.573	1.677	1.618	1.654	1.775	1.655	1.648	1.713	1.537	1.613	1.688	1.720	1.733	1.822	1.753	1.707	1.611	1.720
415.0	97.91	162.3	258.6	319.7	353.9	366.5	355.1	353.3	350.5	355.3	357.7	357.9	351.4	333.5	313.0	293.4	284.5	278.0	276.7	273.9	269.5	266.0	260.9	251.3	238.8	220.4	201.9	191.2	190.8	178.6	124.4	88.14	65.44	48.78	37.70	41.35	110.0	290.1	764.2	 1812	221.0	12.65	1.147	0.795	0.631	0.594	0.606	0.769	0.972	0.915	1.005	1.345	1.526	1.442	1.569	1.578	1.598	1.709	1.731	1.609	1.714	1.662	1.698	1.673	1.715	1.729	1.698	1.547	1.570	1.643	1.654	1.691	1.707	1.524	1.584	1.622	1.582
420.0	96.24	166.4	257.5	320.2	356.3	364.4	364.7	354.8	346.7	354.0	357.6	353.7	341.4	323.5	305.3	285.8	274.0	270.7	267.5	265.5	261.5	260.7	258.4	251.6	238.7	223.6	207.3	191.0	180.2	187.6	154.2	103.1	75.24	56.22	42.12	33.71	41.56	76.27	192.2	995.2	 1674	202.8	5.793	1.060	0.739	0.638	0.653	0.762	0.960	1.045	1.027	1.325	1.456	1.459	1.607	1.637	1.586	1.705	1.725	1.573	1.670	1.603	1.689	1.633	1.648	1.647	1.580	1.544	1.699	1.546	1.521	1.727	1.631	1.565	1.601	1.584	1.627
425.0	92.04	163.2	247.7	318.8	355.5	357.4	362.4	357.0	350.3	357.8	359.3	350.3	335.3	319.1	294.9	277.4	266.7	263.2	259.2	257.2	252.1	254.8	254.2	246.5	235.4	223.9	207.0	193.9	178.3	177.3	172.8	122.8	83.28	63.12	47.86	35.84	29.59	31.03	52.59	264.9	 1238	 1472	28.95	1.926	0.920	0.878	0.714	0.758	0.957	0.890	1.003	1.319	1.444	1.363	1.492	1.578	1.647	1.699	1.668	1.639	1.689	1.663	1.681	1.663	1.720	1.676	1.578	1.602	1.572	1.541	1.624	1.631	1.491	1.636	1.522	1.635	1.548
430.0	87.13	161.1	249.2	309.8	345.7	359.9	364.1	360.4	357.1	355.3	356.4	348.2	329.1	308.5	285.4	268.5	256.5	250.9	247.2	245.6	244.4	245.6	243.7	241.0	231.1	223.6	211.5	196.4	182.4	170.6	164.2	149.9	105.5	73.29	55.36	42.20	31.90	25.16	24.40	68.14	331.5	981.9	 1220	437.5	9.003	1.192	0.864	0.860	0.934	0.926	1.058	1.334	1.381	1.487	1.639	1.584	1.649	1.687	1.664	1.647	1.753	1.651	1.761	1.570	1.660	1.627	1.578	1.595	1.536	1.436	1.509	1.524	1.497	1.573	1.458	1.472	1.531
435.0	84.90	147.3	241.7	299.5	347.5	356.4	362.4	363.7	362.4	358.4	357.1	345.7	322.8	297.3	277.8	258.7	243.5	238.1	235.0	232.8	231.9	233.2	234.9	230.4	226.5	220.9	211.2	200.4	188.3	173.2	155.3	147.5	133.3	92.27	65.21	50.67	38.26	28.35	22.22	27.05	82.32	228.6	594.6	 1506	207.2	10.74	1.191	1.164	0.990	1.074	1.007	1.282	1.456	1.440	1.545	1.525	1.618	1.803	1.702	1.683	1.704	1.631	1.718	1.610	1.678	1.734	1.600	1.582	1.449	1.387	1.471	1.497	1.561	1.583	1.396	1.416	1.443
440.0	112.5	149.5	230.8	286.7	330.1	353.3	363.0	361.5	360.1	358.2	353.5	340.0	317.0	293.4	267.8	248.2	234.8	229.6	223.6	222.9	221.1	225.0	226.6	224.3	220.4	214.8	208.7	200.0	188.5	173.8	155.0	139.9	134.8	110.0	73.29	54.79	42.72	31.44	23.99	19.92	28.00	58.42	150.0	910.0	 1474	175.9	3.434	1.214	1.083	1.049	1.012	1.319	1.384	1.540	1.478	1.642	1.667	1.794	1.662	1.589	1.721	1.718	1.661	1.673	1.811	1.635	1.582	1.594	1.566	1.418	1.517	1.445	1.419	1.438	1.472	1.467	1.436
445.0	150.0	149.2	226.2	283.6	329.3	342.1	353.6	355.5	361.4	357.2	352.1	335.9	308.8	280.6	258.1	237.9	228.7	219.2	216.1	214.6	211.7	216.1	217.6	215.8	215.2	208.2	204.1	194.6	188.7	173.1	156.8	137.4	126.1	120.5	86.00	60.19	45.82	35.28	26.73	19.74	17.68	21.81	40.12	252.5	 1200	 1248	23.66	1.907	1.324	1.061	1.068	1.250	1.435	1.367	1.534	1.489	1.724	1.737	1.670	1.508	1.694	1.664	1.632	1.789	1.693	1.631	1.576	1.667	1.457	1.429	1.466	1.435	1.380	1.337	1.369	1.317	1.323
450.0	170.9	212.4	218.5	269.6	313.7	328.7	344.2	344.4	349.8	344.6	337.6	323.3	294.9	268.7	241.7	223.4	213.2	205.9	201.6	200.2	198.1	200.1	201.5	203.2	201.7	198.4	193.1	186.9	180.8	168.8	154.7	136.7	118.4	109.9	98.69	72.26	50.78	39.39	29.60	22.79	17.71	15.20	16.71	62.21	324.8	927.2	 1102	357.3	7.421	1.306	1.198	1.330	1.423	1.467	1.457	1.446	1.699	1.630	1.686	1.722	1.668	1.603	1.693	1.661	1.614	1.517	1.476	1.520	1.413	1.352	1.393	1.393	1.316	1.353	1.278	1.187	1.283
455.0	119.8	339.0	266.7	256.4	296.0	304.9	327.2	330.8	330.0	331.6	322.6	307.6	274.8	250.4	225.9	208.8	194.8	188.2	183.2	183.3	181.7	182.0	184.8	187.0	186.2	183.7	179.7	175.5	171.7	162.2	149.6	132.7	114.3	99.57	92.49	86.15	61.17	42.92	32.67	25.80	20.12	15.62	13.26	20.78	77.38	215.4	570.2	 1265	171.2	8.016	1.309	1.448	1.468	1.425	1.461	1.411	1.472	1.544	1.634	1.513	1.616	1.437	1.649	1.528	1.631	1.426	1.417	1.391	1.363	1.298	1.281	1.275	1.194	1.200	1.269	1.108	1.244
460.0	75.50	382.4	408.5	249.4	271.8	358.4	311.7	318.5	314.4	319.2	309.8	293.4	264.4	241.6	213.9	197.0	182.8	177.3	170.8	168.5	169.1	168.1	172.3	173.5	173.2	171.8	169.6	165.4	162.0	155.6	142.9	129.5	110.8	96.87	84.57	83.87	69.80	46.84	34.34	27.60	21.68	16.78	13.07	12.27	23.11	52.93	142.7	764.8	 1139	128.3	3.117	1.483	1.386	1.367	1.380	1.315	1.493	1.400	1.481	1.522	1.585	1.503	1.528	1.476	1.492	1.337	1.313	1.273	1.172	1.301	1.171	1.266	1.068	1.196	1.235	1.216	1.143
465.0	60.20	287.5	619.5	295.0	260.7	297.4	296.9	303.6	311.5	304.1	295.6	281.6	254.4	228.3	204.9	185.7	173.1	165.9	160.6	159.4	157.1	158.5	159.5	161.1	162.0	160.9	161.3	156.2	154.3	148.4	139.1	124.0	106.9	94.09	79.19	75.02	73.10	53.99	35.93	28.97	22.77	17.91	13.92	11.35	11.87	16.98	36.04	210.7	963.1	915.0	18.76	2.049	1.380	1.330	1.377	1.330	1.516	1.357	1.363	1.439	1.473	1.525	1.436	1.393	1.419	1.396	1.354	1.177	1.269	1.286	1.099	1.021	0.960	1.129	1.036	0.997	1.087
470.0	51.24	154.4	658.6	646.9	262.2	265.0	270.1	279.6	285.4	279.6	275.0	258.4	235.2	208.7	186.4	168.5	157.7	151.0	145.5	142.6	141.4	142.6	144.1	145.4	146.9	145.7	145.0	142.3	140.6	136.6	128.4	115.9	101.3	88.80	75.51	67.12	64.13	58.89	42.70	30.84	24.18	19.29	15.27	12.10	10.57	9.943	13.00	51.36	265.3	699.0	787.1	273.3	7.172	1.475	1.393	1.364	1.358	1.281	1.298	1.426	1.391	1.432	1.359	1.320	1.311	1.316	1.229	1.142	1.121	1.176	1.079	1.100	1.037	1.000	0.982	0.932	0.999
475.0	45.73	106.3	355.7	 1016	438.4	237.0	241.7	255.5	256.8	259.1	249.3	234.0	212.1	191.9	169.9	152.2	142.5	135.7	128.8	127.1	124.8	126.4	128.7	128.0	129.5	130.9	129.9	128.4	127.7	124.4	117.8	106.3	95.16	82.42	71.55	61.74	55.75	52.29	49.43	35.70	25.72	20.66	16.40	13.14	11.10	9.010	8.727	16.18	62.74	161.8	384.0	896.6	161.4	7.493	1.337	1.452	1.308	1.286	1.254	1.348	1.272	1.252	1.199	1.240	1.229	1.074	1.053	1.080	1.137	0.956	1.025	0.936	0.983	0.952	0.877	0.818	0.911
480.0	47.44	92.50	193.5	936.0	822.3	239.9	226.9	235.1	242.2	241.5	233.2	214.8	197.3	176.4	156.4	141.7	132.6	125.0	119.4	116.4	114.3	115.1	116.2	119.1	119.1	120.4	118.8	119.1	117.6	117.4	110.5	98.89	89.48	78.43	68.42	59.71	51.97	46.55	47.66	41.27	27.62	21.16	17.13	13.78	11.66	9.395	7.948	8.681	18.00	39.11	96.15	503.1	816.8	132.5	3.146	1.354	1.267	1.262	1.275	1.281	1.204	1.174	1.265	1.310	1.181	1.066	1.018	0.880	1.047	0.990	0.881	0.900	0.889	0.953	0.798	0.838	0.841
485.0	52.44	79.57	139.5	574.0	 1205	349.4	212.8	218.7	221.5	229.1	222.6	206.1	188.3	168.0	148.2	130.3	121.8	115.5	110.1	108.2	106.3	107.0	108.4	109.8	109.6	110.4	110.3	109.9	108.6	107.7	103.4	94.44	85.44	74.23	65.34	57.52	49.11	43.00	41.34	43.41	31.65	22.08	17.21	14.11	12.07	9.878	7.875	7.095	8.342	12.11	24.22	133.9	658.2	746.1	22.55	1.959	1.336	1.369	1.189	1.193	1.198	1.116	1.053	1.134	1.046	1.068	1.087	0.890	0.872	0.931	0.835	0.931	0.794	0.822	0.684	0.755	0.806
490.0	42.89	86.17	117.8	265.5	 1006	847.0	233.2	201.2	203.1	207.5	204.0	190.8	174.2	155.5	137.0	121.7	111.3	104.1	100.5	97.63	95.94	96.55	96.13	97.87	98.61	99.32	98.58	99.49	97.87	97.23	93.55	86.86	78.13	68.82	60.74	53.91	46.10	40.75	36.28	36.55	34.84	26.43	18.10	14.79	12.24	10.49	8.623	7.319	6.541	6.329	8.562	32.62	175.6	515.1	652.7	99.77	7.234	1.392	1.184	1.119	1.098	1.087	1.061	1.007	1.004	1.019	0.976	0.862	0.797	0.871	0.889	0.787	0.749	0.766	0.649	0.699	0.703
495.0	29.66	82.56	117.6	164.2	461.5	 1216	375.4	180.7	188.0	185.4	184.9	175.3	157.2	140.2	123.1	110.1	99.82	93.30	89.76	87.64	84.32	84.19	84.99	86.42	85.32	87.53	87.32	87.37	88.37	86.95	82.86	77.85	70.35	62.48	56.68	49.32	43.77	38.22	33.32	30.74	30.23	29.33	21.52	15.24	12.71	10.98	8.896	7.686	6.528	5.545	5.319	10.19	41.62	119.5	359.5	776.1	172.3	7.160	1.185	0.966	1.113	0.989	0.933	0.889	0.908	0.944	0.813	0.823	0.736	0.712	0.752	0.785	0.687	0.750	0.568	0.614	0.591
500.0	29.04	77.19	116.1	130.0	221.9	990.3	867.2	186.2	171.3	169.0	169.0	158.0	141.3	126.9	111.5	98.88	90.52	84.37	81.93	78.10	77.27	76.74	76.88	78.63	78.09	78.94	78.82	78.37	79.32	79.24	74.88	70.72	65.26	57.81	51.97	45.91	41.44	36.16	31.27	28.12	25.94	28.01	24.06	16.81	12.93	10.99	9.201	7.835	6.598	5.513	4.713	5.324	11.85	28.97	90.31	452.8	768.4	138.3	2.782	1.047	1.074	0.886	0.945	0.810	0.775	0.809	0.773	0.751	0.738	0.665	0.650	0.702	0.597	0.691	0.520	0.566	0.641
505.0	28.03	65.06	112.5	117.0	148.2	561.6	 1216	290.8	155.7	156.4	152.9	145.4	131.8	115.0	100.5	90.82	83.18	77.16	73.84	70.59	69.76	69.45	69.79	70.60	70.19	70.94	69.84	70.80	71.31	71.69	68.56	64.93	58.88	53.97	48.19	42.93	38.15	33.90	29.52	25.66	23.44	24.19	24.96	18.90	13.67	11.04	9.237	7.947	6.878	5.822	4.806	4.170	5.266	8.650	22.33	121.5	591.2	649.9	23.51	1.470	0.994	1.007	0.888	0.842	0.782	0.717	0.709	0.694	0.708	0.630	0.634	0.624	0.534	0.597	0.492	0.547	0.488
510.0	26.58	47.69	99.10	117.7	117.7	238.4	927.5	835.2	176.5	138.8	134.7	126.9	116.3	101.2	89.56	78.77	72.58	67.71	63.25	62.55	60.92	60.28	60.38	61.63	61.06	61.49	61.58	61.57	62.24	63.22	60.72	57.27	52.24	47.46	42.56	38.57	34.64	30.20	26.77	23.67	20.91	19.61	20.63	20.14	15.48	11.19	9.345	7.964	6.823	5.926	5.033	4.245	3.941	4.504	7.100	29.13	156.7	437.7	521.0	106.0	6.601	0.934	0.796	0.762	0.732	0.659	0.674	0.649	0.616	0.562	0.558	0.540	0.500	0.491	0.479	0.536	0.491
515.0	22.87	41.21	73.90	116.9	104.3	131.4	379.9	 1117	452.2	121.2	118.8	111.2	101.4	88.37	79.52	68.96	62.88	59.39	54.54	53.63	52.03	52.06	51.50	52.16	53.18	52.55	53.06	52.84	53.84	52.85	52.30	48.75	45.06	41.28	37.05	34.10	30.93	27.20	24.05	22.03	18.89	17.04	16.26	17.41	17.70	12.65	9.053	7.589	6.585	5.637	4.931	4.347	3.710	3.343	3.615	8.361	36.73	100.7	251.8	576.4	164.3	6.027	0.895	0.690	0.666	0.650	0.633	0.595	0.509	0.537	0.549	0.440	0.407	0.399	0.459	0.422	0.405
520.0	16.99	34.64	55.87	103.4	105.1	98.10	168.8	843.5	882.6	133.7	106.2	103.2	91.35	80.83	71.00	62.35	56.41	53.24	49.40	47.72	46.56	46.53	45.67	46.35	46.11	46.85	47.30	47.11	47.41	47.47	46.44	42.95	40.15	36.49	34.21	30.80	27.62	24.80	22.42	20.22	17.46	15.62	14.42	14.61	16.32	14.05	9.429	7.730	6.472	5.608	4.756	4.244	3.697	3.173	2.864	3.682	9.935	24.12	62.08	328.4	554.5	118.0	2.050	0.797	0.671	0.640	0.511	0.541	0.448	0.458	0.448	0.409	0.367	0.421	0.349	0.373	0.396
525.0	15.65	29.43	52.31	86.66	106.2	87.92	107.0	439.0	 1134	227.2	96.36	91.30	82.12	71.68	64.49	56.92	50.98	46.83	45.27	42.90	41.31	40.93	41.24	41.56	40.65	42.98	42.30	42.75	42.90	43.29	42.76	39.35	36.57	33.20	30.49	27.76	25.48	22.71	20.70	19.23	16.65	15.04	13.63	12.69	13.34	14.64	10.70	7.489	6.166	5.575	4.794	4.102	3.636	3.257	2.726	2.759	3.982	7.019	15.40	86.82	404.8	462.6	22.70	1.017	0.714	0.618	0.482	0.510	0.450	0.404	0.380	0.397	0.313	0.349	0.320	0.345	0.338
530.0	15.07	29.18	44.61	65.30	98.13	86.89	84.27	175.2	783.3	778.3	133.2	80.73	71.77	63.66	56.65	49.44	44.55	40.77	39.66	37.38	35.87	35.53	35.58	35.54	35.92	36.03	35.68	36.48	36.65	36.99	36.42	33.90	31.41	28.58	26.86	24.09	22.40	20.51	18.27	16.75	14.53	13.39	12.22	10.94	10.66	12.10	11.83	8.803	6.021	5.080	4.415	3.837	3.276	3.144	2.732	2.453	2.450	3.040	4.832	20.60	105.6	300.9	292.0	100.4	5.715	0.599	0.505	0.465	0.402	0.393	0.360	0.370	0.357	0.289	0.314	0.294	0.337
535.0	13.97	24.08	37.45	48.40	77.97	89.06	67.92	91.73	292.3	933.9	474.7	69.62	62.90	54.07	48.28	42.54	40.03	35.72	33.10	31.00	30.62	30.01	30.02	30.06	31.01	30.53	30.41	30.99	31.64	31.66	31.13	29.22	27.53	24.46	23.03	20.94	19.17	17.59	16.21	14.63	12.88	12.17	11.14	9.952	8.782	8.962	10.14	9.877	6.780	4.812	4.066	3.600	2.985	2.864	2.779	2.346	2.245	2.128	2.327	5.771	24.50	68.80	149.1	402.7	150.9	5.038	0.583	0.448	0.441	0.338	0.342	0.333	0.333	0.252	0.279	0.292	0.241
540.0	11.75	22.34	33.85	46.04	59.03	84.18	69.03	69.45	119.5	638.1	856.6	102.9	54.38	47.23	42.42	37.92	33.84	31.66	28.51	27.61	27.47	26.68	26.10	27.05	26.77	26.74	26.90	27.00	27.96	27.63	26.50	25.28	24.07	21.70	20.35	18.95	17.10	15.86	14.47	13.19	12.28	10.94	9.771	8.875	8.120	7.666	8.065	9.371	7.490	5.034	3.996	3.553	2.891	2.652	2.420	2.335	2.166	1.874	1.629	2.285	6.450	16.23	36.61	218.1	399.0	26.74	1.610	0.426	0.400	0.361	0.321	0.324	0.302	0.256	0.255	0.253	0.262
545.0	12.26	21.40	34.71	39.06	47.77	73.91	74.41	60.61	73.23	313.3	959.5	299.1	50.02	43.87	38.82	34.21	31.05	28.52	26.16	24.99	24.47	24.27	23.95	24.53	23.70	24.31	24.38	24.50	25.31	24.88	23.90	22.67	21.22	19.53	18.10	16.81	15.37	14.32	12.87	11.83	10.98	10.19	8.873	8.329	7.436	6.863	6.743	7.830	7.913	5.522	3.925	3.152	2.800	2.427	2.298	2.138	2.053	1.645	1.424	1.561	2.339	4.421	9.159	56.70	275.3	316.7	22.15	0.738	0.417	0.355	0.307	0.271	0.253	0.234	0.214	0.224	0.214
550.0	10.19	18.50	29.02	34.38	38.79	55.88	74.60	57.02	54.32	118.7	573.9	707.2	89.33	38.33	33.30	29.07	26.18	24.20	22.78	21.50	21.45	20.42	20.24	20.88	20.48	20.67	20.30	20.39	21.16	20.92	20.14	19.56	17.84	17.01	15.60	14.51	13.61	12.54	11.46	10.23	9.559	8.789	7.953	7.205	6.616	5.982	5.529	5.901	6.657	6.166	4.385	3.246	2.644	2.340	2.182	1.940	1.873	1.685	1.453	1.252	1.459	1.781	2.734	13.37	71.03	203.7	230.0	92.10	5.003	0.347	0.313	0.261	0.214	0.257	0.204	0.180	0.165
555.0	12.22	15.99	25.92	29.95	32.57	40.11	61.29	60.37	44.69	59.29	199.2	681.3	408.8	33.32	27.99	24.37	21.77	19.53	19.33	18.17	17.22	16.95	17.20	17.12	17.09	17.06	16.96	17.39	17.33	17.43	17.46	16.46	15.02	14.19	13.26	12.28	11.49	10.33	9.617	8.823	7.864	7.496	6.677	6.173	5.995	5.216	4.667	4.516	4.828	5.359	4.882	3.320	2.470	2.125	1.960	1.711	1.577	1.527	1.473	1.152	1.117	1.120	1.204	3.588	16.35	46.45	106.0	278.9	121.6	3.678	0.404	0.209	0.229	0.183	0.188	0.177	0.181
560.0	12.92	18.97	23.42	24.90	28.18	34.32	48.64	60.47	39.87	43.85	75.42	417.7	686.1	67.27	23.48	21.34	18.50	17.32	16.30	15.83	15.12	15.00	14.49	14.49	14.67	14.42	14.40	14.76	14.74	14.81	15.15	14.01	12.67	12.32	11.10	10.87	9.708	8.787	8.287	7.350	6.881	6.378	5.719	5.324	5.173	4.805	4.163	3.777	3.596	4.192	4.770	3.595	2.341	1.879	1.760	1.533	1.435	1.508	1.394	1.180	1.070	0.918	0.933	1.328	4.187	10.90	25.73	144.6	269.2	26.12	1.265	0.250	0.250	0.228	0.205	0.189	0.167
565.0	11.07	15.47	21.80	22.34	25.18	26.71	35.74	54.57	41.52	35.45	42.88	185.1	690.0	250.7	20.27	19.00	15.98	15.34	13.90	13.70	13.40	12.52	12.42	12.31	12.27	12.59	12.76	12.79	12.45	12.37	12.90	11.72	11.13	10.54	9.312	9.229	8.072	7.559	7.002	6.392	5.837	5.656	5.177	4.524	4.413	4.286	3.633	3.587	3.049	3.158	3.872	3.770	2.448	1.711	1.500	1.401	1.284	1.263	1.230	1.196	1.012	0.848	0.824	0.886	1.492	2.965	6.305	36.99	174.5	202.7	20.51	0.534	0.202	0.223	0.197	0.168	0.133
570.0	10.01	15.58	18.74	19.65	20.45	22.37	24.75	40.50	44.48	31.28	31.05	64.90	367.1	541.4	61.04	14.91	13.37	12.23	11.07	10.62	10.15	10.06	9.850	9.774	9.796	9.867	10.05	9.964	9.745	9.978	10.03	9.392	8.814	8.153	7.477	7.087	6.787	6.183	5.708	5.250	4.818	4.611	4.181	3.873	3.644	3.282	2.990	2.778	2.485	2.215	2.543	3.044	2.805	1.909	1.315	1.290	1.108	1.058	0.991	0.986	0.987	0.825	0.747	0.676	0.867	1.096	1.913	8.739	44.42	124.0	154.9	58.48	2.969	0.217	0.169	0.153	0.113
575.0	8.885	14.83	16.41	16.56	16.60	16.26	18.09	26.80	41.73	31.76	24.87	31.45	117.3	447.9	340.8	13.25	10.73	9.667	8.372	8.069	7.700	7.528	8.011	7.406	7.264	7.595	7.796	7.866	7.484	7.584	7.681	7.186	6.519	6.387	5.902	5.472	5.056	4.741	4.444	4.106	3.803	3.584	3.127	3.078	2.732	2.546	2.552	2.161	1.948	1.814	1.664	1.975	2.359	2.055	1.283	1.110	0.958	0.863	0.822	0.846	0.879	0.795	0.739	0.653	0.605	0.673	0.958	2.444	10.36	28.35	63.50	154.2	27.33	2.014	0.191	0.107	0.102
580.0	9.138	11.62	13.75	12.83	14.28	13.07	15.46	20.57	34.65	37.11	23.70	22.43	41.39	247.2	520.8	51.88	8.393	7.645	7.437	6.877	6.269	6.376	6.400	6.234	5.893	6.151	6.299	6.192	5.971	6.238	6.305	6.017	5.274	5.236	4.750	4.438	4.088	3.891	3.602	3.421	3.115	2.872	2.617	2.397	2.229	2.033	1.925	1.845	1.726	1.514	1.356	1.379	1.819	1.960	1.472	1.005	0.866	0.735	0.786	0.735	0.668	0.709	0.734	0.631	0.612	0.641	0.647	0.982	2.777	6.688	15.23	77.26	133.7	23.44	0.627	0.119	0.091
585.0	6.825	11.44	14.37	12.37	11.73	12.71	13.41	15.45	26.29	38.72	24.08	19.51	23.13	102.0	472.8	213.2	7.503	6.228	6.358	5.664	5.455	5.538	5.342	5.167	5.073	5.107	4.992	5.257	5.063	5.058	5.217	5.061	4.524	4.209	3.901	3.718	3.442	3.348	3.181	2.858	2.616	2.495	2.234	2.038	1.914	1.767	1.619	1.567	1.419	1.208	1.147	1.101	1.281	1.662	1.547	1.045	0.740	0.698	0.680	0.606	0.598	0.574	0.682	0.677	0.590	0.555	0.545	0.570	1.042	1.874	3.814	19.72	88.85	109.8	16.25	0.262	0.123
590.0	6.734	11.22	14.38	9.945	10.24	10.68	11.91	13.07	17.51	33.55	29.86	18.57	17.33	34.36	224.6	404.5	42.40	5.439	4.796	4.416	4.631	4.462	4.254	4.177	4.073	3.923	3.970	4.180	4.226	3.989	4.175	4.140	3.425	3.363	3.092	2.973	2.731	2.680	2.424	2.195	2.207	2.103	2.017	1.655	1.628	1.379	1.287	1.238	1.136	0.978	0.904	0.842	0.862	1.061	1.438	1.257	0.763	0.625	0.583	0.535	0.555	0.506	0.570	0.652	0.551	0.529	0.480	0.497	0.639	0.748	1.169	4.679	22.44	63.94	80.91	18.32	1.691
595.0	6.505	10.64	12.56	7.576	9.453	10.10	9.664	11.28	13.47	23.91	33.48	20.64	15.27	16.98	65.45	294.8	262.8	6.594	3.731	3.547	3.514	3.170	3.405	3.255	3.256	3.172	3.057	3.213	3.374	3.259	3.178	3.110	2.980	2.584	2.566	2.269	2.273	2.195	2.115	1.844	1.901	1.874	1.677	1.354	1.304	1.054	1.024	0.962	0.902	0.805	0.755	0.720	0.631	0.688	0.935	1.173	0.901	0.620	0.477	0.459	0.504	0.421	0.459	0.463	0.521	0.528	0.407	0.387	0.398	0.479	0.464	1.271	5.244	14.63	32.22	78.58	26.07
600.0	5.779	9.522	11.55	7.588	8.790	8.142	9.111	10.75	11.23	17.98	30.75	24.39	15.43	13.16	21.99	144.8	392.0	38.79	3.253	3.387	3.061	2.581	2.881	2.831	2.697	2.418	2.561	2.863	2.760	2.748	2.666	2.651	2.552	2.272	2.134	2.024	2.008	1.816	1.681	1.623	1.568	1.579	1.449	1.201	1.121	0.914	0.871	0.830	0.815	0.652	0.691	0.573	0.572	0.489	0.591	0.977	0.958	0.613	0.482	0.471	0.448	0.383	0.377	0.368	0.429	0.435	0.438	0.370	0.432	0.391	0.351	0.569	1.407	3.473	7.746	39.18	74.71
605.0	7.059	9.372	10.29	8.140	7.075	8.215	8.418	9.060	10.84	14.99	27.71	28.72	15.22	11.83	11.32	53.83	327.8	167.5	3.139	2.897	2.679	2.456	2.268	2.215	2.329	2.349	2.287	2.572	2.291	2.281	2.358	2.328	2.138	2.041	1.936	1.849	1.660	1.565	1.493	1.357	1.242	1.326	1.147	1.120	0.844	0.867	0.698	0.645	0.682	0.603	0.588	0.498	0.547	0.444	0.386	0.662	0.870	0.771	0.501	0.375	0.389	0.337	0.315	0.313	0.372	0.478	0.442	0.410	0.401	0.394	0.360	0.400	0.550	0.954	1.870	9.986	47.12
610.0	4.611	8.305	8.735	7.706	6.166	7.252	7.917	8.787	10.89	13.48	21.18	29.56	18.75	11.27	8.936	17.11	141.3	305.9	34.98	2.473	2.106	2.115	2.078	2.015	1.784	1.807	1.862	1.981	1.872	1.782	1.936	1.813	1.804	1.788	1.590	1.569	1.401	1.295	1.184	1.104	1.036	0.957	0.920	0.782	0.746	0.717	0.602	0.580	0.532	0.467	0.468	0.411	0.402	0.398	0.347	0.459	0.620	0.697	0.629	0.405	0.315	0.305	0.319	0.332	0.341	0.437	0.414	0.513	0.413	0.376	0.339	0.342	0.337	0.374	0.632	2.381	11.93
615.0	2.109	8.264	8.450	7.402	5.568	5.354	7.088	8.416	9.927	11.85	16.29	24.89	24.02	12.60	8.072	7.978	38.50	203.5	216.5	4.399	1.971	1.868	1.814	1.682	1.501	1.531	1.520	1.518	1.614	1.523	1.611	1.423	1.364	1.514	1.222	1.327	1.217	0.952	0.986	0.923	0.752	0.773	0.715	0.620	0.587	0.579	0.463	0.482	0.447	0.428	0.366	0.347	0.343	0.301	0.323	0.352	0.400	0.578	0.591	0.445	0.288	0.319	0.279	0.307	0.278	0.363	0.352	0.392	0.440	0.389	0.366	0.323	0.295	0.286	0.327	0.691	2.808
620.0	5.037	8.613	9.526	6.375	4.538	5.736	6.518	8.063	9.057	11.86	14.45	19.37	26.42	13.66	8.326	5.851	11.84	91.29	300.7	35.98	1.843	1.614	1.393	1.370	1.473	1.396	1.353	1.342	1.365	1.366	1.354	1.233	1.301	1.101	0.997	1.097	1.047	0.912	0.826	0.759	0.641	0.609	0.563	0.596	0.410	0.478	0.404	0.425	0.375	0.324	0.350	0.310	0.303	0.275	0.292	0.271	0.322	0.427	0.496	0.438	0.315	0.252	0.295	0.303	0.314	0.325	0.296	0.309	0.417	0.431	0.387	0.342	0.352	0.279	0.255	0.366	0.821
625.0	4.791	6.867	8.884	6.577	5.051	5.280	6.062	7.649	10.30	11.10	13.65	17.02	23.83	16.52	8.544	5.500	5.261	31.23	238.0	149.2	2.066	1.431	1.304	1.217	1.133	1.291	1.008	1.104	1.116	1.117	1.097	1.096	0.971	0.874	0.864	0.894	0.846	0.669	0.713	0.693	0.530	0.634	0.525	0.498	0.445	0.487	0.365	0.390	0.341	0.271	0.258	0.268	0.199	0.265	0.224	0.190	0.241	0.311	0.293	0.389	0.379	0.288	0.265	0.267	0.250	0.310	0.285	0.295	0.362	0.401	0.376	0.344	0.323	0.318	0.211	0.258	0.410
630.0	3.062	6.306	7.482	6.085	5.546	4.430	6.046	7.997	9.745	10.79	14.20	15.44	19.77	20.59	9.954	5.437	3.768	9.374	94.50	243.4	30.62	1.382	1.146	1.119	1.045	1.097	0.975	0.952	0.960	0.912	0.799	0.840	0.809	0.709	0.831	0.795	0.742	0.612	0.567	0.645	0.542	0.465	0.445	0.431	0.385	0.352	0.340	0.292	0.291	0.253	0.223	0.218	0.200	0.198	0.193	0.193	0.185	0.203	0.257	0.324	0.370	0.318	0.242	0.285	0.246	0.272	0.267	0.320	0.281	0.315	0.440	0.322	0.262	0.279	0.246	0.239	0.287
635.0	3.360	6.250	7.611	6.036	4.368	4.909	5.737	7.455	8.594	11.16	13.41	14.80	15.09	19.89	12.08	5.672	3.793	3.916	24.28	145.4	182.3	3.517	1.119	1.041	0.923	0.886	0.807	0.765	0.813	0.749	0.687	0.732	0.639	0.582	0.638	0.655	0.613	0.619	0.590	0.562	0.485	0.430	0.446	0.294	0.300	0.329	0.230	0.286	0.298	0.237	0.178	0.185	0.192	0.184	0.156	0.153	0.176	0.175	0.185	0.217	0.272	0.302	0.202	0.236	0.216	0.219	0.224	0.310	0.279	0.256	0.359	0.342	0.286	0.284	0.209	0.250	0.259
640.0	3.937	6.982	8.640	5.251	4.760	4.695	5.879	7.075	9.117	10.97	13.87	13.99	14.80	16.54	15.04	6.390	3.493	2.924	6.903	58.93	240.5	31.89	0.988	0.897	0.874	0.756	0.705	0.617	0.626	0.691	0.643	0.694	0.507	0.589	0.576	0.581	0.511	0.518	0.416	0.428	0.400	0.378	0.402	0.293	0.263	0.312	0.254	0.249	0.234	0.197	0.176	0.166	0.179	0.151	0.154	0.150	0.163	0.140	0.194	0.186	0.263	0.241	0.258	0.257	0.225	0.201	0.242	0.214	0.225	0.246	0.272	0.305	0.282	0.283	0.246	0.249	0.239
645.0	3.249	6.458	7.400	6.150	4.498	4.422	5.506	6.862	8.502	11.15	13.18	13.47	14.03	13.84	16.90	7.490	3.865	3.051	2.824	19.33	178.9	125.6	1.258	0.803	0.861	0.679	0.628	0.676	0.624	0.613	0.584	0.539	0.559	0.526	0.492	0.515	0.471	0.455	0.459	0.341	0.366	0.331	0.296	0.243	0.199	0.262	0.205	0.196	0.169	0.174	0.168	0.147	0.146	0.149	0.120	0.138	0.177	0.143	0.139	0.138	0.198	0.204	0.208	0.200	0.207	0.196	0.272	0.271	0.239	0.272	0.259	0.306	0.274	0.292	0.258	0.217	0.272
650.0	4.125	5.238	8.041	6.006	4.869	3.664	5.107	6.673	8.159	10.87	12.16	13.92	14.32	12.50	15.63	9.303	4.149	3.070	1.969	5.935	82.97	206.7	11.54	0.782	0.723	0.569	0.681	0.583	0.551	0.531	0.582	0.520	0.510	0.481	0.414	0.426	0.405	0.415	0.353	0.322	0.321	0.301	0.254	0.239	0.213	0.229	0.188	0.213	0.155	0.166	0.129	0.129	0.143	0.115	0.113	0.124	0.100	0.105	0.128	0.156	0.161	0.195	0.186	0.229	0.191	0.228	0.188	0.195	0.227	0.240	0.279	0.280	0.253	0.322	0.234	0.189	0.249
