Sample:	'1
File name:	Default_20230821_112554.FD3
Run date:	'11:19:33, 08/21/2023
Operator:	dsjg
Comment:	'

Instrument
Model:	F-2700 FL Spectrophotometer
Serial number:	2198-001
ROM Version:	4J14000 07

Instrument parameters
Measurement type:	3-D scan
Data mode:	Fluorescence
EX  Start WL:	220.0 nm
EX  End WL:	600.0 nm
EX Sampling interval:	5.0 nm
EM  Start WL:	230.0 nm
EM  End WL:	650.0 nm
EM Sampling interval:	5.0 nm
Scan speed:	12000 nm/min
EX Slit:	5.0 nm
EM Slit:	5.0 nm
PMT Voltage:	700 V
Response:	Auto 
Corrected spectra:	Off
Contour interval:	50.000

Peak integration
Integration method:	Rectangular
Sensitivity:	1
Threshold:	1.000

Peaks
No.	ApexEX/EM(nm)	Height(Data)
1	225.0/345.0	364.2
2	225.0/585.0	21.88
3	225.0/625.0	11.40
4	230.0/355.0	383.9
5	255.0/280.0	182.5
6	255.0/420.0	560.9
7	260.0/425.0	573.5
8	265.0/435.0	570.7
9	265.0/585.0	51.88
10	270.0/300.0	359.5
11	270.0/595.0	41.54
12	275.0/305.0	393.6
13	275.0/605.0	33.99
14	280.0/310.0	357.0
15	285.0/320.0	353.0
16	285.0/630.0	18.87
17	290.0/325.0	326.4
18	300.0/335.0	265.2
19	305.0/345.0	262.9
20	310.0/350.0	248.2
21	315.0/355.0	266.3

Data points
	220.0	225.0	230.0	235.0	240.0	245.0	250.0	255.0	260.0	265.0	270.0	275.0	280.0	285.0	290.0	295.0	300.0	305.0	310.0	315.0	320.0	325.0	330.0	335.0	340.0	345.0	350.0	355.0	360.0	365.0	370.0	375.0	380.0	385.0	390.0	395.0	400.0	405.0	410.0	415.0	420.0	425.0	430.0	435.0	440.0	445.0	450.0	455.0	460.0	465.0	470.0	475.0	480.0	485.0	490.0	495.0	500.0	505.0	510.0	515.0	520.0	525.0	530.0	535.0	540.0	545.0	550.0	555.0	560.0	565.0	570.0	575.0	580.0	585.0	590.0	595.0	600.0
230.0	183.7	 1395	 1588	295.5	5.822	1.953	2.455	1.771	1.360	1.125	1.125	1.120	1.131	0.829	0.818	0.621	0.662	0.693	0.609	0.567	0.556	0.544	0.476	0.540	0.468	0.446	0.459	0.453	0.420	0.429	0.375	0.365	0.360	0.367	0.417	0.536	0.518	0.524	0.469	0.425	0.436	0.452	0.476	0.451	0.381	0.355	0.623	2.394	5.242	4.787	2.235	0.544	0.252	0.256	0.233	0.211	0.210	0.200	0.171	0.174	0.172	0.153	0.130	0.119	0.149	0.131	0.129	0.119	0.106	0.079	0.091	0.074	0.060	0.044	0.055	0.039	0.045
235.0	66.37	433.2	 1246	 1471	346.0	8.389	2.333	2.397	1.420	1.254	1.706	1.628	1.737	1.119	0.561	0.586	0.740	0.621	0.643	0.464	0.484	0.607	0.646	0.630	0.489	0.479	0.565	0.469	0.328	0.499	0.348	0.414	0.432	0.334	0.378	0.447	0.404	0.509	0.623	0.478	0.447	0.382	0.443	0.463	0.537	0.413	0.410	0.790	1.895	3.049	5.028	5.898	3.125	0.816	0.312	0.269	0.265	0.255	0.118	0.160	0.137	0.168	0.118	0.143	0.133	0.169	0.120	0.112	0.112	0.105	0.065	0.085	0.050	0.045	0.040	0.029	0.080
240.0	73.36	121.2	452.3	 1575	 1510	244.5	4.095	3.845	1.650	1.974	1.268	1.371	1.542	1.299	0.700	0.885	0.925	0.759	0.643	0.600	0.604	0.504	0.657	0.639	0.357	0.445	0.485	0.471	0.495	0.373	0.341	0.398	0.398	0.313	0.299	0.390	0.430	0.556	0.578	0.489	0.437	0.416	0.526	0.382	0.569	0.515	0.365	0.454	0.681	1.019	2.279	5.791	8.071	6.171	2.093	0.403	0.201	0.263	0.237	0.208	0.161	0.135	0.157	0.121	0.114	0.163	0.192	0.124	0.106	0.087	0.113	0.062	0.084	0.080	0.037	0.055	0.077
245.0	68.82	92.80	117.6	681.6	 2011	 1386	139.6	5.267	2.141	2.046	1.723	1.538	1.942	1.116	0.815	1.064	0.774	0.642	0.714	0.666	0.623	0.529	0.523	0.630	0.426	0.492	0.486	0.456	0.485	0.492	0.431	0.444	0.412	0.405	0.297	0.397	0.377	0.431	0.498	0.500	0.462	0.479	0.458	0.416	0.453	0.497	0.624	0.616	0.454	0.464	0.775	2.003	4.710	8.319	8.747	5.099	1.551	0.273	0.226	0.208	0.181	0.166	0.148	0.122	0.180	0.168	0.111	0.102	0.127	0.074	0.070	0.075	0.046	0.036	0.039	0.103	0.064
250.0	36.99	87.29	100.0	184.1	784.7	 1863	 1453	241.2	20.68	2.823	2.220	2.048	2.070	1.399	1.175	0.902	0.825	0.702	0.735	0.686	0.607	0.616	0.606	0.558	0.542	0.479	0.540	0.447	0.393	0.531	0.463	0.470	0.431	0.423	0.340	0.412	0.343	0.426	0.412	0.417	0.501	0.481	0.462	0.371	0.443	0.420	0.481	0.611	0.637	0.619	0.583	0.717	1.314	2.771	4.889	7.525	9.209	8.378	4.646	1.495	0.285	0.170	0.178	0.113	0.179	0.173	0.118	0.133	0.117	0.100	0.050	0.089	0.067	0.065	0.058	0.052	0.064
255.0	19.23	31.34	96.74	135.0	197.3	556.0	 1785	 2611	331.4	19.35	3.480	3.515	2.255	1.877	1.487	1.188	1.110	0.737	0.672	0.849	0.737	0.697	0.669	0.522	0.594	0.623	0.559	0.568	0.515	0.413	0.433	0.469	0.424	0.449	0.483	0.417	0.331	0.367	0.376	0.346	0.510	0.489	0.482	0.484	0.389	0.445	0.454	0.353	0.430	0.570	0.794	0.778	0.718	0.787	1.274	1.941	3.376	7.727	12.71	13.57	7.276	1.713	0.302	0.215	0.111	0.149	0.099	0.137	0.112	0.088	0.089	0.082	0.055	0.051	0.036	0.044	0.103
260.0	18.72	12.43	51.13	136.2	115.4	138.7	668.3	 2636	 2562	268.1	9.624	3.998	2.346	2.116	1.560	1.295	1.341	0.932	0.996	0.964	0.635	0.658	0.650	0.600	0.655	0.616	0.687	0.519	0.554	0.450	0.511	0.413	0.469	0.399	0.564	0.389	0.370	0.355	0.316	0.326	0.402	0.559	0.487	0.482	0.502	0.399	0.394	0.379	0.331	0.488	0.528	0.849	0.833	0.604	0.509	0.722	0.963	2.238	5.593	12.38	17.27	13.59	5.702	0.700	0.241	0.129	0.120	0.113	0.135	0.117	0.136	0.061	0.059	0.048	0.054	0.025	0.066
265.0	18.32	6.588	18.16	79.09	144.1	80.86	168.1	 1097	 3279	 2291	202.1	6.193	3.407	2.791	1.687	1.529	1.491	1.056	1.262	0.906	0.822	0.803	0.723	0.793	0.668	0.645	0.684	0.464	0.534	0.433	0.493	0.457	0.421	0.432	0.506	0.431	0.447	0.281	0.354	0.306	0.331	0.508	0.585	0.452	0.441	0.439	0.423	0.428	0.408	0.379	0.373	0.529	0.748	0.940	0.716	0.444	0.515	0.704	1.462	3.965	9.549	17.15	19.55	11.37	3.117	0.250	0.125	0.202	0.100	0.082	0.085	0.058	0.103	0.065	0.069	0.055	0.053
270.0	19.99	9.932	8.882	26.24	86.56	136.6	107.0	273.0	 1196	 2858	 3012	884.2	45.66	4.382	2.512	2.084	1.527	1.254	1.224	0.797	0.932	0.773	0.775	0.842	0.625	0.687	0.585	0.578	0.577	0.618	0.556	0.483	0.415	0.528	0.472	0.403	0.410	0.310	0.322	0.319	0.297	0.405	0.438	0.519	0.457	0.488	0.481	0.391	0.408	0.377	0.385	0.356	0.384	0.598	0.769	0.879	0.825	0.582	0.579	1.057	2.447	5.248	9.783	14.46	17.52	15.39	9.345	2.636	0.267	0.138	0.125	0.113	0.088	0.075	0.072	0.060	0.052
275.0	34.82	17.31	12.39	13.41	27.21	85.80	164.9	139.6	282.8	790.1	 2566	 4436	 1284	41.80	3.663	2.523	2.340	1.848	1.550	1.135	1.152	0.956	0.865	0.761	0.759	0.663	0.745	0.503	0.698	0.556	0.543	0.533	0.478	0.452	0.415	0.471	0.419	0.393	0.444	0.375	0.354	0.376	0.441	0.401	0.549	0.546	0.453	0.512	0.441	0.412	0.362	0.402	0.294	0.411	0.450	0.519	0.805	1.287	0.942	0.678	0.778	1.378	2.405	3.560	5.892	12.03	21.37	23.26	12.58	2.466	0.181	0.146	0.059	0.108	0.090	0.053	0.103
280.0	45.75	26.32	16.22	12.26	14.34	36.80	127.6	182.5	120.4	203.0	851.3	 3435	 4747	934.1	14.03	3.641	2.483	2.408	1.735	1.501	1.198	1.002	0.965	1.004	0.707	0.650	0.647	0.597	0.608	0.568	0.636	0.494	0.489	0.565	0.444	0.464	0.515	0.461	0.460	0.336	0.351	0.385	0.349	0.328	0.521	0.555	0.511	0.535	0.529	0.412	0.351	0.383	0.361	0.332	0.333	0.352	0.468	0.869	1.100	1.230	0.832	0.624	0.741	1.087	1.536	3.306	8.502	18.13	26.11	21.98	7.933	0.633	0.098	0.091	0.089	0.066	0.097
285.0	47.42	37.87	23.91	15.60	13.01	21.64	63.67	173.9	174.3	94.20	233.2	 1246	 4212	 4429	140.7	6.619	3.826	2.972	2.254	1.515	1.363	1.352	0.986	0.946	0.900	0.667	0.615	0.667	0.578	0.696	0.652	0.459	0.522	0.551	0.498	0.538	0.519	0.480	0.527	0.409	0.375	0.419	0.340	0.371	0.434	0.579	0.641	0.577	0.510	0.524	0.391	0.413	0.324	0.349	0.340	0.375	0.330	0.495	0.703	1.100	1.269	0.998	0.588	0.546	0.572	1.046	2.219	5.547	12.88	23.76	28.31	16.53	3.276	0.185	0.143	0.107	0.096
290.0	72.86	67.90	51.84	34.44	25.45	28.54	42.23	96.68	196.3	202.3	148.4	358.6	 1393	 3378	 3749	 1446	34.32	3.931	2.908	2.149	1.791	1.410	1.171	1.058	0.915	0.876	0.802	0.847	0.621	0.745	0.637	0.671	0.484	0.498	0.588	0.565	0.582	0.528	0.527	0.474	0.457	0.407	0.400	0.442	0.541	0.584	0.681	0.662	0.682	0.559	0.451	0.476	0.415	0.408	0.432	0.386	0.424	0.440	0.446	0.567	0.897	1.134	1.280	1.125	0.696	0.663	0.920	1.587	3.403	6.975	12.72	19.22	22.56	18.87	10.01	2.173	0.156
295.0	98.17	96.87	76.29	51.06	42.77	39.80	52.75	72.41	128.4	247.5	282.1	205.4	405.5	902.8	 2272	 4910	867.5	34.60	4.027	3.156	2.278	2.036	1.726	1.309	1.189	0.994	0.872	0.958	0.736	0.728	0.620	0.839	0.618	0.537	0.703	0.649	0.622	0.601	0.561	0.480	0.452	0.491	0.530	0.504	0.501	0.616	0.650	0.616	0.671	0.609	0.597	0.514	0.494	0.492	0.446	0.449	0.472	0.444	0.437	0.504	0.663	0.692	0.909	1.369	1.758	1.173	0.884	0.917	1.272	2.047	3.282	4.813	7.548	14.35	26.19	29.55	13.60
300.0	108.4	120.7	99.12	68.90	54.76	53.22	59.72	76.93	107.5	207.4	359.5	261.3	208.8	282.3	727.7	 3170	 5139	666.0	12.12	4.011	2.838	2.231	1.800	1.584	1.262	1.112	0.893	0.856	0.920	0.889	0.716	0.789	0.672	0.565	0.706	0.609	0.702	0.617	0.614	0.516	0.501	0.473	0.554	0.684	0.544	0.651	0.572	0.685	0.783	0.726	0.654	0.655	0.673	0.563	0.498	0.436	0.499	0.512	0.495	0.616	0.599	0.631	0.794	1.024	1.557	1.711	1.579	1.114	0.871	1.089	1.287	1.465	2.075	4.100	10.25	23.92	34.98
305.0	118.8	129.7	110.6	77.99	65.39	63.89	75.35	87.80	108.7	167.9	307.5	393.6	224.1	161.9	226.0	 1056	 4026	 4898	92.30	6.187	3.576	2.585	2.222	1.790	1.418	1.317	1.223	0.944	0.921	0.862	0.741	0.840	0.885	0.730	0.652	0.625	0.613	0.671	0.648	0.536	0.537	0.556	0.457	0.604	0.584	0.636	0.557	0.628	0.784	0.706	0.680	0.702	0.614	0.628	0.613	0.576	0.592	0.552	0.698	0.629	0.642	0.644	0.855	0.869	1.069	1.478	1.985	1.764	1.211	0.954	0.839	0.831	0.924	1.275	2.708	7.275	17.86
310.0	134.8	139.4	127.9	90.85	75.20	76.06	87.13	97.29	124.0	168.7	236.1	343.2	357.0	185.4	127.0	283.5	 1210	 3488	 4250	 1466	25.22	3.862	2.627	2.063	1.704	1.557	1.350	1.112	1.053	0.984	0.964	0.850	0.797	0.687	0.727	0.732	0.714	0.713	0.661	0.599	0.538	0.561	0.574	0.553	0.634	0.704	0.665	0.778	0.734	0.611	0.679	0.665	0.672	0.665	0.651	0.593	0.725	0.595	0.702	0.690	0.658	0.696	0.891	0.921	1.041	1.070	1.405	1.688	2.055	1.720	1.218	0.736	0.762	0.615	0.921	1.847	4.433
315.0	149.3	159.2	133.7	103.6	81.82	87.24	96.22	112.5	138.6	172.4	217.6	264.7	330.1	338.8	152.3	120.3	306.9	866.3	 2301	 5250	622.6	26.01	4.041	3.142	1.959	1.753	1.503	1.282	1.163	1.212	1.048	0.786	0.667	0.755	0.770	0.705	0.756	0.709	0.815	0.725	0.559	0.611	0.647	0.669	0.773	0.754	0.748	0.795	0.749	0.647	0.680	0.647	0.727	0.718	0.645	0.670	0.695	0.677	0.699	0.785	0.764	0.801	0.865	0.942	1.154	1.080	1.270	1.326	1.482	1.707	1.912	1.569	1.044	0.548	0.581	0.735	1.236
320.0	164.5	189.1	150.6	112.0	91.05	96.13	102.7	123.1	149.8	181.7	224.2	252.5	279.7	353.0	260.2	107.0	118.3	227.5	665.3	 3221	 4947	500.5	11.16	4.183	2.361	1.979	1.888	1.535	1.217	1.292	0.993	0.938	0.796	0.778	0.808	0.827	0.795	0.782	0.737	0.716	0.532	0.581	0.653	0.725	0.705	0.744	0.872	0.865	0.872	0.745	0.646	0.717	0.710	0.701	0.711	0.782	0.718	0.753	0.747	0.731	0.912	0.883	0.795	0.988	1.150	1.138	1.298	1.251	1.253	1.356	1.627	1.816	1.713	0.939	0.611	0.494	0.574
325.0	186.7	225.2	204.6	136.0	100.7	104.8	111.3	132.6	164.6	199.7	240.6	268.6	270.1	289.7	326.4	150.3	89.91	94.13	180.7	977.2	 4040	 4408	72.45	6.367	3.420	2.262	2.025	1.649	1.592	1.149	1.209	1.029	0.896	0.843	0.818	0.842	0.778	0.691	0.687	0.575	0.671	0.648	0.644	0.702	0.766	0.898	0.970	1.223	0.968	0.805	0.759	0.799	0.644	0.792	0.865	0.800	0.834	0.821	0.942	0.864	0.930	1.008	1.001	1.110	1.330	1.192	1.356	1.307	1.334	1.371	1.188	1.366	1.694	1.562	1.053	0.679	0.518
330.0	222.9	280.7	257.5	175.8	137.4	124.1	131.9	148.6	178.0	220.0	257.6	282.4	284.4	265.9	271.4	258.5	159.2	85.70	86.96	254.0	 1164	 3428	 4123	 1413	22.83	3.671	2.585	2.122	1.765	1.445	1.397	1.155	0.887	1.007	0.883	0.916	0.808	0.769	0.760	0.677	0.673	0.737	0.663	0.791	0.850	1.014	1.032	1.235	1.163	1.014	0.922	0.852	0.777	0.821	0.818	0.859	0.890	0.970	0.946	1.007	0.965	1.123	1.076	1.171	1.325	1.364	1.353	1.446	1.479	1.510	1.235	1.296	1.242	1.326	1.476	1.286	1.027
335.0	261.9	310.5	305.7	212.8	169.2	152.3	155.4	173.3	200.5	242.8	277.8	307.7	304.8	279.6	242.8	230.8	265.2	118.9	85.50	103.9	293.9	835.2	 2303	 5468	508.4	25.76	4.078	2.764	2.067	1.939	1.630	1.371	0.964	1.179	0.959	0.909	0.897	0.942	0.857	0.817	0.727	0.781	0.885	0.824	0.810	1.211	1.167	1.320	1.335	1.239	1.014	1.135	0.936	0.951	0.748	0.917	0.999	0.996	0.983	1.050	1.136	1.205	1.157	1.218	1.306	1.411	1.380	1.505	1.608	1.294	1.376	1.379	1.367	1.261	1.151	1.247	1.622
340.0	276.9	351.7	334.2	247.4	191.7	170.8	174.6	192.4	212.5	253.9	288.1	315.5	317.1	296.9	250.6	216.5	250.6	230.4	107.0	86.15	111.5	221.5	639.9	 3407	 5361	432.8	12.03	3.493	2.853	2.160	1.728	1.454	1.306	1.235	1.174	0.915	0.817	1.023	0.729	0.731	0.685	0.767	0.787	0.838	0.948	1.073	1.184	1.345	1.441	1.285	1.099	1.160	1.082	1.064	0.812	1.041	0.993	1.149	1.087	1.161	1.414	1.265	1.328	1.323	1.332	1.451	1.501	1.675	1.453	1.466	1.494	1.434	1.436	1.194	1.044	1.114	1.348
345.0	265.6	364.2	355.4	278.2	217.7	197.4	198.6	207.5	231.1	262.7	297.2	332.1	324.7	307.5	262.3	223.0	215.7	262.9	191.5	99.34	86.14	96.21	179.6	 1009	 4463	 3770	61.44	6.428	3.631	2.792	2.070	1.465	1.495	1.369	1.264	0.968	0.857	0.856	0.866	0.849	0.756	0.839	0.759	0.963	0.893	1.119	1.302	1.499	1.465	1.225	1.223	1.281	1.128	1.086	1.009	1.013	1.029	1.204	1.237	1.194	1.309	1.260	1.442	1.345	1.436	1.462	1.463	1.608	1.389	1.486	1.487	1.434	1.293	1.348	1.251	1.085	1.160
350.0	274.3	353.6	376.2	306.1	260.4	236.8	232.0	232.6	252.0	282.3	309.3	338.8	338.7	324.4	289.4	245.9	216.7	225.9	248.2	189.4	115.6	93.68	97.19	270.0	 1264	 3273	 3884	 1311	21.79	3.589	2.680	1.964	1.543	1.326	1.274	1.080	0.948	0.922	0.859	0.808	0.780	0.818	0.894	0.850	0.987	1.146	1.286	1.563	1.501	1.339	1.241	1.398	1.264	1.227	1.161	1.142	1.172	1.202	1.307	1.313	1.329	1.385	1.353	1.411	1.585	1.559	1.704	1.537	1.594	1.502	1.529	1.527	1.500	1.470	1.204	1.230	1.190
355.0	273.7	334.2	383.9	332.5	307.8	278.2	269.3	268.8	283.4	313.4	330.0	352.4	354.1	341.5	315.6	274.3	245.7	228.9	231.3	266.3	202.3	130.4	108.9	124.6	331.4	800.4	 2191	 5220	 1891	26.39	3.918	2.947	1.915	1.559	1.480	1.331	1.160	1.041	1.028	0.965	0.879	0.867	0.848	0.883	1.034	1.163	1.270	1.387	1.520	1.367	1.270	1.427	1.452	1.240	1.237	1.260	1.472	1.425	1.352	1.453	1.550	1.551	1.492	1.562	1.713	1.527	1.580	1.566	1.608	1.667	1.690	1.606	1.659	1.554	1.385	1.330	1.466
360.0	282.1	354.7	374.7	357.3	331.9	314.3	301.0	297.7	312.5	339.6	354.5	365.0	369.1	362.3	333.4	299.5	270.3	251.5	240.3	260.7	276.5	182.3	134.1	116.6	140.5	226.3	602.7	 3268	 5477	411.8	14.26	3.688	2.536	1.891	1.876	1.324	1.303	1.057	1.010	0.882	0.933	0.791	0.895	0.948	0.992	1.187	1.219	1.347	1.570	1.373	1.235	1.625	1.509	1.512	1.347	1.481	1.501	1.614	1.549	1.386	1.669	1.616	1.624	1.698	1.661	1.694	1.625	1.708	1.773	1.689	1.592	1.656	1.686	1.662	1.505	1.452	1.516
365.0	281.4	346.2	375.8	372.8	346.3	346.0	332.4	329.4	339.7	358.7	376.5	379.6	388.2	374.7	351.1	320.1	293.6	276.5	261.9	257.1	291.1	257.9	169.7	133.9	116.1	109.9	180.6	958.2	 4411	 3557	322.1	6.588	3.304	2.303	1.887	1.393	1.322	1.027	1.078	1.113	0.957	0.985	0.919	0.929	1.128	1.192	1.264	1.432	1.623	1.428	1.325	1.651	1.571	1.581	1.405	1.692	1.652	1.673	1.633	1.502	1.671	1.685	1.758	1.826	1.910	1.774	1.787	1.853	1.827	1.895	1.708	1.759	1.701	1.717	1.633	1.587	1.751
370.0	280.9	362.0	387.0	402.0	388.4	377.7	373.3	365.0	374.1	388.0	403.5	400.7	407.0	391.5	372.3	346.3	329.0	313.0	298.3	283.7	284.0	299.4	260.1	182.6	141.8	113.5	108.0	261.1	 1247	 3325	 4094	 1233	19.12	3.216	2.494	1.787	1.471	1.245	1.137	1.055	0.987	0.928	1.001	0.946	1.174	1.195	1.242	1.449	1.532	1.454	1.389	1.779	1.672	1.750	1.619	1.803	1.791	1.823	1.820	1.669	1.785	1.839	1.980	2.097	1.948	1.952	1.900	1.931	1.880	1.893	1.797	1.805	1.826	1.892	1.756	1.730	1.788
375.0	289.5	365.9	396.9	413.3	419.4	419.2	410.5	402.1	411.8	427.6	431.4	428.4	425.2	412.5	390.7	376.1	360.7	349.7	337.3	323.0	308.5	301.9	316.9	271.9	187.4	143.6	116.8	125.9	324.4	805.3	 2388	 5211	 1774	22.95	3.620	2.466	1.699	1.479	1.392	1.276	1.066	1.122	1.064	1.045	1.097	1.188	1.318	1.462	1.431	1.419	1.577	1.713	1.730	1.925	1.838	1.804	1.863	2.069	1.988	1.928	1.950	2.009	1.930	2.081	2.061	2.020	2.045	2.090	2.168	1.896	1.812	1.940	1.996	1.928	1.801	1.880	1.901
380.0	300.7	369.5	416.7	436.9	450.1	449.4	439.9	439.5	439.3	443.5	441.5	443.5	445.7	425.4	408.1	391.8	378.1	369.9	360.3	348.2	334.3	311.0	313.7	323.6	244.7	172.4	139.9	112.3	132.9	221.0	642.8	 3319	 5161	353.0	12.93	3.132	2.170	1.917	1.466	1.348	1.285	1.065	1.002	1.203	1.165	1.297	1.336	1.486	1.562	1.468	1.664	2.003	1.804	1.932	1.876	1.871	1.950	1.955	1.922	2.107	2.048	1.976	1.958	2.098	2.147	2.012	2.268	2.193	2.101	2.014	2.086	1.825	1.960	1.933	1.975	1.842	2.062
385.0	297.9	370.3	413.8	452.0	473.2	456.0	457.9	453.8	464.3	460.3	469.2	472.2	456.9	440.5	419.9	401.4	391.5	387.1	381.0	369.8	353.4	334.0	318.0	326.5	304.5	210.8	162.0	126.8	105.3	102.6	182.6	974.6	 4212	 2982	267.1	5.203	3.066	2.194	1.783	1.350	1.270	1.096	1.031	1.308	1.252	1.418	1.426	1.444	1.622	1.569	1.615	1.999	1.899	2.085	1.959	1.997	2.265	2.159	2.073	2.066	2.152	2.094	2.071	2.085	2.299	2.132	2.244	2.255	2.139	2.151	2.030	2.145	2.072	2.156	2.023	2.142	1.978
390.0	305.9	389.3	432.7	476.0	491.6	494.5	485.0	480.6	486.1	484.9	489.1	488.7	472.2	458.0	434.6	414.0	410.4	407.8	402.0	389.9	378.3	362.6	341.4	327.9	324.1	283.5	211.4	159.8	125.9	100.1	96.17	257.1	 1187	 2940	 3487	 1005	16.69	2.940	2.194	1.781	1.571	1.272	1.268	1.291	1.353	1.500	1.472	1.647	1.616	1.672	1.677	2.040	1.969	2.059	2.058	2.216	2.276	2.409	2.193	2.196	2.178	2.311	2.210	2.270	2.187	2.072	2.130	2.169	2.318	2.215	2.101	2.172	2.222	2.131	2.167	2.237	2.251
395.0	305.8	420.9	439.6	487.4	510.1	515.0	513.0	503.6	512.0	511.2	508.9	506.2	498.1	469.1	446.5	430.7	425.9	421.5	422.3	407.5	401.5	388.8	367.7	345.9	323.3	313.8	285.2	204.4	158.5	124.4	99.46	111.6	301.9	707.2	 2083	 4612	 1522	20.25	3.223	2.554	1.956	1.574	1.455	1.585	1.418	1.504	1.587	1.751	1.808	1.777	1.560	2.119	2.113	2.226	2.167	2.227	2.225	2.351	2.350	2.208	2.367	2.457	2.037	2.298	2.226	2.152	2.292	2.230	2.216	2.254	2.087	2.241	2.386	2.194	2.222	2.259	2.264
400.0	327.9	408.5	456.7	495.4	517.0	527.0	526.8	521.6	524.1	527.0	521.0	522.8	498.9	475.2	455.6	438.7	429.3	427.6	427.9	418.5	412.9	398.2	381.9	362.5	334.4	314.2	314.8	254.1	187.1	148.0	114.6	93.05	113.2	190.3	557.0	 3018	 4471	300.4	10.61	2.975	2.313	1.826	1.624	1.523	1.581	1.556	1.644	1.833	1.772	1.729	1.737	2.078	2.093	2.238	1.984	2.325	2.388	2.281	2.335	2.321	2.288	2.456	2.334	2.384	2.508	2.391	2.201	2.460	2.280	2.378	2.257	2.223	2.343	2.240	2.181	2.307	2.203
405.0	333.9	409.4	471.6	515.2	532.7	541.7	538.8	543.5	540.9	537.2	538.4	531.1	501.9	486.9	462.3	440.8	434.7	435.0	432.1	424.0	420.3	408.6	394.7	373.3	348.7	323.6	315.1	298.1	221.4	170.4	135.1	101.3	83.46	82.75	153.4	874.9	 3566	 2537	230.8	5.399	2.724	2.224	1.733	1.600	1.460	1.668	1.674	1.925	1.788	1.740	1.735	2.219	2.092	2.219	2.072	2.383	2.541	2.397	2.483	2.270	2.506	2.391	2.343	2.239	2.471	2.231	2.275	2.258	2.303	2.354	2.199	2.417	2.430	2.153	2.269	2.399	2.327
410.0	325.6	408.9	466.3	519.0	536.3	548.3	550.3	550.3	553.9	555.1	549.3	535.9	506.2	488.0	462.1	441.0	430.8	433.4	431.2	427.3	424.0	412.4	400.5	388.5	363.8	336.8	312.7	304.7	274.7	212.3	161.7	123.5	93.04	71.65	71.55	222.4	992.8	 2628	 2977	921.5	14.50	2.921	2.328	1.910	1.770	1.689	1.789	1.906	1.755	1.695	1.741	2.244	2.119	2.247	2.301	2.315	2.523	2.418	2.562	2.467	2.666	2.399	2.474	2.388	2.517	2.316	2.342	2.194	2.371	2.344	2.411	2.340	2.344	2.207	2.301	2.203	2.341
415.0	316.1	413.4	472.2	508.9	541.3	557.5	556.0	558.3	558.1	551.8	545.7	526.2	502.9	482.0	460.0	432.7	423.2	422.1	428.6	423.4	417.8	411.8	399.9	389.4	371.2	347.6	321.8	299.9	289.4	262.1	196.2	147.3	109.1	81.64	64.96	84.38	246.2	630.1	 1838	 3950	 1231	17.81	2.879	2.285	2.113	1.890	1.806	1.917	1.897	1.686	1.785	2.081	2.355	2.506	2.273	2.287	2.534	2.595	2.616	2.559	2.522	2.669	2.602	2.376	2.535	2.403	2.294	2.306	2.363	2.370	2.446	2.140	2.456	2.376	2.017	2.389	2.219
420.0	315.1	398.4	467.2	511.2	533.7	545.8	554.2	560.9	558.2	560.4	548.9	532.1	505.4	476.7	452.7	429.0	414.9	416.0	419.5	413.6	409.9	408.9	399.1	389.6	372.2	350.5	329.2	303.2	285.0	280.1	226.8	166.4	122.5	93.63	70.67	59.86	84.69	161.0	487.2	 2585	 3730	273.2	9.546	3.025	2.551	2.087	1.947	2.018	1.958	1.814	1.763	2.157	2.318	2.400	2.306	2.244	2.642	2.619	2.572	2.486	2.514	2.637	2.625	2.514	2.489	2.401	2.227	2.310	2.203	2.252	2.230	2.406	2.337	2.384	2.227	2.216	2.394
425.0	313.4	397.0	473.2	517.3	529.2	551.0	549.6	555.4	573.5	562.9	553.5	529.7	506.9	470.6	447.9	420.8	410.2	405.3	408.8	404.5	405.4	399.8	395.0	389.6	371.0	353.3	330.5	305.1	286.7	273.7	252.6	188.2	134.5	104.8	79.53	60.87	54.48	59.91	126.8	751.8	 3113	 2309	210.2	4.518	2.682	2.308	2.167	2.020	1.880	1.845	1.804	2.284	2.187	2.208	2.381	2.314	2.608	2.735	2.608	2.526	2.426	2.526	2.638	2.506	2.314	2.439	2.483	2.386	2.253	2.192	2.222	2.382	2.158	2.280	2.149	2.307	2.285
430.0	324.1	380.1	451.8	488.5	514.6	535.7	544.4	563.3	571.6	568.2	561.3	527.0	501.9	468.8	438.0	409.4	398.6	394.1	393.8	394.7	392.9	388.6	385.4	379.9	368.7	351.5	333.6	311.0	291.0	270.8	251.7	218.2	161.5	120.3	92.48	70.74	57.13	45.64	51.55	185.7	886.4	 2264	 2562	766.4	13.09	2.955	2.487	2.266	2.008	1.902	1.902	2.268	2.164	2.349	2.215	2.376	2.573	2.608	2.528	2.432	2.464	2.595	2.602	2.581	2.390	2.435	2.309	2.239	2.196	2.301	2.122	2.281	2.118	2.191	2.163	2.173	2.184
435.0	432.0	379.5	442.5	482.3	515.0	523.4	550.3	553.5	564.3	570.7	552.4	527.5	489.6	457.7	426.9	401.1	388.7	379.6	382.4	382.3	375.7	378.7	373.6	369.0	362.1	347.9	333.2	317.2	295.5	273.8	247.2	223.1	194.0	142.9	106.9	83.77	66.27	48.81	42.28	64.33	214.3	541.3	 1595	 3424	267.1	15.47	3.207	2.663	2.399	2.106	2.098	2.274	2.168	2.239	2.162	2.367	2.605	2.599	2.638	2.425	2.434	2.470	2.433	2.374	2.427	2.376	2.217	2.250	2.213	2.044	2.281	2.158	2.100	2.118	2.159	2.121	2.191
440.0	750.6	386.7	434.1	470.5	511.1	527.4	544.1	553.1	556.5	562.1	546.0	521.0	487.8	449.0	419.4	392.4	375.7	371.2	370.6	366.1	366.6	367.3	363.1	361.9	355.9	341.9	330.5	317.8	296.5	277.8	248.7	217.1	203.8	165.2	119.2	93.19	73.76	56.65	44.77	40.93	67.91	136.8	433.5	 2453	 3188	237.4	6.788	3.158	2.559	2.338	2.156	2.225	2.202	2.383	2.271	2.356	2.710	2.519	2.491	2.521	2.374	2.439	2.491	2.484	2.520	2.445	2.291	2.181	2.230	1.989	2.137	2.103	2.284	2.067	2.060	2.049	2.035
445.0	 1334	405.7	415.3	455.9	503.3	521.2	539.1	554.5	559.2	552.7	544.4	516.6	484.5	440.1	408.6	379.4	362.3	357.3	355.9	354.5	351.7	355.8	351.9	350.6	345.3	333.9	324.2	312.3	294.9	276.5	251.0	217.3	199.6	179.7	135.8	99.81	80.39	63.78	49.76	39.78	38.58	48.40	111.2	756.5	 3073	 2035	31.21	4.451	2.866	2.446	2.138	2.294	2.369	2.313	2.188	2.335	2.610	2.487	2.533	2.542	2.510	2.293	2.449	2.432	2.383	2.321	2.041	2.249	2.215	2.110	1.999	2.100	2.106	1.941	1.859	2.005	1.922
450.0	 1660	695.9	415.3	433.3	468.5	496.4	518.5	535.1	539.9	538.9	530.1	501.4	466.5	424.3	385.5	360.6	345.1	338.1	336.8	331.6	331.2	334.5	331.3	328.7	325.6	319.1	311.7	298.7	286.7	271.6	248.8	217.6	189.0	173.5	152.2	114.6	88.37	70.36	57.06	45.29	36.81	33.17	42.04	183.5	897.7	 2237	 2336	647.0	10.89	2.864	2.441	2.523	2.303	2.214	2.291	2.356	2.425	2.489	2.467	2.535	2.493	2.459	2.408	2.321	2.470	2.349	2.050	2.176	2.273	2.033	2.005	2.050	1.965	1.959	1.935	1.927	2.005
455.0	 1063	 1112	517.8	418.4	440.4	480.7	488.0	507.4	519.0	524.8	507.1	481.5	444.0	400.9	365.7	337.1	324.7	316.7	312.0	311.8	306.2	311.3	309.1	306.0	304.7	299.3	295.2	282.4	273.1	259.0	244.0	214.1	185.7	163.6	150.2	132.1	99.96	77.19	62.88	51.88	40.91	34.21	30.68	57.31	213.2	541.2	 1542	 3004	219.6	11.64	2.963	2.677	2.560	2.429	2.206	2.198	2.403	2.414	2.506	2.444	2.460	2.373	2.244	2.445	2.347	2.344	2.148	2.069	2.169	2.055	1.827	1.835	1.941	1.952	1.817	1.637	1.905
460.0	538.6	 1169	770.2	403.9	422.3	454.1	478.1	485.3	503.4	498.5	489.6	459.5	423.1	388.6	351.8	323.4	307.9	297.8	294.3	295.6	291.0	289.7	289.5	285.4	288.0	281.2	277.2	271.9	263.4	251.2	236.4	209.9	186.6	159.8	139.8	135.2	111.5	82.96	67.02	54.97	44.67	36.61	30.25	31.07	62.11	132.4	415.0	 2166	 2578	169.9	6.503	3.077	2.522	2.666	2.286	2.144	2.375	2.260	2.524	2.372	2.375	2.344	2.414	2.292	2.309	2.172	2.223	2.120	1.893	1.787	1.716	1.661	1.860	1.633	1.673	1.523	1.721
465.0	287.7	897.8	 1115	436.7	408.7	430.6	449.2	469.2	484.0	478.7	471.9	442.7	407.1	373.5	334.0	307.9	291.9	283.6	275.4	277.3	274.8	273.3	270.2	270.2	270.3	265.5	262.9	256.2	250.5	242.0	227.4	205.7	180.1	156.1	136.9	127.1	118.1	89.49	70.32	58.31	48.16	38.80	31.38	27.09	29.99	42.22	103.8	668.5	 2584	 1466	24.58	4.118	2.586	2.590	2.158	2.158	2.356	2.100	2.417	2.271	2.316	2.236	2.136	2.116	2.048	2.109	2.045	1.908	1.814	1.721	1.642	1.732	1.756	1.608	1.564	1.649	1.714
470.0	230.0	471.5	 1113	751.2	391.6	402.3	406.7	438.4	445.8	449.0	436.2	416.1	383.4	345.0	311.7	287.8	269.8	261.1	254.2	252.2	250.3	244.6	245.3	246.1	245.7	243.3	240.4	237.0	231.6	225.1	212.6	194.4	171.3	149.1	131.3	117.3	110.6	97.32	76.76	60.87	50.54	41.84	34.52	28.71	24.99	24.30	35.36	160.0	769.2	 1761	 1775	603.7	10.30	2.917	2.356	2.405	2.341	2.162	2.259	2.131	2.169	2.109	2.049	2.076	1.952	1.976	1.900	1.760	1.860	1.724	1.578	1.632	1.609	1.555	1.411	1.458	1.548
475.0	207.5	291.8	681.9	 1162	507.3	362.4	378.2	395.5	410.0	420.6	409.7	389.8	351.1	320.1	288.6	263.2	246.6	235.5	226.9	226.2	226.7	222.0	221.2	222.9	221.4	219.9	218.0	216.7	213.6	206.5	196.4	180.9	162.0	140.4	124.9	110.4	100.8	92.77	84.16	66.02	52.68	43.62	36.54	30.89	25.84	22.25	21.04	46.54	180.2	421.2	 1120	 2379	214.9	12.07	2.729	2.362	2.332	2.449	2.051	2.043	2.072	1.912	2.031	2.046	1.977	1.824	1.741	1.681	1.648	1.481	1.548	1.623	1.579	1.316	1.339	1.354	1.362
480.0	206.0	247.2	391.8	 1132	746.6	344.7	364.3	372.2	382.0	396.6	383.3	360.9	336.7	298.5	273.4	247.0	230.7	222.9	212.4	213.2	211.0	206.8	203.9	208.6	203.2	203.9	202.2	201.3	198.0	195.3	186.5	172.0	154.9	136.3	122.5	108.5	95.83	87.75	84.64	71.34	55.02	45.56	37.92	32.96	27.15	22.72	19.01	21.98	50.00	101.3	299.5	 1601	 1744	190.3	5.624	2.573	2.413	2.179	2.041	2.093	2.126	1.851	1.877	1.868	1.793	1.746	1.711	1.545	1.660	1.456	1.552	1.668	1.468	1.311	1.353	1.394	1.235
485.0	201.9	219.1	278.6	791.4	 1136	405.0	334.5	352.4	366.4	375.3	361.1	340.6	319.8	288.1	255.9	231.5	215.1	209.7	200.9	197.3	197.1	193.0	190.8	192.9	192.5	190.3	188.3	187.9	186.8	184.8	175.6	162.6	146.7	130.1	118.5	104.6	93.95	82.56	79.13	73.65	59.41	46.10	39.47	33.94	27.62	24.09	20.29	17.82	21.45	30.49	74.03	476.1	 1968	 1617	29.17	3.749	2.607	2.178	2.248	2.038	1.901	1.925	1.892	1.940	1.751	1.689	1.635	1.630	1.578	1.459	1.521	1.459	1.411	1.307	1.311	1.309	1.279
490.0	188.2	218.7	236.8	419.9	 1083	767.8	325.0	329.4	340.5	348.1	338.9	321.1	296.0	266.3	236.1	213.6	200.8	190.7	185.7	181.9	176.6	176.0	174.4	174.5	174.6	171.9	171.0	170.2	170.7	169.3	162.7	151.8	136.7	123.5	111.0	99.99	89.96	79.07	71.47	69.18	63.42	49.48	40.56	34.79	29.60	25.13	20.95	18.10	16.18	15.96	24.18	113.2	573.2	 1448	 1639	492.6	10.52	2.468	2.341	2.029	1.893	1.820	1.774	1.821	1.682	1.609	1.575	1.503	1.408	1.418	1.396	1.328	1.278	1.305	1.152	1.207	1.181
495.0	155.3	207.0	221.6	272.9	611.1	 1167	476.2	298.5	310.8	319.3	307.7	291.7	275.2	244.5	215.3	192.6	181.1	172.1	168.1	163.1	160.0	156.1	155.6	156.7	156.5	153.8	153.9	154.2	154.2	153.2	148.1	138.2	125.4	114.7	104.0	93.30	85.14	75.11	67.45	62.82	59.87	54.06	42.93	35.02	30.48	25.91	22.24	19.09	16.02	13.35	13.69	32.27	133.4	349.0	 1150	 2109	231.5	11.33	2.340	2.049	1.952	1.826	1.696	1.600	1.455	1.497	1.481	1.472	1.402	1.206	1.172	1.159	1.239	1.111	1.114	1.077	0.955
500.0	129.6	194.0	221.2	223.1	340.3	 1086	786.5	280.3	294.6	294.6	284.8	273.8	251.5	225.3	198.8	176.7	166.7	158.4	152.9	151.3	145.1	143.8	142.5	141.6	143.1	141.2	139.2	141.6	141.2	141.0	135.9	127.0	116.2	106.0	95.61	87.70	80.43	71.87	64.37	58.22	53.81	53.18	45.71	35.85	30.17	25.79	22.58	19.35	16.15	13.68	11.80	14.76	35.76	83.44	311.3	 1481	 1840	195.2	5.083	2.192	2.130	1.747	1.583	1.656	1.451	1.384	1.436	1.285	1.338	1.238	1.120	1.158	1.065	1.039	1.114	1.087	0.959
505.0	115.8	175.1	215.9	204.8	237.8	744.9	 1102	352.8	263.0	273.9	267.8	255.7	231.9	207.6	186.0	166.3	154.1	146.4	140.8	136.7	133.1	131.2	129.5	130.4	128.7	128.6	128.3	130.5	128.7	128.3	124.8	118.2	108.3	99.56	89.63	82.44	75.81	67.61	61.54	55.25	49.67	49.06	46.93	37.14	30.53	26.14	22.38	19.40	16.04	13.84	11.68	10.69	14.21	24.13	74.65	443.6	 1768	 1563	31.17	2.844	2.194	1.804	1.601	1.661	1.540	1.364	1.291	1.224	1.226	1.226	1.112	1.100	1.061	0.949	1.102	0.974	0.851
510.0	107.7	143.2	194.1	195.7	198.0	365.8	989.2	753.2	261.3	244.1	237.5	228.6	208.7	187.2	166.9	146.8	138.8	130.7	124.7	120.5	117.8	117.0	113.6	113.7	113.8	112.8	113.3	113.8	113.4	114.0	111.1	104.7	97.24	88.67	80.76	74.55	68.44	62.53	55.91	50.62	45.32	42.46	42.01	38.48	31.34	25.78	22.35	19.35	16.18	13.76	12.14	10.23	9.940	11.14	21.67	103.9	511.7	 1325	 1372	399.5	10.01	2.038	1.722	1.532	1.497	1.264	1.183	1.208	1.042	1.078	1.031	1.040	1.011	0.878	0.875	0.905	0.862
515.0	90.56	114.5	159.9	182.2	169.1	214.5	507.0	 1097	394.5	214.4	215.0	200.6	184.8	166.3	146.8	131.3	121.8	116.4	109.4	104.1	101.6	100.9	100.3	99.12	98.72	99.09	98.29	99.31	98.97	100.1	97.98	91.65	85.02	78.16	71.50	66.24	60.95	55.03	51.52	46.74	41.69	37.74	35.36	36.38	32.53	26.06	21.16	18.43	16.39	13.52	12.13	10.39	8.676	8.052	9.986	27.73	117.9	313.3	846.4	 1635	231.0	9.734	1.977	1.471	1.397	1.183	1.068	0.977	0.999	0.929	0.811	0.909	0.871	0.794	0.783	0.739	0.769
520.0	84.78	106.5	135.7	168.8	166.5	180.7	265.8	958.0	770.7	210.4	192.8	182.9	164.1	150.1	132.7	119.6	110.1	104.4	99.72	93.95	93.10	91.00	89.30	89.39	89.58	87.37	87.15	88.61	88.03	89.05	85.68	82.04	76.17	69.94	66.01	60.95	55.94	50.55	46.47	43.62	38.99	35.23	32.68	30.99	31.96	26.71	20.96	17.77	15.92	13.50	11.92	10.37	8.869	7.726	7.329	10.86	30.36	73.56	226.4	 1129	 1457	179.9	3.866	1.660	1.388	1.169	1.129	1.053	0.851	0.924	0.822	0.820	0.699	0.698	0.778	0.676	0.667
525.0	71.89	103.3	113.2	156.4	165.7	147.5	180.6	594.6	 1107	299.0	178.3	166.0	151.0	137.7	123.0	110.8	100.7	94.31	91.10	87.13	85.54	83.55	81.18	80.21	80.58	79.47	79.65	80.40	81.84	80.15	79.11	74.22	69.49	64.30	60.07	55.71	51.24	46.78	43.33	40.10	36.78	33.03	30.13	28.47	29.29	27.08	21.69	17.47	15.13	13.13	11.47	10.41	8.654	7.565	6.928	7.163	10.81	19.86	54.20	334.0	 1325	 1161	30.18	2.046	1.296	1.162	1.122	0.982	0.959	0.847	0.830	0.746	0.691	0.639	0.717	0.654	0.698
530.0	69.79	87.84	101.4	126.2	150.0	134.7	143.1	272.4	895.4	760.6	189.6	148.7	135.6	122.3	108.1	96.32	88.19	84.00	80.33	77.36	73.91	72.73	70.99	68.92	69.46	69.28	69.68	69.73	69.75	70.05	68.16	65.55	61.35	56.85	53.40	49.05	45.23	41.42	38.35	36.21	32.79	29.73	27.36	25.64	24.26	24.56	22.28	17.52	14.68	12.42	10.89	9.945	8.322	7.714	6.795	6.077	6.587	7.965	15.32	77.71	376.8	960.8	 1041	136.4	8.774	1.393	1.096	1.020	0.889	0.885	0.757	0.657	0.593	0.626	0.581	0.583	0.590
535.0	59.71	82.38	91.00	100.5	124.6	133.0	124.3	155.8	405.3	 1036	451.4	126.0	115.7	106.2	93.92	82.66	76.17	74.43	69.14	67.25	63.81	62.99	61.43	59.74	60.84	59.74	60.17	61.16	61.31	60.28	58.85	56.86	53.63	49.30	45.60	42.58	39.11	36.49	34.08	32.06	28.93	26.64	24.54	22.96	21.31	20.64	21.15	18.62	14.39	11.91	10.79	9.334	7.848	7.530	6.702	6.191	5.744	5.439	6.654	20.00	86.34	225.6	608.7	 1207	227.2	8.037	1.246	0.907	0.801	0.848	0.702	0.768	0.536	0.515	0.518	0.632	0.517
540.0	54.72	69.15	73.97	84.63	99.62	130.9	111.9	118.9	192.6	801.4	832.8	138.2	106.1	95.77	85.99	74.68	69.13	65.16	61.51	58.43	57.99	57.80	53.56	54.18	53.82	53.33	54.37	53.75	54.20	54.59	53.42	51.39	48.54	43.95	41.47	38.18	35.38	34.09	31.30	28.85	25.96	25.01	22.70	20.64	19.17	18.18	18.02	18.47	14.85	11.57	10.32	9.059	7.501	7.133	6.477	5.991	5.469	4.758	4.455	7.050	21.86	52.55	159.6	807.4	 1158	171.4	3.062	1.066	0.830	0.792	0.736	0.582	0.464	0.470	0.463	0.491	0.448
545.0	51.10	60.73	71.30	74.60	90.39	119.0	111.7	109.7	126.4	443.4	 1038	244.0	95.52	85.09	78.11	68.97	63.70	60.04	55.39	53.22	51.25	51.41	48.77	48.32	48.38	47.48	47.86	47.72	49.10	49.02	49.03	46.62	43.47	39.70	37.51	35.25	33.28	31.04	28.41	26.16	23.72	22.46	20.95	19.30	18.08	16.48	16.09	16.29	15.35	11.70	10.20	8.906	7.514	6.823	6.056	5.712	5.387	4.481	3.765	4.421	7.256	13.77	37.63	234.5	984.9	918.5	30.00	1.513	0.895	0.866	0.717	0.547	0.519	0.555	0.504	0.451	0.426
550.0	45.29	54.54	61.90	65.64	75.09	90.40	109.7	97.22	100.1	191.8	707.4	722.0	129.2	76.02	67.53	60.79	54.92	52.23	48.41	46.25	45.09	43.47	43.04	41.87	41.53	41.11	41.10	40.60	41.30	42.06	42.00	39.43	36.94	34.58	32.56	30.53	28.50	26.73	24.94	22.96	21.33	19.57	18.30	17.08	16.07	14.76	13.68	13.30	13.65	12.02	9.748	8.001	6.901	6.222	5.751	5.418	4.807	4.407	3.623	3.462	3.855	5.058	10.19	54.29	274.3	712.8	790.5	136.8	7.908	0.908	0.684	0.560	0.530	0.461	0.512	0.443	0.429
555.0	41.02	49.52	53.77	50.84	62.58	66.80	91.71	90.94	79.36	106.5	282.0	809.5	461.0	64.83	57.42	51.01	46.41	43.55	41.55	39.65	37.26	35.92	35.87	35.20	34.40	34.33	34.16	34.24	34.49	34.43	34.21	32.71	30.78	29.05	26.92	25.58	24.27	23.06	21.30	19.64	18.60	16.60	15.70	14.53	13.62	12.95	12.12	11.19	10.45	11.08	9.880	7.521	6.301	5.669	5.362	4.939	4.365	3.936	3.634	3.156	3.041	2.990	4.057	13.53	62.52	166.1	431.8	889.6	213.5	6.531	0.685	0.594	0.597	0.395	0.426	0.330	0.403
560.0	33.81	37.65	47.84	46.76	49.34	54.67	77.99	85.06	70.56	77.88	123.2	538.4	824.2	87.00	50.01	45.71	41.00	37.50	34.75	34.45	32.81	32.29	31.31	30.49	30.18	29.32	29.38	29.07	29.05	30.32	30.32	28.66	26.54	25.34	23.78	22.51	20.99	19.88	18.69	17.21	16.24	14.36	13.89	13.01	12.23	11.04	10.47	9.602	8.844	9.035	9.267	7.714	5.780	5.010	4.868	4.596	4.345	3.712	3.353	2.920	2.730	2.608	2.557	4.501	15.22	38.22	111.7	564.6	803.3	34.51	2.487	0.692	0.556	0.424	0.439	0.262	0.309
565.0	30.65	33.54	38.37	43.48	45.85	47.50	60.65	78.08	65.66	63.88	76.45	269.3	910.5	185.6	42.56	37.95	35.22	32.53	31.00	29.58	27.99	27.44	26.41	26.28	25.41	25.20	25.48	25.94	25.47	26.41	25.53	23.89	22.90	21.78	19.77	19.09	18.07	17.13	16.46	14.68	13.36	12.52	12.09	11.19	10.69	9.749	9.146	8.606	7.646	7.337	8.064	7.394	5.358	4.756	4.408	3.904	3.709	3.444	2.949	2.800	2.413	2.132	2.035	2.385	4.625	9.681	26.24	158.4	635.0	610.6	29.50	1.053	0.508	0.408	0.421	0.297	0.341
570.0	26.78	28.81	33.60	33.67	37.80	37.98	44.13	60.83	61.71	54.07	55.21	106.4	515.6	585.1	82.56	30.92	28.41	26.16	24.79	23.59	21.96	21.71	21.13	21.07	20.71	20.49	20.36	20.06	19.92	20.62	20.53	18.97	18.30	17.27	16.29	14.83	14.24	13.81	12.85	11.95	11.04	10.36	9.914	9.037	8.530	8.175	7.518	6.947	6.353	5.890	5.947	6.262	5.204	4.357	3.743	3.252	3.073	3.027	2.633	2.454	2.214	1.851	1.737	1.851	2.195	3.195	6.901	36.42	172.3	443.5	398.6	124.5	6.171	0.415	0.372	0.272	0.287
575.0	23.16	20.90	26.79	24.88	29.16	30.96	33.46	43.58	57.59	50.37	45.21	53.42	176.7	562.3	363.3	26.08	21.63	20.59	19.17	18.43	17.62	16.61	17.16	16.03	15.51	15.44	15.84	15.20	15.57	15.65	15.60	14.65	14.05	13.31	12.56	11.24	11.07	10.32	9.746	9.451	8.563	8.152	7.709	7.191	6.671	6.566	6.099	5.549	4.971	4.564	4.479	4.422	4.470	3.902	3.324	2.630	2.539	2.430	2.113	2.090	1.814	1.663	1.460	1.467	1.421	1.618	2.444	9.010	39.12	102.7	230.8	514.5	165.9	4.145	0.406	0.337	0.309
580.0	18.56	20.05	25.25	22.26	24.54	26.81	29.32	33.38	47.30	50.35	37.53	39.54	66.45	324.4	595.2	57.44	17.67	17.67	15.54	14.56	14.52	13.66	13.90	13.44	12.84	13.02	12.48	12.24	12.41	12.73	12.83	11.80	11.16	10.72	10.36	9.658	9.215	8.642	8.302	7.848	6.802	6.440	6.212	6.016	5.702	5.336	5.135	4.657	3.948	3.963	3.625	3.407	3.561	3.784	3.236	2.520	2.244	2.241	1.947	1.797	1.519	1.624	1.478	1.263	1.119	1.150	1.371	2.912	9.420	23.64	59.38	310.2	445.2	32.43	1.381	0.375	0.270
585.0	17.82	21.88	20.73	20.43	20.58	23.30	24.40	28.08	38.97	51.88	35.21	34.11	37.94	147.1	582.6	140.4	15.72	14.32	12.99	12.77	11.94	11.93	11.59	10.69	10.89	11.19	10.90	10.64	10.88	10.47	10.99	9.930	9.682	9.172	8.898	8.089	7.673	7.355	7.201	6.761	5.984	5.498	5.302	5.131	4.739	4.672	4.192	3.921	3.363	3.281	3.073	2.897	2.874	3.183	3.051	2.283	1.965	1.956	1.733	1.496	1.407	1.492	1.393	1.318	1.104	1.000	1.085	1.411	2.724	5.960	14.05	85.31	344.1	265.2	25.45	0.641	0.285
590.0	18.95	17.24	18.04	17.20	18.75	18.64	20.71	23.28	26.89	42.70	38.55	29.22	27.65	52.94	292.1	470.1	58.44	11.75	10.63	10.78	10.29	9.474	9.098	8.697	9.052	8.746	8.693	8.424	8.653	8.710	8.376	8.137	7.623	7.375	6.807	6.349	6.307	5.972	5.574	5.198	4.845	4.566	4.335	4.091	3.877	3.758	3.422	3.235	2.837	2.676	2.553	2.247	2.205	2.427	2.711	2.332	1.904	1.644	1.507	1.409	1.226	1.274	1.186	1.188	1.042	0.940	0.895	0.855	1.211	1.952	3.620	19.56	92.79	218.7	257.9	89.31	4.017
595.0	18.27	13.62	15.70	14.37	13.09	16.22	17.67	18.72	21.25	32.72	41.54	27.02	23.54	25.28	90.66	390.1	311.1	11.85	8.738	8.776	7.740	7.370	7.391	7.246	7.200	6.985	6.759	6.605	6.702	6.696	6.575	6.240	6.023	5.744	5.185	4.785	4.839	4.753	4.350	4.149	4.084	3.564	3.537	3.158	2.974	3.033	2.786	2.657	2.338	2.135	1.930	1.828	1.842	1.796	1.923	2.157	1.850	1.377	1.261	1.150	1.051	0.983	0.931	0.950	1.004	0.848	0.819	0.750	0.849	0.971	1.238	4.838	21.05	50.74	130.1	285.0	36.54
600.0	15.59	12.23	13.32	12.39	13.44	13.29	15.52	15.58	18.43	24.14	38.70	29.81	21.02	17.58	30.96	206.1	478.0	45.97	7.632	7.030	6.365	6.170	6.286	5.711	5.660	5.852	5.693	5.393	5.667	5.562	5.468	5.391	4.790	4.773	4.417	4.188	3.950	4.014	3.678	3.692	3.221	3.158	3.084	2.725	2.552	2.730	2.241	2.182	1.987	1.810	1.749	1.478	1.470	1.484	1.451	1.747	1.748	1.337	1.128	1.069	0.977	0.987	0.843	0.855	0.883	0.843	0.791	0.800	0.745	0.717	0.586	1.428	5.075	11.57	33.07	168.4	244.4
605.0	12.59	11.48	12.68	12.57	12.47	12.07	11.74	15.08	17.71	19.04	33.86	33.99	19.58	16.03	16.04	82.55	433.0	111.6	6.814	5.346	5.429	5.265	5.077	4.886	5.108	4.839	4.775	5.138	4.833	4.510	4.728	4.445	4.485	4.110	3.612	3.734	3.428	3.351	3.178	2.827	2.764	2.458	2.516	2.238	2.227	2.214	2.049	1.847	1.641	1.642	1.586	1.450	1.268	1.254	1.219	1.354	1.588	1.354	1.073	1.047	0.864	0.906	0.686	0.707	0.789	0.722	0.722	0.697	0.536	0.685	0.562	0.670	1.474	2.827	7.695	47.32	190.4
610.0	9.644	10.96	12.50	10.55	10.15	10.38	10.73	13.12	13.70	16.47	23.71	32.61	20.97	13.87	11.99	26.05	198.3	375.6	48.17	4.863	4.645	4.498	4.294	4.026	4.014	4.052	3.760	4.089	3.841	3.782	3.586	3.649	3.608	3.399	3.144	3.039	2.736	2.681	2.463	2.296	2.283	2.029	2.088	1.868	1.850	1.817	1.628	1.542	1.431	1.417	1.314	1.178	1.082	1.025	1.010	1.013	1.174	1.250	1.082	0.905	0.760	0.736	0.605	0.650	0.709	0.581	0.624	0.565	0.619	0.540	0.471	0.444	0.610	0.886	1.913	10.83	51.55
615.0	11.41	8.177	10.44	9.053	7.520	9.927	10.74	11.90	12.93	15.57	18.63	26.76	25.43	13.78	9.727	11.11	56.06	286.4	274.8	6.531	3.613	3.717	3.265	3.173	3.242	3.197	2.970	3.201	3.101	3.136	2.965	2.740	2.777	2.395	2.513	2.443	2.092	2.109	2.070	1.856	1.727	1.729	1.579	1.450	1.472	1.349	1.275	1.337	1.167	1.160	0.980	1.001	0.941	0.716	0.747	0.893	0.828	0.940	1.019	0.849	0.645	0.662	0.481	0.542	0.579	0.559	0.551	0.556	0.508	0.508	0.457	0.393	0.350	0.402	0.588	2.587	11.63
620.0	7.762	9.897	9.751	9.790	8.138	7.763	9.052	10.44	9.923	14.11	15.65	20.65	25.27	13.40	8.406	7.504	16.64	136.6	396.1	43.59	3.139	3.084	2.915	2.949	2.743	2.723	2.479	2.589	2.282	2.334	2.372	2.552	2.389	2.319	2.244	1.986	1.904	1.799	1.634	1.608	1.372	1.473	1.333	1.223	1.165	1.139	1.087	1.151	0.954	0.978	0.865	0.908	0.706	0.709	0.688	0.722	0.662	0.863	0.870	0.891	0.782	0.625	0.450	0.507	0.526	0.520	0.455	0.469	0.515	0.520	0.399	0.322	0.320	0.262	0.363	0.791	2.729
625.0	8.686	11.40	7.537	8.672	7.811	7.807	9.219	8.941	9.417	12.20	15.31	16.57	24.62	15.44	8.226	6.503	7.830	50.51	336.9	179.9	3.475	2.622	2.492	2.210	2.412	2.376	2.118	2.333	2.158	2.090	2.246	2.257	2.123	1.926	1.805	1.704	1.664	1.555	1.417	1.347	1.215	1.269	1.246	1.108	1.054	1.003	1.029	0.899	0.811	0.894	0.774	0.794	0.702	0.694	0.575	0.574	0.541	0.632	0.738	0.800	0.661	0.576	0.457	0.406	0.455	0.473	0.393	0.417	0.360	0.418	0.295	0.315	0.287	0.198	0.300	0.319	0.796
630.0	6.052	10.22	7.630	6.829	6.947	6.478	7.004	9.084	8.669	12.02	12.22	14.08	18.74	18.87	8.798	5.827	4.974	14.84	140.5	321.4	41.73	2.318	1.964	1.878	2.034	1.836	1.705	1.720	1.829	1.699	1.832	1.674	1.696	1.552	1.434	1.398	1.316	1.350	1.096	1.100	1.029	1.057	1.005	0.865	0.795	0.888	0.840	0.810	0.725	0.663	0.656	0.602	0.532	0.504	0.546	0.497	0.473	0.526	0.492	0.542	0.623	0.527	0.416	0.412	0.355	0.392	0.374	0.341	0.319	0.347	0.339	0.276	0.245	0.202	0.234	0.197	0.265
635.0	6.147	7.774	8.414	5.435	6.513	5.699	7.514	6.846	8.210	10.86	11.81	12.83	14.18	18.23	10.90	5.705	4.021	5.584	37.22	210.2	230.1	4.472	1.674	1.536	1.633	1.496	1.528	1.333	1.444	1.457	1.487	1.361	1.429	1.213	1.202	1.151	1.091	1.022	0.923	0.896	1.060	0.893	0.771	0.738	0.694	0.704	0.731	0.667	0.534	0.593	0.631	0.497	0.444	0.431	0.412	0.417	0.447	0.354	0.381	0.411	0.495	0.454	0.415	0.315	0.345	0.356	0.352	0.326	0.326	0.272	0.280	0.326	0.221	0.127	0.205	0.162	0.116
640.0	8.914	9.834	9.351	5.473	6.119	4.361	5.762	6.379	8.592	10.54	11.77	11.90	12.20	16.40	14.50	6.078	4.334	3.772	10.75	91.41	322.6	39.50	1.626	1.367	1.423	1.269	1.320	1.248	1.214	1.313	1.370	1.146	1.107	0.967	1.122	0.949	0.813	0.989	0.897	0.927	0.824	0.757	0.758	0.643	0.568	0.604	0.579	0.521	0.533	0.526	0.514	0.404	0.366	0.394	0.351	0.347	0.349	0.302	0.247	0.340	0.386	0.436	0.385	0.297	0.323	0.280	0.346	0.255	0.303	0.293	0.285	0.296	0.243	0.193	0.151	0.200	0.128
645.0	9.762	8.897	8.268	5.918	5.187	4.809	5.932	6.251	7.741	9.592	10.90	11.00	11.42	13.58	15.47	6.889	4.248	3.346	4.579	30.68	261.5	157.3	1.982	1.278	1.385	1.116	1.102	1.109	1.041	1.101	1.046	1.161	0.990	0.949	0.887	0.822	0.779	0.906	0.838	0.798	0.649	0.611	0.592	0.511	0.627	0.483	0.559	0.514	0.448	0.430	0.422	0.376	0.348	0.341	0.316	0.327	0.303	0.272	0.262	0.261	0.323	0.361	0.391	0.281	0.288	0.232	0.260	0.263	0.234	0.186	0.232	0.205	0.224	0.239	0.143	0.137	0.105
650.0	9.517	9.485	9.481	6.661	4.458	4.324	6.279	6.754	7.243	8.880	10.17	10.99	10.89	10.87	14.33	8.266	4.129	3.242	3.153	9.536	132.3	275.5	13.26	1.244	1.166	0.974	0.993	0.996	0.977	1.093	1.000	0.952	0.807	0.832	0.818	0.754	0.799	0.744	0.665	0.705	0.656	0.633	0.640	0.601	0.512	0.429	0.530	0.498	0.392	0.392	0.349	0.375	0.350	0.340	0.303	0.351	0.282	0.263	0.203	0.276	0.351	0.350	0.350	0.287	0.244	0.246	0.244	0.207	0.229	0.204	0.188	0.206	0.192	0.240	0.137	0.106	0.115
