Sample:	'1
File name:	槟城分局寄样.FD3
Run date:	'10:09:14, 07/09/2025
Operator:	Administrator
Comment:	'

Instrument
Model:	F-2700 FL Spectrophotometer
Serial number:	23B8-004
ROM Version:	4J14000 07

Instrument parameters
Measurement type:	3-D scan
Data mode:	Fluorescence
EX  Start WL:	220.0 nm
EX  End WL:	600.0 nm
EX Sampling interval:	5.0 nm
EM  Start WL:	230.0 nm
EM  End WL:	650.0 nm
EM Sampling interval:	5.0 nm
Scan speed:	12000 nm/min
EX Slit:	5.0 nm
EM Slit:	5.0 nm
PMT Voltage:	700 V
Response:	Auto 
Corrected spectra:	Off
Contour interval:	50.000

Peak integration
Integration method:	Rectangular
Sensitivity:	1
Threshold:	1.000

Peaks
No.	ApexEX/EM(nm)	Height(Data)
1	225.0/415.0	4333
2	230.0/345.0	1602
3	250.0/440.0	3203
4	255.0/285.0	594.1
5	260.0/290.0	563.7
6	260.0/575.0	133.3
7	265.0/295.0	708.7
8	265.0/585.0	103.8
9	270.0/300.0	890.3
10	270.0/600.0	88.53
11	275.0/310.0	915.7
12	275.0/340.0	740.8
13	275.0/610.0	74.26
14	280.0/315.0	879.8
15	280.0/625.0	65.67
16	285.0/320.0	912.9
17	285.0/635.0	50.25
18	290.0/325.0	822.9
19	300.0/335.0	600.7
20	305.0/345.0	504.8
21	310.0/350.0	407.3
22	315.0/355.0	387.2
23	320.0/365.0	374.0
24	320.0/415.0	1356
25	425.0/500.0	30.27
26	440.0/520.0	18.42
27	455.0/340.0	4.848
28	495.0/270.0	2.387
29	505.0/275.0	3.445
30	505.0/445.0	14.40
31	510.0/280.0	4.205
32	510.0/450.0	13.82
33	515.0/285.0	3.867
34	530.0/290.0	3.859
35	540.0/295.0	4.486
36	545.0/300.0	5.335
37	550.0/305.0	5.989
38	560.0/310.0	5.569
39	570.0/315.0	6.083
40	580.0/320.0	5.987

Data points
	220.0	225.0	230.0	235.0	240.0	245.0	250.0	255.0	260.0	265.0	270.0	275.0	280.0	285.0	290.0	295.0	300.0	305.0	310.0	315.0	320.0	325.0	330.0	335.0	340.0	345.0	350.0	355.0	360.0	365.0	370.0	375.0	380.0	385.0	390.0	395.0	400.0	405.0	410.0	415.0	420.0	425.0	430.0	435.0	440.0	445.0	450.0	455.0	460.0	465.0	470.0	475.0	480.0	485.0	490.0	495.0	500.0	505.0	510.0	515.0	520.0	525.0	530.0	535.0	540.0	545.0	550.0	555.0	560.0	565.0	570.0	575.0	580.0	585.0	590.0	595.0	600.0
230.0	101.7	2266	5612	1233	44.14	7.792	6.827	5.908	4.955	5.055	4.591	4.534	3.905	3.096	2.860	2.134	1.978	1.800	1.805	2.656	1.674	1.418	1.259	1.142	1.026	0.970	0.989	0.927	0.719	0.806	0.664	0.658	0.689	0.643	0.672	0.563	0.480	0.475	0.497	0.514	0.563	0.826	0.721	0.521	0.383	0.417	2.007	7.168	10.68	7.224	3.182	0.677	0.342	0.348	0.269	0.274	0.286	0.301	0.272	0.251	0.269	0.280	0.253	0.262	0.269	0.244	0.258	0.265	0.253	0.278	0.293	0.289	0.243	0.225	0.252	0.295	0.278
235.0	175.0	637.6	3877	4288	564.2	55.30	10.13	7.734	6.082	4.763	5.896	4.400	3.924	3.599	2.853	2.375	1.963	1.673	1.931	2.607	1.728	1.477	1.202	1.174	1.076	1.124	0.967	1.036	0.792	0.824	0.696	0.822	0.644	0.564	0.695	0.563	0.593	0.470	0.472	0.506	0.504	0.642	0.638	0.988	0.742	0.440	0.767	2.010	4.483	7.526	11.78	11.67	4.852	1.724	0.318	0.287	0.316	0.283	0.283	0.248	0.269	0.271	0.241	0.246	0.304	0.265	0.243	0.298	0.299	0.282	0.286	0.250	0.334	0.253	0.210	0.316	0.272
240.0	243.0	264.2	1229	4076	4238	434.1	27.92	8.874	7.173	6.040	5.793	5.076	4.654	3.593	3.174	2.542	2.254	1.892	1.981	2.886	1.635	1.433	1.154	1.305	1.069	1.077	1.005	1.039	0.850	0.751	0.737	0.858	0.580	0.676	0.615	0.618	0.583	0.494	0.520	0.571	0.432	0.588	0.464	0.693	0.875	0.882	0.735	0.735	1.305	2.506	7.200	17.09	16.81	17.37	4.076	0.641	0.317	0.332	0.291	0.294	0.325	0.285	0.284	0.257	0.231	0.278	0.273	0.332	0.302	0.264	0.257	0.261	0.332	0.277	0.352	0.298	0.214
245.0	195.7	307.8	353.8	1537	5848	3453	308.1	13.68	8.608	8.094	7.023	6.716	4.754	3.301	2.997	2.626	2.501	1.972	1.843	2.924	1.659	1.540	1.277	1.451	1.209	1.056	1.025	0.904	0.731	0.695	0.758	0.855	0.738	0.706	0.754	0.589	0.501	0.517	0.508	0.523	0.523	0.460	0.422	0.504	0.597	0.945	1.102	0.982	0.656	0.890	2.009	6.380	13.51	32.29	21.00	10.19	2.464	0.459	0.314	0.276	0.355	0.272	0.305	0.275	0.299	0.263	0.284	0.285	0.285	0.296	0.332	0.265	0.305	0.363	0.327	0.296	0.298
250.0	86.19	232.8	326.5	441.9	2091	4638	4969	1206	62.65	11.72	10.07	7.542	5.986	4.081	3.851	2.855	2.766	2.195	1.966	2.988	1.760	1.566	1.335	1.413	1.316	1.140	1.150	1.059	0.831	0.768	0.767	0.777	0.694	0.715	0.775	0.646	0.516	0.553	0.540	0.581	0.503	0.495	0.453	0.407	0.426	0.570	0.714	1.152	1.196	0.962	0.989	1.823	3.604	11.27	14.82	20.98	25.69	17.83	11.26	2.785	0.503	0.307	0.326	0.303	0.311	0.283	0.341	0.284	0.311	0.328	0.247	0.247	0.274	0.286	0.264	0.300	0.300
255.0	52.57	88.49	253.0	389.9	552.9	1275	5382	9293	1606	66.18	14.42	10.86	7.514	5.439	4.443	2.918	2.783	2.248	2.529	3.278	2.080	1.537	1.536	1.552	1.285	1.354	1.214	1.015	0.985	0.933	0.911	0.818	0.890	0.700	0.806	0.622	0.504	0.520	0.491	0.515	0.576	0.501	0.483	0.455	0.427	0.479	0.443	0.534	0.780	1.062	1.535	1.521	1.252	2.882	3.668	5.463	11.62	24.25	47.93	28.69	17.39	2.741	0.426	0.362	0.316	0.280	0.309	0.392	0.304	0.258	0.259	0.265	0.312	0.262	0.319	0.318	0.292
260.0	47.02	50.18	111.4	367.6	362.6	337.4	1818	9773	9113	1214	37.20	14.65	10.06	6.350	5.705	3.925	3.038	2.860	2.889	3.465	2.070	1.614	1.449	1.353	1.343	1.344	1.252	1.344	0.911	0.989	0.900	1.042	0.840	0.835	0.680	0.638	0.508	0.488	0.527	0.547	0.500	0.509	0.504	0.434	0.471	0.425	0.363	0.451	0.448	0.592	1.227	2.152	1.748	1.435	1.307	1.572	2.958	7.079	23.98	42.13	64.70	26.25	10.71	1.267	0.328	0.361	0.330	0.409	0.336	0.290	0.302	0.262	0.318	0.271	0.282	0.305	0.294
265.0	47.11	40.26	51.16	191.2	442.5	236.8	454.7	3861	9999.9	9999.9	209.6	21.70	13.05	7.882	6.629	4.103	3.214	3.411	2.836	3.689	2.131	1.795	1.721	1.607	1.418	1.310	1.263	1.247	0.918	1.154	1.020	0.998	0.849	0.908	0.820	0.614	0.554	0.526	0.544	0.625	0.469	0.631	0.451	0.487	0.442	0.479	0.293	0.386	0.485	0.342	0.603	1.202	2.005	2.331	1.463	0.934	1.060	2.048	6.042	14.44	42.70	59.59	55.26	21.42	5.438	0.792	0.396	0.329	0.340	0.365	0.293	0.274	0.340	0.347	0.322	0.300	0.388
270.0	61.10	47.62	37.03	70.81	242.7	420.6	302.4	938.1	3944	9999.9	9999.9	3115	59.79	12.49	8.835	5.659	4.524	3.596	3.290	4.472	2.573	2.061	1.882	1.661	1.479	1.449	1.280	1.182	1.088	1.103	1.093	1.022	0.950	1.002	0.884	0.768	0.647	0.660	0.641	0.541	0.594	0.600	0.489	0.513	0.453	0.480	0.459	0.467	0.451	0.343	0.382	0.601	0.940	1.524	2.016	2.387	1.868	1.270	1.825	3.669	10.43	18.90	32.19	44.67	47.97	47.77	14.96	4.975	0.727	0.397	0.397	0.325	0.386	0.341	0.328	0.291	0.323
275.0	102.1	84.88	53.46	43.20	88.89	240.0	541.8	404.8	929.1	2858	9999.9	9999.9	1191	49.87	13.71	7.721	5.462	3.975	4.340	5.377	3.236	2.376	2.264	1.667	1.703	1.678	1.457	1.301	1.202	1.031	0.953	1.076	0.976	1.054	1.124	0.844	0.745	0.622	0.655	0.692	0.657	0.591	0.524	0.515	0.576	0.618	0.602	0.499	0.404	0.366	0.445	0.447	0.521	0.763	0.930	1.414	2.869	3.445	2.378	1.558	2.871	4.585	7.674	10.81	17.78	45.61	93.67	77.16	25.23	5.415	0.745	0.454	0.356	0.407	0.413	0.369	0.318
280.0	148.5	116.8	80.40	44.03	52.45	103.1	418.4	560.0	321.6	710.4	3449	9999.9	9999.9	779.6	27.63	9.866	7.325	4.891	4.399	6.122	3.704	2.736	2.494	1.931	1.885	1.922	1.374	1.442	1.187	1.297	1.113	1.065	1.102	1.169	1.278	0.903	0.843	0.759	0.826	0.795	0.789	0.754	0.698	0.609	0.690	0.793	0.700	0.568	0.514	0.472	0.418	0.482	0.469	0.601	0.604	0.707	1.546	2.853	4.205	3.126	1.800	1.539	2.175	2.938	4.624	11.92	37.37	73.32	123.7	33.29	18.29	1.972	0.475	0.447	0.472	0.469	0.402
285.0	198.3	171.1	110.1	62.90	51.84	66.92	186.5	594.1	333.5	255.7	872.2	4895	9999.9	8022	118.7	14.85	8.620	6.126	5.310	7.241	4.401	2.831	2.768	2.088	2.038	1.748	1.471	1.545	1.178	1.333	1.075	1.269	1.311	1.365	1.232	1.146	0.866	0.990	0.910	0.877	0.837	0.841	0.823	0.773	0.747	0.865	0.801	0.775	0.622	0.533	0.456	0.473	0.454	0.557	0.508	0.545	0.779	1.162	2.553	3.867	3.853	2.231	1.218	1.279	1.604	3.345	9.122	20.30	58.06	88.68	104.5	28.00	10.41	0.842	0.518	0.463	0.460
290.0	243.4	216.8	151.9	89.92	70.27	67.97	97.67	270.4	563.7	462.1	336.2	1233	4812	9999.9	9999.9	445.1	31.94	9.227	7.623	9.537	5.245	3.711	2.958	2.249	2.157	1.982	1.653	1.712	1.366	1.319	1.220	1.382	1.235	1.430	1.462	1.353	1.191	1.044	1.149	0.990	0.916	0.921	0.860	0.865	0.938	1.039	0.983	0.948	0.847	0.614	0.563	0.607	0.556	0.665	0.625	0.576	0.683	0.804	1.230	1.749	2.829	3.696	3.859	2.552	1.531	1.456	2.876	5.306	13.99	24.48	47.12	58.78	79.83	59.51	19.55	7.684	1.040
295.0	303.9	278.7	204.8	125.5	90.40	83.30	93.19	138.2	274.5	708.7	562.3	437.6	1203	2671	9999.9	9999.9	651.8	26.77	11.03	12.85	7.182	4.293	3.602	2.794	2.582	2.208	2.020	1.952	1.445	1.336	1.257	1.442	1.529	1.400	1.632	1.405	1.211	1.371	1.175	1.151	1.113	0.957	0.899	1.025	1.042	1.074	1.131	1.194	0.918	0.773	0.649	0.752	0.705	0.783	0.733	0.646	0.820	0.749	0.919	0.964	1.372	1.681	2.635	4.300	4.486	2.557	1.949	2.138	4.009	6.316	11.47	14.01	22.38	41.49	94.25	92.04	30.24
300.0	332.2	312.0	251.0	157.4	117.8	107.9	118.5	141.4	203.9	477.0	890.3	467.2	424.0	722.3	3309	9999.9	9999.9	463.8	19.54	17.74	8.629	5.305	4.382	3.228	3.143	2.506	2.196	2.177	1.579	1.486	1.272	1.319	1.608	1.428	1.627	1.377	1.439	1.439	1.250	1.269	1.109	1.142	1.024	1.062	1.264	1.244	1.105	1.247	1.001	0.836	0.777	0.920	0.833	0.831	0.795	0.815	0.932	0.950	0.985	1.115	1.127	1.318	1.513	2.539	4.239	5.335	3.866	2.063	2.250	2.419	3.578	4.056	5.816	10.48	29.76	64.23	98.88
305.0	399.6	373.3	301.8	211.0	168.4	151.9	178.3	202.3	250.2	388.1	799.5	913.0	436.6	375.1	910.8	3887	9999.9	4954	74.46	26.30	11.34	6.266	4.807	3.520	3.583	2.870	2.393	2.098	1.526	1.782	1.379	1.647	1.737	1.542	1.770	1.683	1.435	1.540	1.272	1.342	1.277	1.260	1.142	1.224	1.197	1.412	1.239	1.266	1.281	0.979	0.879	1.061	1.044	0.998	0.943	1.068	1.112	1.277	1.285	1.429	1.431	1.501	1.609	1.984	2.847	4.402	5.989	5.310	3.505	2.333	2.362	2.336	2.563	3.574	7.836	16.70	39.22
310.0	445.1	461.2	395.9	270.8	218.9	205.9	237.8	275.1	324.6	414.1	588.5	915.7	865.7	456.6	438.1	1048	3832	9999.9	9999.9	1953	30.55	9.069	6.635	4.473	3.861	3.239	2.606	2.610	1.888	1.829	1.498	1.722	1.779	1.676	1.883	1.613	1.401	1.535	1.499	1.599	1.326	1.298	1.390	1.278	1.295	1.423	1.503	1.476	1.519	1.188	1.094	1.285	1.218	1.331	1.230	1.197	1.435	1.543	1.649	1.777	1.641	1.831	2.084	2.303	2.714	3.136	4.061	5.124	5.569	5.178	3.884	2.751	2.447	2.334	3.264	4.973	10.04
315.0	484.8	534.1	497.7	329.9	268.5	252.6	282.4	323.7	361.4	442.5	541.8	672.3	879.8	826.0	425.7	432.1	1018	2517	9999.9	9999.9	510.5	27.62	9.344	6.024	4.914	3.734	2.978	2.943	2.204	2.044	1.862	2.003	1.617	1.759	2.013	1.564	1.433	1.664	1.600	1.583	1.471	1.446	1.435	1.349	1.398	1.699	1.704	1.776	1.628	1.512	1.254	1.495	1.377	1.452	1.365	1.345	1.672	1.715	1.921	1.900	1.934	2.072	2.311	2.443	2.948	2.920	3.400	3.653	3.782	4.923	6.083	5.355	3.558	2.545	2.593	2.704	3.626
320.0	607.6	685.9	618.8	414.3	307.4	289.5	319.4	359.9	394.5	469.7	570.9	640.0	722.2	912.9	631.4	333.1	414.0	671.8	2881	9999.9	9999.9	408.6	16.28	7.712	5.634	4.089	3.226	3.151	2.511	2.435	1.717	1.931	1.960	1.728	1.875	1.653	1.658	1.609	1.571	1.554	1.541	1.484	1.527	1.601	1.609	1.958	2.193	2.305	2.155	1.874	1.438	1.857	1.392	1.668	1.418	1.643	1.828	1.919	2.101	2.039	2.264	2.359	2.494	2.708	2.808	3.043	3.424	3.449	3.620	3.950	4.461	5.603	5.987	3.928	2.843	2.296	2.367
325.0	762.7	924.0	845.6	526.0	350.3	322.9	352.4	392.3	423.2	505.1	591.6	650.0	665.2	742.1	822.9	415.8	289.5	272.0	712.2	4446	9999.9	4035	60.09	10.89	7.378	5.038	3.919	3.237	2.869	2.470	1.930	2.172	2.246	1.847	1.886	1.634	1.652	1.491	1.591	1.716	1.589	1.584	1.711	1.638	1.890	2.294	2.523	3.023	2.774	2.273	2.014	1.901	1.798	1.850	1.565	1.620	1.914	1.827	2.115	2.157	2.323	2.415	2.650	2.759	2.903	3.207	3.398	3.566	3.639	3.658	3.729	3.933	5.297	5.232	4.489	3.079	2.407
330.0	894.5	1141	1146	771.9	518.3	396.9	393.3	428.9	454.6	532.3	617.1	679.0	678.9	647.7	680.7	627.4	376.6	210.4	244.7	1076	3970	9038	8704	1300	22.64	7.677	5.218	3.753	3.353	2.790	2.193	2.300	2.293	2.056	2.049	1.680	1.557	1.567	1.676	1.702	1.611	1.693	1.834	1.916	2.344	2.908	3.095	3.636	3.608	3.064	2.798	2.645	2.366	2.262	2.039	1.859	2.032	2.231	2.262	2.365	2.453	2.621	2.607	2.892	3.182	3.486	3.596	3.560	3.631	3.820	3.684	3.663	3.857	4.327	4.403	4.676	3.900
335.0	1068	1387	1429	1149	812.9	531.4	460.6	483.0	507.6	575.6	664.6	724.4	726.5	669.2	598.7	569.8	600.7	309.4	180.3	335.9	960.5	2198	7835	9999.9	434.1	25.10	7.497	5.393	4.083	2.925	2.758	2.674	2.582	2.316	2.205	1.773	1.794	1.648	1.776	1.852	1.979	1.830	1.993	2.325	2.698	3.511	3.426	4.320	4.267	3.989	3.743	3.994	3.716	3.234	2.579	2.166	2.306	2.510	2.524	2.386	2.686	2.769	2.890	3.251	3.376	3.487	3.881	3.925	3.694	4.074	3.895	4.122	3.768	3.903	3.705	3.714	4.301
340.0	1141	1478	1589	1301	930.7	618.7	502.3	511.4	545.1	601.7	680.3	740.8	738.7	669.8	589.7	494.1	562.3	468.1	211.0	187.0	303.4	557.3	2148	8949	9999.9	371.9	15.68	6.629	4.969	3.495	3.110	3.186	2.638	2.397	2.449	1.925	1.639	1.819	1.793	1.852	2.088	1.876	2.312	2.519	2.865	3.681	3.750	4.848	4.658	4.298	4.230	4.309	3.899	3.787	2.750	2.502	2.599	2.672	2.819	2.649	2.829	3.041	3.140	3.173	3.580	3.569	3.908	4.052	4.064	4.180	3.947	3.911	3.704	3.837	3.151	3.223	3.537
345.0	1125	1507	1602	1300	958.2	645.0	523.4	523.4	559.8	606.5	673.3	719.7	709.4	657.7	571.4	460.2	441.9	504.8	318.5	170.3	165.3	200.9	542.9	2743	9999.9	7851	54.30	10.05	5.951	3.982	3.399	3.066	2.897	2.829	2.366	1.924	1.777	1.814	1.808	1.673	2.015	1.928	2.309	2.411	2.851	3.548	3.685	4.831	4.818	4.460	4.266	4.585	3.815	3.822	3.050	2.783	2.748	2.837	2.844	2.832	2.782	3.036	3.046	3.338	3.886	3.582	3.908	3.773	3.695	3.922	3.752	3.875	3.735	3.545	3.497	3.106	3.093
350.0	1065	1388	1521	1324	1012	695.6	556.6	547.5	566.9	608.6	658.4	687.9	676.4	631.2	553.9	453.9	396.6	388.3	407.3	280.1	167.1	143.6	199.0	671.1	2904	7672	6324	1295	20.39	6.160	4.430	3.835	3.212	2.973	2.679	2.146	1.862	1.906	1.817	1.908	1.874	1.955	2.111	2.341	2.781	3.366	3.621	4.337	4.610	4.409	4.284	4.830	4.207	3.929	3.135	2.847	2.965	2.717	2.890	3.011	2.931	3.093	3.256	3.370	3.594	3.575	3.687	3.628	3.728	3.768	3.489	3.763	3.677	3.488	3.433	3.189	2.920
355.0	1058	1341	1432	1282	1037	728.9	598.6	577.1	585.4	613.8	642.0	657.7	639.7	603.8	540.6	458.2	396.1	342.1	333.9	387.2	268.3	161.1	145.5	225.7	695.7	1809	4831	9542	401.4	24.50	6.420	5.091	4.118	3.698	2.876	2.094	1.912	2.040	1.971	2.035	2.018	1.944	2.062	2.270	2.615	3.187	3.758	4.160	4.280	4.155	4.017	4.678	4.194	3.992	3.414	3.042	2.884	2.969	3.056	3.123	2.867	3.116	3.400	3.181	3.511	3.291	3.491	3.416	3.659	3.640	3.319	3.582	3.445	3.267	3.216	3.250	2.784
360.0	1021	1242	1346	1204	1010	745.3	616.1	584.6	591.9	605.8	625.9	637.1	605.3	576.4	519.6	454.3	398.4	345.8	306.5	346.0	369.9	219.9	152.7	141.2	219.6	447.3	1270	7186	8410	369.9	15.93	6.703	5.079	4.164	3.386	2.353	1.957	2.218	2.134	1.930	1.956	2.112	2.033	2.169	2.667	2.806	3.576	3.862	4.041	3.731	3.968	4.459	4.126	4.076	3.402	3.070	2.965	3.003	3.253	2.995	3.037	3.192	3.367	3.347	3.380	3.367	3.555	3.296	3.373	3.534	3.488	3.292	3.273	3.402	3.165	3.242	2.800
365.0	985.9	1167	1240	1155	980.5	752.8	635.5	600.7	595.0	604.2	609.2	613.5	597.4	559.9	514.5	453.5	401.1	356.6	317.1	309.9	374.0	325.0	188.9	142.4	130.1	157.1	325.8	2069	8273	7226	297.5	11.40	6.264	5.016	3.814	2.878	2.084	2.284	2.112	2.186	2.114	2.168	1.937	2.237	2.490	2.961	3.318	3.621	3.821	3.476	3.785	4.388	3.935	3.977	3.409	3.346	3.138	3.027	3.006	2.941	3.151	3.043	3.359	3.028	3.330	3.278	3.331	3.208	3.226	3.245	3.205	3.227	3.434	3.278	3.149	3.274	2.963
370.0	1027	1165	1206	1125	977.1	797.8	684.5	640.9	612.5	613.7	609.6	606.4	582.7	551.5	510.5	464.1	424.6	390.9	359.5	336.8	341.2	376.6	311.5	196.1	142.6	120.6	134.0	509.8	2339	6093	5794	1349	22.02	7.445	4.884	3.535	2.403	2.397	2.347	2.284	2.222	2.253	2.176	2.364	2.591	2.944	3.104	3.576	3.597	3.463	3.706	4.387	4.097	4.090	3.572	3.480	3.313	3.220	3.225	3.188	3.228	3.221	3.411	3.199	3.343	3.353	3.324	3.091	3.236	3.305	3.174	3.161	3.269	3.288	3.027	3.083	3.198
375.0	1147	1237	1219	1144	1030	898.0	784.4	718.9	661.9	639.8	622.0	602.0	577.2	562.9	522.9	485.6	463.5	442.6	422.0	401.1	373.2	368.7	398.4	327.5	203.2	157.4	129.7	189.1	579.3	1435	4033	9999.9	2139	27.01	7.654	4.691	2.764	2.864	2.719	2.532	2.455	2.653	2.327	2.682	3.039	3.281	3.386	3.857	3.829	3.629	3.639	4.276	4.332	4.311	3.783	3.552	3.663	3.529	3.725	3.501	3.624	3.336	3.494	3.388	3.341	3.243	3.438	3.215	3.323	3.603	3.420	3.338	3.441	3.501	3.098	3.440	3.411
380.0	1272	1371	1322	1208	1151	1034	904.6	812.9	724.6	681.9	637.8	617.2	587.6	575.4	542.2	523.2	507.1	496.6	490.5	474.5	442.0	413.8	419.1	432.5	301.7	213.9	168.7	151.6	212.8	381.7	1057	7026	9999.9	330.2	18.64	6.203	3.618	3.296	3.108	2.935	2.997	2.751	2.871	2.995	3.516	3.456	3.808	3.997	3.970	3.856	3.961	4.476	4.556	4.728	4.364	4.274	4.351	4.259	4.257	4.135	3.745	3.707	3.710	3.441	3.391	3.262	3.446	3.153	3.437	3.377	3.597	3.286	3.692	3.522	3.410	3.803	3.751
385.0	1577	1599	1499	1375	1295	1192	1086	962.8	829.9	727.4	674.9	642.3	617.3	603.3	587.9	577.0	576.7	579.1	575.9	565.6	540.8	505.4	477.0	486.5	440.0	307.4	230.7	188.7	167.7	173.6	296.2	1945	8668	9006	279.4	10.72	4.619	4.183	3.621	3.298	3.486	3.246	3.390	3.616	4.063	4.233	4.514	4.524	4.452	4.126	4.316	4.774	5.071	5.153	5.012	5.159	4.982	4.877	4.631	4.420	4.376	4.011	3.715	3.567	3.705	3.340	3.491	3.311	3.576	3.507	3.482	3.555	3.623	3.880	3.548	3.718	4.162
390.0	2125	2110	1922	1713	1620	1543	1431	1248	1023	856.1	749.0	702.8	667.5	672.9	666.2	673.7	702.5	717.5	740.3	732.9	719.0	682.3	627.6	591.8	574.4	501.3	372.5	289.7	232.5	182.2	163.3	497.0	2391	7309	7895	1103	18.20	6.169	4.919	4.480	4.308	4.541	4.431	4.663	5.187	5.619	5.732	5.990	5.645	5.017	5.105	6.143	6.130	6.281	6.285	6.515	6.466	6.490	6.164	5.985	5.268	4.886	4.485	4.292	3.989	3.704	3.753	3.510	3.729	3.595	3.774	3.815	4.103	4.168	4.166	4.273	4.872
395.0	2736	2751	2476	2135	2030	1991	1857	1617	1272	1015	858.6	786.0	751.0	762.6	773.1	798.3	845.5	900.9	932.6	952.3	928.1	892.6	837.6	776.9	713.5	676.1	575.8	428.2	331.6	251.7	181.4	204.4	589.9	1712	4637	8040	1668	24.95	7.491	5.819	5.422	5.766	5.795	6.058	6.744	7.264	7.153	7.796	7.275	6.144	6.310	7.543	7.339	8.021	8.139	8.344	8.550	8.305	8.251	7.533	6.626	6.072	5.588	4.905	4.714	4.134	4.170	3.959	3.928	4.142	4.135	4.357	4.533	4.874	4.827	5.160	5.848
400.0	3243	3328	2893	2493	2350	2316	2173	1884	1459	1144	950.4	864.3	831.3	835.1	859.6	894.1	954.4	1028	1074	1106	1096	1052	996.1	930.9	842.9	768.8	708.4	568.2	419.8	316.0	223.3	164.3	204.1	427.3	1186	5160	5992	287.3	19.57	7.363	6.669	6.679	6.525	7.043	7.783	8.558	8.296	8.894	8.298	7.069	7.358	8.590	8.610	9.238	9.424	8.999	9.887	9.345	9.096	8.742	7.381	6.845	5.914	5.618	5.021	4.699	4.400	4.079	4.066	4.029	4.283	4.569	4.713	5.279	5.394	5.864	6.192
405.0	3611	3723	3214	2789	2590	2600	2454	2108	1630	1251	1040	939.2	898.4	901.3	931.1	974.1	1041	1124	1184	1223	1220	1169	1121	1045	951.4	859.2	775.2	682.7	509.7	374.5	265.9	177.0	134.8	152.4	304.9	1405	4749	5459	249.1	12.00	8.113	7.354	7.359	7.708	8.440	9.766	9.340	9.915	9.070	8.384	7.998	9.277	9.438	10.35	10.55	10.18	11.03	10.15	10.38	9.645	8.115	7.328	6.773	5.781	5.181	4.590	4.636	4.133	4.574	4.638	4.734	4.715	5.108	5.635	5.871	6.067	6.728
410.0	4017	4086	3540	3012	2835	2821	2712	2344	1808	1380	1121	1005	956.2	958.7	985.3	1034	1121	1202	1275	1323	1316	1276	1228	1150	1051	947.4	831.6	741.5	620.1	450.5	315.1	211.6	140.8	105.9	117.3	349.5	1275	3906	5122	1007	19.79	8.907	8.434	8.436	9.447	10.29	10.08	10.83	9.851	8.868	8.854	10.22	10.24	10.89	11.18	11.16	12.04	11.64	11.33	10.33	9.421	8.145	7.010	6.144	5.676	5.056	5.197	4.729	4.634	4.837	4.847	5.048	5.588	5.916	6.190	6.382	6.810
415.0	4260	4333	3674	3119	2982	2987	2864	2490	1923	1436	1155	1025	976.3	978.0	1014	1057	1144	1231	1319	1356	1356	1315	1261	1189	1099	991.9	866.4	751.7	651.6	527.8	357.9	237.5	155.3	105.4	83.07	118.5	313.4	908.1	2834	5851	1589	22.91	9.634	9.203	10.21	10.81	10.59	11.56	9.999	9.417	8.963	10.92	11.06	11.49	11.44	11.97	12.51	12.33	11.94	10.90	9.984	8.266	7.672	6.361	5.980	5.159	4.975	4.788	4.749	5.120	5.028	4.882	5.760	5.703	6.211	6.608	7.090
420.0	4268	4270	3654	3138	3032	3038	2966	2571	1956	1474	1163	1018	971.2	966.3	1000	1057	1135	1230	1311	1346	1349	1311	1252	1186	1097	991.3	867.7	747.7	638.5	543.7	394.7	253.4	167.5	113.1	81.14	70.73	101.4	224.2	717.1	3815	6033	259.5	16.13	9.646	10.40	11.29	10.93	11.43	10.67	9.355	8.924	11.07	11.05	11.62	11.57	12.32	12.94	12.66	12.60	11.06	10.39	8.900	7.623	6.593	6.148	5.377	5.075	4.810	4.859	4.842	4.900	5.131	5.189	5.603	6.304	6.438	7.172
425.0	4167	4241	3597	3128	3020	3053	3001	2577	1991	1485	1148	1022	954.5	956.2	986.5	1042	1111	1205	1280	1321	1308	1271	1223	1166	1077	978.1	860.0	743.3	623.9	526.5	426.2	278.1	179.2	119.0	86.32	66.32	57.71	73.34	177.5	1045	4786	4476	202.1	11.75	10.70	11.47	10.75	11.65	10.38	9.302	9.100	10.92	10.72	11.49	12.12	12.40	12.86	12.75	12.44	10.97	10.47	9.006	7.895	6.762	5.862	5.238	5.001	4.911	4.859	4.665	4.906	4.874	5.644	5.706	6.079	6.484	7.295
430.0	4213	4075	3549	3069	3028	3130	3072	2679	2034	1493	1155	1012	945.7	940.3	963.4	1020	1089	1174	1240	1262	1246	1202	1162	1107	1030	942.6	839.0	729.0	614.5	511.7	419.2	319.5	208.4	139.6	100.6	74.14	55.40	45.23	59.76	248.5	1283	3527	2981	767.9	19.40	11.56	10.69	11.32	10.42	9.009	9.031	10.87	11.20	11.83	12.25	12.62	13.23	13.29	13.09	11.64	10.71	9.003	8.080	6.486	5.965	5.314	4.865	4.714	4.618	4.628	4.783	4.893	5.389	5.590	5.945	6.426	7.106
435.0	5005	3865	3386	3007	3014	3160	3149	2768	2073	1503	1151	999.8	938.3	922.8	944.1	1001	1054	1135	1184	1200	1169	1122	1086	1037	968.8	894.4	802.2	711.9	607.6	503.4	407.9	331.0	250.9	164.8	115.4	85.99	64.18	45.72	37.59	72.95	299.3	819.0	1932	3662	1223	22.59	11.16	10.78	10.05	9.049	8.775	10.71	10.70	11.86	12.17	12.81	13.37	13.64	13.68	12.08	10.80	9.202	8.037	6.488	6.101	5.361	4.875	4.703	4.365	4.752	4.787	4.885	5.324	5.446	5.891	6.250	6.821
440.0	5786	3864	3271	2910	2945	3173	3203	2793	2117	1492	1130	968.0	913.6	898.1	922.6	968.6	1020	1094	1140	1149	1101	1049	1017	971.7	911.2	845.9	772.9	684.4	593.0	499.0	403.3	322.3	263.9	191.1	128.0	95.37	69.69	49.56	35.29	35.33	81.50	195.2	507.5	2551	3916	230.3	15.87	10.90	9.752	8.973	8.868	10.40	10.81	12.08	12.09	12.97	13.70	13.92	13.63	11.96	10.73	9.486	8.221	6.356	6.175	4.936	4.805	4.258	4.437	4.522	4.550	4.886	5.000	5.395	5.712	6.044	6.839
445.0	5886	4298	3118	2837	2875	3157	3163	2836	2099	1467	1093	940.9	884.2	867.8	877.7	927.0	983.8	1043	1085	1081	1024	973.4	939.9	906.0	854.7	795.5	731.6	653.9	571.5	489.1	398.4	314.0	258.5	209.3	144.5	103.1	74.97	53.33	36.43	28.65	33.79	56.71	125.0	724.1	3301	3410	172.0	12.46	9.652	8.622	8.512	10.19	10.73	11.85	12.11	12.86	14.08	14.40	13.81	12.35	11.16	9.499	8.085	6.636	6.039	4.822	4.506	4.358	4.311	4.408	4.411	4.948	4.790	4.973	5.662	5.586	6.909
450.0	4589	5504	3132	2658	2753	3015	3119	2769	2042	1393	1026	879.6	823.4	822.0	827.5	870.8	927.0	966.9	1000	985.1	919.8	860.0	832.9	807.4	767.6	721.5	661.7	602.5	536.3	464.0	382.5	303.9	243.2	202.7	164.4	115.5	78.72	55.71	39.45	29.35	24.94	25.96	39.26	172.1	908.7	2801	2506	689.9	16.01	8.561	8.217	9.728	10.37	11.14	11.69	12.42	13.73	13.76	13.82	12.24	10.89	9.291	7.523	6.342	5.708	4.802	4.421	4.235	4.125	4.029	4.454	4.507	4.481	4.734	5.258	5.518	6.029
455.0	3082	5494	4049	2472	2588	2865	2979	2629	1933	1305	949.5	816.0	759.3	749.8	762.8	801.2	845.8	881.6	900.7	874.8	803.8	749.4	717.2	701.9	672.2	639.4	590.9	543.9	490.3	428.9	358.6	291.6	233.5	185.0	161.4	131.9	86.37	58.31	41.84	30.56	24.15	20.25	20.59	48.47	212.4	654.2	1508	3175	207.0	17.50	8.302	9.327	9.742	10.86	11.03	12.14	13.09	13.45	13.57	11.87	10.17	8.656	7.299	5.913	5.070	4.451	4.162	3.976	4.204	3.959	4.137	4.191	4.179	4.588	4.794	5.379	5.510
460.0	2446	4284	5180	2449	2415	2682	2815	2515	1840	1224	888.2	758.4	705.7	704.2	711.2	738.8	779.0	807.2	822.3	798.0	717.7	664.9	639.0	628.0	602.7	576.6	538.7	497.9	454.7	404.2	341.3	277.5	222.5	178.3	148.0	134.1	97.49	62.65	43.08	31.28	24.29	19.79	16.61	21.31	56.93	155.5	385.9	2120	2509	176.2	13.38	9.280	9.246	10.13	10.28	11.10	12.51	12.64	12.47	10.78	9.769	8.459	6.649	5.780	4.764	4.417	4.145	3.605	3.781	3.637	3.885	3.838	4.057	4.155	4.337	4.939	5.441
465.0	2148	2980	5558	3004	2256	2525	2667	2378	1746	1150	829.5	699.3	650.4	655.7	658.1	684.7	720.2	740.9	752.6	725.3	646.4	592.8	571.6	561.9	542.9	518.7	490.2	454.1	417.7	374.7	321.5	267.6	210.8	170.2	135.8	121.4	103.0	67.86	44.48	32.72	24.23	19.97	16.65	15.89	22.91	44.26	95.30	592.9	2259	2416	151.1	11.04	9.218	10.11	9.893	10.44	11.74	12.36	11.52	10.52	9.151	7.921	6.552	5.163	4.480	4.315	3.752	3.350	3.458	3.420	3.526	3.451	3.837	3.935	3.962	4.421	4.885
470.0	1887	2177	4005	4507	2287	2260	2390	2124	1559	1029	736.8	629.0	581.8	577.1	581.3	602.2	631.4	648.8	656.0	626.3	554.3	505.7	486.2	479.1	467.1	448.8	423.7	397.0	368.6	333.5	289.0	244.3	195.4	159.2	127.0	105.6	92.27	74.40	49.27	33.04	25.19	20.32	16.87	14.81	15.06	19.07	29.78	140.6	624.4	1837	2071	652.8	16.87	9.439	9.341	9.614	10.78	11.12	10.63	9.649	8.266	7.201	5.972	4.901	3.952	3.661	3.214	3.178	3.050	2.975	3.119	3.281	3.369	3.491	3.758	3.951	4.161
475.0	1601	1744	2238	4673	3365	2004	2086	1869	1372	904.7	652.3	546.4	506.8	504.5	506.2	526.9	543.6	555.7	560.8	533.4	468.6	420.2	406.6	399.0	391.9	380.4	360.4	340.3	318.4	290.8	254.5	215.1	175.7	144.1	117.3	94.83	77.98	69.14	56.57	34.91	25.36	20.17	17.33	14.32	13.46	13.33	14.55	38.21	145.7	423.1	1199	2440	1038	19.63	8.664	8.907	9.643	9.817	9.767	8.405	7.612	6.150	5.107	4.406	3.505	3.287	2.912	2.883	2.796	2.626	2.740	2.815	3.042	3.042	3.252	3.440	3.793
480.0	1469	1554	1608	3403	4868	1942	1885	1686	1242	814.3	598.8	502.5	462.2	451.8	453.9	467.2	486.6	497.0	497.7	466.7	410.8	367.6	357.4	349.1	344.4	332.7	317.7	303.6	284.5	263.2	230.3	197.6	163.2	132.7	108.5	88.52	71.61	60.29	56.25	41.09	26.62	20.57	17.01	14.16	13.31	12.34	11.21	15.54	38.91	100.6	300.6	1441	2848	214.7	14.02	8.261	8.599	8.856	8.673	7.717	7.125	5.677	4.712	3.957	3.205	2.990	2.729	2.596	2.623	2.688	2.791	2.371	2.770	2.897	3.339	3.329	3.351
485.0	1344	1452	1362	2116	5354	2356	1723	1553	1125	755.4	550.9	465.3	423.7	414.4	414.2	423.1	448.3	445.9	445.9	416.2	366.1	330.0	315.1	311.4	305.7	297.4	285.0	272.5	259.5	237.6	213.4	181.1	150.7	126.4	101.7	82.99	66.73	52.98	49.14	45.55	29.98	20.96	17.08	14.53	13.11	12.38	10.66	10.78	15.22	28.39	73.18	388.6	2080	2850	172.2	9.924	8.218	8.201	8.323	7.365	6.385	5.701	4.599	3.590	2.993	2.644	2.671	2.369	2.625	2.318	2.556	2.401	2.507	2.658	2.867	2.994	2.870
490.0	1092	1303	1188	1346	3676	3577	1687	1346	1005	672.7	488.3	414.9	378.4	365.2	364.3	369.9	388.6	388.5	387.2	360.3	315.4	284.0	272.3	268.7	265.1	257.2	246.9	240.8	228.1	210.3	188.4	161.9	136.1	114.6	93.42	76.11	61.11	48.98	41.54	40.40	35.06	23.83	17.41	14.80	13.24	11.93	10.90	10.31	9.844	12.02	21.76	92.62	540.7	1915	2004	667.9	18.26	7.827	7.505	6.785	5.775	5.071	4.070	3.258	2.835	2.474	2.351	2.324	2.251	2.120	2.156	2.131	2.333	2.331	2.460	2.718	2.755
495.0	890.4	1096	1051	1025	1799	3846	2407	1165	862.8	592.1	428.1	364.8	334.6	318.8	312.5	318.4	330.0	329.7	327.1	306.3	266.3	241.5	231.2	229.0	225.4	220.8	211.5	204.7	195.3	181.7	163.5	143.7	121.9	102.2	85.24	68.85	56.24	45.26	37.05	32.64	33.78	29.93	19.65	15.26	13.17	11.68	10.97	10.37	9.121	8.057	10.01	26.05	126.0	438.6	1087	2180	1082	21.42	7.055	6.052	5.310	4.473	3.544	3.424	2.720	2.409	2.122	2.113	2.070	1.876	2.094	1.957	1.964	2.004	2.056	2.381	2.214
500.0	786.2	946.4	978.3	898.7	1119	2870	3435	1152	765.8	532.4	388.7	326.3	304.2	282.3	278.6	282.4	288.2	290.8	288.0	266.1	237.0	208.2	203.1	201.7	195.8	193.9	186.3	181.4	174.5	162.0	148.2	128.5	109.5	91.70	77.17	64.60	52.20	41.56	34.36	28.71	28.93	30.27	22.69	15.51	13.52	11.39	10.85	9.863	8.987	7.393	7.229	11.16	33.43	102.8	268.5	1157	2446	233.5	14.28	5.786	4.924	4.190	3.418	2.986	2.330	2.186	1.890	1.909	1.939	1.813	1.884	1.761	1.915	1.971	2.040	2.096	1.980
505.0	697.0	827.9	889.1	820.6	890.5	1721	4137	1548	675.8	475.8	350.7	293.3	267.9	250.5	250.1	249.4	256.5	255.3	253.3	236.8	208.4	182.4	179.3	175.8	175.8	169.5	165.3	161.3	152.9	142.6	132.6	114.7	98.63	82.74	69.97	58.87	48.29	39.58	32.73	27.21	24.73	26.50	25.59	17.69	13.41	11.42	10.43	9.565	8.842	7.832	6.816	7.428	12.79	28.37	65.49	299.6	1624	1888	197.6	9.082	4.881	3.791	3.033	2.632	2.088	2.077	1.954	1.876	1.710	1.658	1.685	1.657	1.713	1.758	1.485	1.848	1.906
510.0	576.7	661.6	738.5	724.5	722.3	988.1	3007	3107	729.1	405.9	308.2	257.1	234.2	215.6	211.7	211.1	216.0	214.0	210.9	197.7	173.5	152.2	149.7	148.3	146.0	142.7	139.4	135.0	128.5	121.9	112.4	97.91	85.04	72.07	61.31	51.67	43.24	35.77	29.94	24.78	21.37	20.90	23.20	20.82	15.08	11.63	9.933	9.288	8.218	7.533	6.992	6.682	7.803	11.32	19.65	71.82	417.0	1202	1913	662.8	15.56	3.791	2.688	2.478	2.032	1.831	1.694	1.628	1.484	1.369	1.473	1.442	1.514	1.462	1.413	1.623	1.635
515.0	458.8	557.0	580.8	639.5	613.0	684.9	1351	4082	1624	353.2	259.5	222.5	199.3	181.5	175.3	177.4	178.1	175.2	174.4	161.6	140.5	126.7	124.6	121.6	120.5	118.8	115.5	111.7	108.4	102.9	95.17	82.81	72.64	61.50	52.76	44.71	38.09	31.75	25.98	22.22	19.51	17.52	17.35	20.11	17.60	12.46	9.980	8.875	7.785	7.080	7.088	6.650	6.437	7.192	8.651	20.07	96.86	273.5	894.9	1841	940.4	20.32	2.962	2.239	1.890	1.748	1.533	1.434	1.295	1.247	1.239	1.353	1.304	1.330	1.338	1.249	1.536
520.0	401.6	472.4	473.5	539.5	560.2	569.0	758.0	3155	3164	432.1	230.8	200.3	174.0	162.8	155.1	153.1	153.4	150.3	150.0	139.3	119.8	109.1	106.0	106.0	103.3	102.1	100.9	97.45	94.23	89.32	81.81	72.63	62.21	53.82	47.24	40.34	34.15	28.67	24.06	21.06	18.05	16.18	14.77	16.83	18.42	14.31	10.36	8.638	7.491	6.795	6.325	6.548	6.189	5.991	6.039	8.429	25.71	64.69	214.7	882.2	1929	239.8	12.91	2.410	1.761	1.787	1.504	1.430	1.300	1.202	1.279	1.152	1.251	1.130	1.219	1.209	1.266
525.0	341.8	411.9	407.9	459.8	531.6	500.5	558.2	1637	4280	1036	209.2	176.3	152.7	143.2	135.0	133.3	132.0	130.1	130.8	120.2	104.5	95.87	92.48	94.24	91.52	88.83	86.67	84.12	82.09	77.18	71.91	63.05	56.65	48.37	42.02	35.73	31.37	25.66	22.13	19.59	16.62	14.86	13.56	13.40	16.30	15.71	11.32	8.604	7.427	6.338	5.860	5.745	5.949	5.715	5.578	5.708	9.400	18.04	51.35	217.0	1101	1625	206.6	6.744	2.003	1.611	1.540	1.420	1.249	1.153	1.184	1.038	1.020	1.155	1.118	1.122	1.253
530.0	302.6	342.0	346.4	350.3	456.8	439.1	432.6	677.6	3020	2991	413.6	152.3	132.5	121.8	113.9	111.7	111.0	108.6	107.4	101.2	86.71	80.15	77.02	77.37	76.10	74.73	72.86	71.12	68.27	65.27	59.68	53.41	48.16	41.70	35.75	31.27	26.78	22.94	19.55	17.62	15.11	13.77	12.03	11.09	12.23	14.23	13.20	9.287	6.958	5.987	5.747	5.440	5.441	5.616	4.907	4.518	5.472	7.160	14.48	51.20	269.0	831.7	1207	586.4	15.71	1.968	1.541	1.335	1.121	1.067	1.155	0.943	1.037	1.034	0.969	0.984	1.110
535.0	250.7	275.9	295.5	275.6	347.6	411.5	346.2	378.5	1066	4260	1637	138.9	113.7	104.0	94.63	90.09	90.99	87.32	87.10	81.11	71.21	66.14	62.67	62.70	62.61	61.18	59.60	59.67	56.91	53.81	49.79	45.08	40.43	34.54	30.50	26.79	22.96	20.07	17.68	15.23	13.37	12.04	10.78	10.21	10.15	10.86	12.43	10.61	7.488	5.778	5.439	4.910	4.675	4.786	4.872	4.339	4.074	4.217	5.814	13.67	62.03	187.8	421.7	1342	790.3	21.83	1.883	1.412	1.039	0.984	0.919	0.816	0.902	0.979	0.903	0.877	0.980
540.0	227.1	234.9	244.6	238.1	272.5	369.6	312.4	281.4	413.6	2857	4798	193.3	102.2	87.99	81.28	77.30	76.70	75.86	73.37	69.08	61.21	56.04	54.28	54.09	53.74	53.07	50.96	49.75	48.47	45.95	43.06	39.18	35.43	29.64	27.08	23.69	19.96	17.72	15.87	13.45	12.13	10.62	9.664	9.113	9.000	8.739	10.14	10.60	8.306	5.767	5.004	4.445	4.138	4.224	4.234	4.208	3.768	3.398	3.664	4.913	15.67	43.66	97.74	558.9	1301	247.6	19.14	1.507	0.988	0.883	0.888	0.883	0.876	0.849	0.756	0.744	0.860
545.0	199.6	211.0	219.8	197.3	222.3	310.5	295.7	230.2	238.2	1207	6533	742.7	91.40	75.75	71.72	66.67	66.96	64.05	64.43	59.96	52.18	49.02	47.32	46.42	46.29	45.29	43.85	42.18	41.98	39.97	37.26	34.63	30.10	26.52	24.09	20.62	17.89	15.87	13.38	12.05	10.95	9.477	8.735	8.460	7.729	7.106	7.661	9.467	8.751	5.788	4.580	4.125	3.883	3.777	3.780	3.979	3.654	3.195	2.985	2.878	5.084	11.34	23.36	132.3	615.7	1136	240.1	9.826	1.053	0.967	0.864	0.891	0.857	0.806	0.731	0.712	0.840
550.0	162.2	174.4	179.8	165.7	172.7	224.2	279.6	200.0	165.8	386.0	3919	2942	140.4	63.69	58.23	55.08	54.03	52.23	52.14	48.83	42.43	39.57	37.99	37.83	37.86	36.59	35.96	34.64	33.77	32.55	29.89	28.22	24.85	21.90	19.32	17.40	15.18	13.35	11.79	10.59	9.175	8.403	7.900	7.069	6.790	6.412	6.120	6.852	7.917	6.625	4.976	3.707	3.377	3.314	3.127	3.049	3.343	3.116	2.530	2.288	2.563	3.966	6.515	30.85	145.2	486.3	884.8	528.3	16.56	1.337	0.987	0.814	0.766	0.743	0.672	0.736	0.723
555.0	134.0	149.1	144.1	127.7	131.4	154.4	225.2	194.0	125.9	157.6	1108	4732	979.8	57.95	49.60	42.95	42.03	41.82	40.54	38.40	33.79	30.61	30.55	31.04	30.28	28.66	28.52	27.04	26.37	25.68	23.36	21.87	19.66	17.39	15.91	13.97	11.93	11.02	9.953	8.947	8.001	7.122	6.741	6.004	5.776	5.784	5.089	5.039	5.684	6.491	5.259	3.562	2.941	2.796	2.864	2.583	2.675	2.923	2.642	1.957	1.684	2.104	2.486	7.882	33.42	109.5	262.9	840.9	655.2	22.68	1.131	0.780	0.663	0.629	0.633	0.680	0.658
560.0	126.8	123.1	122.2	112.9	105.4	122.0	168.1	196.2	103.2	97.29	313.9	3117	2736	96.72	40.73	36.44	35.95	35.87	33.56	31.74	28.60	25.09	24.38	25.44	25.13	23.73	22.88	22.77	21.68	21.15	19.99	18.40	15.92	14.76	13.33	11.76	10.69	9.307	8.392	7.678	7.080	6.189	5.675	5.506	4.954	4.736	4.423	4.049	4.131	5.310	5.192	3.959	2.712	2.367	2.442	2.258	2.203	2.221	2.522	1.961	1.597	1.425	1.530	2.751	8.402	25.19	60.15	305.4	866.2	254.0	16.37	1.028	0.668	0.707	0.557	0.595	0.594
565.0	94.97	114.0	103.3	94.22	90.58	99.43	120.0	188.0	104.4	74.06	118.5	1137	3962	391.8	35.62	30.60	29.91	28.67	27.68	26.43	25.01	21.44	20.41	21.27	20.46	19.83	19.56	18.83	18.87	17.59	16.17	15.07	13.42	12.27	11.01	9.947	8.811	8.356	7.083	6.576	6.018	5.596	5.067	4.768	4.435	4.152	3.943	3.701	3.408	3.792	4.511	4.130	2.899	2.556	2.147	2.044	1.825	1.973	2.165	2.266	1.637	1.396	1.125	1.616	2.679	6.358	14.34	70.77	351.9	722.6	218.8	7.199	0.728	0.679	0.570	0.513	0.500
570.0	91.38	94.30	86.57	74.50	72.85	78.28	85.43	136.3	123.1	63.60	66.85	308.5	2546	1775	79.73	25.37	23.74	22.91	21.95	20.75	18.87	17.12	16.69	16.38	16.35	15.80	15.30	14.98	14.67	14.03	13.14	11.97	10.75	9.944	9.066	7.954	7.294	6.463	5.995	5.473	5.180	4.691	4.080	3.899	3.742	3.471	3.160	3.041	2.765	2.785	3.171	3.722	3.191	2.461	1.894	1.747	1.625	1.629	1.561	1.645	1.794	1.388	1.066	1.163	1.348	2.112	3.930	16.59	81.19	276.0	476.8	251.8	16.50	1.029	0.625	0.468	0.556
575.0	89.95	78.88	70.35	58.53	58.92	62.05	60.92	82.38	133.3	68.27	51.55	101.4	701.9	2682	699.6	22.72	19.73	18.56	17.19	16.62	15.79	12.87	13.27	13.06	12.54	12.61	12.08	12.09	12.00	10.80	10.84	9.731	9.100	8.075	7.674	6.564	6.155	5.276	4.794	4.493	4.164	3.690	3.392	3.355	3.184	2.853	2.785	2.457	2.413	2.276	2.235	2.579	3.035	2.556	1.833	1.560	1.478	1.453	1.251	1.233	1.465	1.648	1.303	1.049	0.923	1.107	1.573	4.368	18.72	62.10	130.4	383.0	262.1	23.60	0.903	0.465	0.493
580.0	72.22	71.97	64.26	52.62	49.43	52.49	53.31	59.76	111.9	85.49	44.34	52.01	186.7	1777	2016	45.88	17.24	15.59	14.40	14.50	12.58	11.54	11.28	10.88	10.80	10.48	9.942	9.794	9.841	9.349	8.703	8.109	7.642	6.748	6.366	5.678	4.854	4.450	4.170	3.920	3.611	3.173	2.947	2.871	2.709	2.400	2.590	2.155	1.960	1.958	1.714	1.999	2.666	2.748	1.896	1.451	1.444	1.203	1.179	1.040	1.039	1.476	1.522	1.059	0.820	0.868	0.925	1.615	4.758	14.39	29.92	128.1	387.8	239.8	16.85	0.675	0.489
585.0	72.01	72.66	58.20	46.07	42.23	44.29	43.69	47.53	78.30	103.8	42.08	38.24	66.51	670.4	2840	109.7	16.14	12.25	12.68	12.07	10.87	10.04	9.854	9.196	9.370	9.061	8.853	8.392	8.507	8.299	7.491	6.663	6.171	5.969	5.170	4.948	3.953	4.131	3.663	3.448	3.271	2.719	2.597	2.674	2.401	2.326	2.262	1.977	1.860	1.634	1.469	1.627	1.967	2.397	2.076	1.544	1.272	1.212	1.098	0.971	0.917	1.080	1.521	1.225	0.823	0.851	0.769	0.938	1.647	3.791	7.176	29.68	151.0	437.1	185.8	6.128	0.600
590.0	63.01	60.95	52.14	42.35	38.21	37.02	38.52	36.92	48.44	98.50	55.87	33.65	35.75	179.8	1760	1113	40.57	10.92	11.62	10.19	9.261	8.188	7.940	7.944	7.451	7.230	7.129	6.765	6.833	6.705	5.994	5.472	5.200	4.822	4.397	3.988	3.454	3.400	3.023	2.826	2.796	2.436	2.331	2.189	2.060	1.993	1.901	1.627	1.592	1.411	1.279	1.311	1.408	1.790	2.042	1.585	1.287	1.038	0.952	0.941	0.810	0.894	1.044	1.290	1.046	0.828	0.715	0.709	0.861	1.340	2.095	7.172	34.87	157.2	299.3	150.9	15.13
595.0	53.37	57.09	48.90	36.11	34.18	30.09	31.57	33.11	33.65	66.98	81.66	32.95	27.06	55.86	491.7	1691	329.6	10.05	9.779	9.012	7.859	6.870	6.448	6.439	6.117	5.795	5.657	5.411	5.332	5.026	4.742	4.293	4.236	3.927	3.598	3.170	3.021	2.742	2.550	2.162	2.380	2.111	1.813	1.928	1.799	1.494	1.416	1.453	1.300	1.231	1.142	1.075	1.118	1.225	1.592	1.823	1.320	0.973	0.848	0.715	0.737	0.762	0.774	0.887	1.184	0.919	0.682	0.628	0.632	0.723	0.919	2.016	8.202	35.42	79.41	216.2	237.8
600.0	49.54	49.84	45.89	32.89	28.70	29.53	28.97	29.02	30.86	45.58	88.53	39.39	24.12	27.76	127.9	1130	771.6	20.80	8.244	7.670	6.888	5.967	5.564	5.034	5.213	4.785	4.997	4.429	4.555	4.586	4.206	3.831	3.610	3.609	2.864	2.781	2.407	2.457	2.154	2.156	1.896	1.840	1.575	1.749	1.501	1.383	1.414	1.309	1.183	1.100	1.048	0.974	0.965	1.065	1.187	1.439	1.578	1.082	0.835	0.704	0.608	0.691	0.607	0.738	1.093	0.866	0.717	0.639	0.554	0.582	0.755	0.856	2.217	8.305	18.19	70.72	281.7
605.0	48.40	52.12	45.44	26.66	28.14	25.73	28.26	26.05	28.98	34.39	80.54	54.33	25.16	22.72	42.24	428.5	1405	74.41	8.499	7.067	6.292	5.181	4.725	4.422	4.272	4.345	3.839	3.982	3.994	3.780	3.388	2.926	3.139	2.923	2.647	2.384	2.382	2.073	1.861	1.746	1.626	1.564	1.379	1.510	1.325	1.290	1.218	1.123	1.059	0.969	0.919	0.993	0.875	0.892	0.889	1.198	1.397	1.149	0.778	0.757	0.651	0.550	0.675	0.588	0.747	0.861	0.927	0.633	0.525	0.528	0.593	0.600	0.882	2.233	4.469	16.37	110.3
610.0	52.61	43.29	38.93	23.94	26.57	22.50	26.77	26.96	29.82	32.80	58.02	74.26	35.20	23.36	24.79	117.2	979.0	608.2	26.28	6.408	5.838	4.369	3.889	3.966	3.784	3.621	3.488	3.396	3.306	3.173	2.883	2.547	2.608	2.470	2.129	1.925	1.813	1.833	1.680	1.570	1.376	1.417	1.296	1.209	1.158	1.152	1.059	0.948	0.977	0.810	0.736	0.781	0.761	0.721	0.765	0.843	1.143	1.085	0.909	0.757	0.663	0.643	0.664	0.510	0.595	0.728	0.879	0.851	0.681	0.586	0.508	0.476	0.630	0.920	1.352	4.024	25.46
615.0	56.20	39.38	32.58	32.01	23.80	21.32	23.75	27.19	27.77	31.89	42.95	72.18	48.05	24.05	21.36	38.17	290.8	999.8	320.1	6.712	5.160	3.790	3.498	3.185	3.202	2.811	2.944	2.665	2.719	2.633	2.303	2.264	2.104	2.037	1.611	1.568	1.636	1.604	1.468	1.213	1.298	1.105	1.154	1.058	1.102	0.978	0.902	0.867	0.859	0.658	0.691	0.722	0.629	0.705	0.673	0.596	0.726	0.877	1.040	0.726	0.642	0.586	0.562	0.539	0.546	0.597	0.624	0.885	0.856	0.617	0.457	0.529	0.444	0.527	0.717	1.213	6.009
620.0	49.75	39.55	33.51	29.47	21.48	20.65	23.02	24.32	27.34	28.36	35.14	59.48	61.58	25.27	19.96	19.87	81.35	744.7	1066	15.54	4.744	3.510	2.911	2.792	2.775	2.696	2.585	2.386	2.330	2.260	2.026	1.857	1.991	1.824	1.547	1.557	1.292	1.385	1.435	1.107	1.136	1.001	1.040	0.913	0.918	0.936	0.820	0.790	0.741	0.625	0.602	0.596	0.665	0.688	0.597	0.664	0.616	0.752	0.901	0.735	0.642	0.572	0.492	0.525	0.474	0.592	0.486	0.593	0.769	0.647	0.506	0.486	0.457	0.492	0.469	0.737	1.691
625.0	42.60	38.89	33.53	26.34	19.83	20.48	22.63	22.44	25.19	28.57	32.53	44.47	65.67	28.23	19.93	16.08	29.40	311.8	1723	63.02	4.716	2.986	2.800	2.467	2.569	2.245	2.138	2.093	2.126	1.972	1.724	1.791	1.478	1.579	1.363	1.389	1.241	1.163	1.105	1.123	1.081	0.891	0.864	0.808	0.798	0.805	0.822	0.766	0.680	0.626	0.608	0.515	0.603	0.615	0.548	0.569	0.564	0.577	0.763	0.772	0.684	0.512	0.502	0.529	0.480	0.554	0.527	0.500	0.682	0.884	0.579	0.464	0.506	0.453	0.457	0.450	0.711
630.0	43.42	36.38	31.46	28.45	19.85	20.02	21.62	21.52	22.89	26.51	30.22	35.49	56.77	40.40	20.12	15.00	15.95	84.44	1248	777.7	17.46	2.795	2.492	2.241	2.226	1.991	2.045	1.697	1.816	1.697	1.595	1.560	1.306	1.366	1.198	1.141	1.076	1.014	0.910	0.937	0.907	0.786	0.718	0.690	0.679	0.695	0.677	0.605	0.627	0.569	0.517	0.522	0.500	0.570	0.531	0.492	0.484	0.462	0.615	0.725	0.711	0.544	0.502	0.538	0.476	0.551	0.516	0.481	0.571	0.642	0.669	0.509	0.427	0.491	0.427	0.388	0.477
635.0	47.43	39.57	33.49	25.54	19.36	20.04	20.10	22.38	21.11	26.34	27.59	32.22	42.74	50.25	21.74	14.54	13.45	25.20	374.0	1470	193.1	2.860	2.359	1.927	1.888	1.807	1.700	1.535	1.616	1.629	1.305	1.248	1.368	1.049	1.097	0.949	0.928	0.990	0.745	0.794	0.677	0.756	0.682	0.692	0.582	0.554	0.597	0.565	0.592	0.492	0.460	0.496	0.434	0.498	0.480	0.432	0.441	0.394	0.479	0.554	0.679	0.526	0.500	0.556	0.443	0.544	0.531	0.482	0.555	0.481	0.617	0.621	0.511	0.502	0.427	0.378	0.508
640.0	52.73	40.25	30.55	23.48	17.72	18.80	20.07	21.91	19.80	25.22	29.69	31.64	33.13	49.81	26.96	13.82	12.24	12.28	95.04	1177	542.1	5.527	2.425	2.020	1.886	1.515	1.579	1.466	1.499	1.340	1.204	1.169	1.127	0.963	0.988	0.914	0.778	0.847	0.791	0.697	0.687	0.682	0.686	0.613	0.549	0.554	0.532	0.516	0.515	0.509	0.390	0.444	0.452	0.362	0.439	0.392	0.500	0.482	0.510	0.520	0.604	0.573	0.498	0.482	0.435	0.453	0.464	0.431	0.520	0.396	0.521	0.629	0.611	0.444	0.470	0.420	0.475
645.0	40.71	39.87	35.36	22.84	20.21	17.68	18.61	21.05	19.06	24.56	28.60	31.38	29.70	42.20	33.11	13.89	12.18	8.494	26.02	536.0	1230	30.38	2.524	1.801	1.811	1.458	1.394	1.247	1.305	1.109	1.027	1.071	1.064	0.924	0.843	0.792	0.727	0.829	0.708	0.624	0.531	0.620	0.693	0.601	0.530	0.517	0.574	0.531	0.461	0.457	0.405	0.368	0.441	0.403	0.409	0.388	0.420	0.484	0.443	0.373	0.550	0.569	0.506	0.569	0.463	0.386	0.389	0.486	0.445	0.442	0.478	0.548	0.728	0.549	0.482	0.361	0.423
650.0	42.39	44.92	38.82	25.35	20.21	17.35	18.95	19.68	18.54	24.97	27.22	28.63	29.13	34.10	38.28	15.33	11.55	7.977	10.54	156.7	1318	172.4	2.704	1.716	1.675	1.526	1.320	1.143	1.091	0.980	1.031	1.085	0.928	0.902	0.810	0.785	0.689	0.804	0.703	0.621	0.678	0.641	0.770	0.506	0.572	0.674	0.628	0.500	0.473	0.397	0.374	0.403	0.431	0.365	0.444	0.367	0.419	0.434	0.413	0.375	0.481	0.507	0.552	0.492	0.413	0.360	0.413	0.426	0.400	0.481	0.510	0.480	0.547	0.538	0.511	0.405	0.363
