Sample:	'1
File name:	T2025031415½ªÃÈÂ·.FD3
Run date:	'11:23:18, 03/17/2025
Operator:	Administrator
Comment:	'

Instrument
Model:	F-2700 FL Spectrophotometer
Serial number:	23B8-004
ROM Version:	4J14000 07

Instrument parameters
Measurement type:	3-D scan
Data mode:	Fluorescence
EX  Start WL:	220.0 nm
EX  End WL:	600.0 nm
EX Sampling interval:	5.0 nm
EM  Start WL:	230.0 nm
EM  End WL:	650.0 nm
EM Sampling interval:	5.0 nm
Scan speed:	12000 nm/min
EX Slit:	5.0 nm
EM Slit:	5.0 nm
PMT Voltage:	700 V
Response:	Auto 
Corrected spectra:	Off
Contour interval:	50.000

Peak integration
Integration method:	Rectangular
Sensitivity:	1
Threshold:	1.000

Peaks
No.	ApexEX/EM(nm)	Height(Data)
1	225.0/600.0	30.84
2	225.0/620.0	38.29
3	225.0/635.0	38.49
4	230.0/340.0	1983
5	230.0/630.0	36.65
6	240.0/265.0	358.5
7	240.0/385.0	2017
8	240.0/400.0	1695
9	240.0/525.0	240.2
10	245.0/270.0	362.6
11	245.0/535.0	202.0
12	250.0/275.0	462.0
13	250.0/545.0	160.4
14	255.0/280.0	547.8
15	255.0/565.0	131.8
16	260.0/285.0	509.1
17	260.0/575.0	100.9
18	265.0/585.0	94.03
19	270.0/600.0	83.81
20	275.0/305.0	1363
21	275.0/615.0	93.99
22	280.0/315.0	1375
23	280.0/330.0	1338
24	280.0/385.0	2307
25	280.0/405.0	1972
26	280.0/625.0	87.19
27	285.0/320.0	1384
28	285.0/635.0	71.81
29	320.0/360.0	398.0
30	335.0/385.0	738.2
31	335.0/405.0	818.3
32	355.0/385.0	1088
33	355.0/405.0	1132
34	370.0/405.0	1090
35	415.0/485.0	39.15
36	430.0/505.0	23.33
37	445.0/525.0	14.27
38	470.0/560.0	4.596
39	475.0/340.0	6.090
40	485.0/385.0	7.732
41	505.0/275.0	2.909
42	510.0/280.0	3.239
43	520.0/285.0	3.577
44	530.0/290.0	3.398
45	545.0/385.0	8.136
46	555.0/305.0	7.107
47	560.0/310.0	7.200
48	570.0/315.0	7.437
49	570.0/385.0	12.44
50	580.0/320.0	7.965
51	585.0/325.0	7.632

Data points
	220.0	225.0	230.0	235.0	240.0	245.0	250.0	255.0	260.0	265.0	270.0	275.0	280.0	285.0	290.0	295.0	300.0	305.0	310.0	315.0	320.0	325.0	330.0	335.0	340.0	345.0	350.0	355.0	360.0	365.0	370.0	375.0	380.0	385.0	390.0	395.0	400.0	405.0	410.0	415.0	420.0	425.0	430.0	435.0	440.0	445.0	450.0	455.0	460.0	465.0	470.0	475.0	480.0	485.0	490.0	495.0	500.0	505.0	510.0	515.0	520.0	525.0	530.0	535.0	540.0	545.0	550.0	555.0	560.0	565.0	570.0	575.0	580.0	585.0	590.0	595.0	600.0
230.0	42.59	938.4	1907	485.6	22.14	5.284	4.139	3.601	3.421	3.142	2.758	2.565	2.331	2.033	1.667	1.402	1.182	1.072	0.969	0.858	0.774	0.776	0.715	0.663	0.639	0.608	0.691	0.601	0.580	0.565	0.562	0.527	0.463	0.393	0.376	0.364	0.287	0.307	0.271	0.276	0.259	0.283	0.307	0.239	0.239	0.219	1.352	6.271	9.342	5.829	1.998	0.431	0.215	0.165	0.187	0.183	0.197	0.196	0.191	0.171	0.186	0.190	0.179	0.171	0.202	0.178	0.179	0.183	0.182	0.186	0.181	0.173	0.198	0.184	0.175	0.172	0.181
235.0	56.73	264.4	1417	2367	502.9	37.91	5.792	3.836	4.228	3.514	2.888	2.499	2.338	2.472	1.731	1.592	1.089	1.102	0.910	0.968	0.890	0.722	0.787	0.689	0.590	0.616	0.718	0.537	0.576	0.595	0.533	0.541	0.504	0.386	0.442	0.305	0.277	0.291	0.256	0.281	0.241	0.270	0.303	0.320	0.349	0.235	0.468	1.679	3.690	6.691	9.729	10.31	4.356	0.897	0.202	0.178	0.203	0.198	0.205	0.166	0.215	0.178	0.192	0.171	0.184	0.186	0.163	0.230	0.171	0.171	0.174	0.182	0.167	0.192	0.165	0.180	0.163
240.0	81.80	119.6	433.5	2229	2754	396.1	23.45	4.916	4.368	4.103	3.520	3.223	2.456	2.417	2.261	1.756	1.164	1.103	0.969	0.892	0.851	0.799	0.733	0.654	0.629	0.674	0.770	0.577	0.593	0.577	0.585	0.541	0.471	0.364	0.404	0.356	0.317	0.287	0.248	0.277	0.250	0.257	0.277	0.292	0.403	0.461	0.372	0.628	1.044	2.027	5.244	13.53	16.70	11.42	3.720	0.614	0.199	0.220	0.200	0.181	0.195	0.176	0.210	0.210	0.204	0.162	0.177	0.238	0.195	0.173	0.190	0.182	0.169	0.186	0.155	0.197	0.188
245.0	68.17	153.0	145.5	779.5	3146	2787	310.1	9.974	4.839	4.026	4.040	3.031	3.292	2.519	1.942	1.742	1.359	1.279	1.065	0.857	0.867	0.889	0.762	0.774	0.583	0.698	0.699	0.656	0.591	0.551	0.562	0.528	0.400	0.472	0.349	0.343	0.324	0.354	0.298	0.275	0.241	0.272	0.277	0.271	0.315	0.422	0.566	0.636	0.450	0.605	1.373	4.351	11.15	19.69	19.62	9.699	2.616	0.397	0.271	0.198	0.193	0.189	0.233	0.179	0.185	0.204	0.191	0.228	0.200	0.179	0.224	0.207	0.229	0.164	0.159	0.197	0.205
250.0	34.64	116.5	205.7	264.1	997.2	2891	3622	1072	59.29	6.003	4.873	4.012	3.442	3.018	2.296	1.774	1.496	1.316	1.089	0.939	0.897	0.966	0.784	0.785	0.606	0.672	0.640	0.712	0.704	0.521	0.520	0.568	0.475	0.463	0.346	0.342	0.327	0.275	0.316	0.303	0.302	0.264	0.283	0.263	0.279	0.279	0.362	0.656	0.765	0.723	0.701	1.244	2.829	5.968	10.86	16.60	20.82	18.19	10.14	2.748	0.386	0.206	0.252	0.219	0.215	0.208	0.204	0.214	0.183	0.165	0.186	0.194	0.193	0.185	0.157	0.183	0.210
255.0	27.75	42.69	148.2	309.4	308.0	725.3	2733	5447	1469	58.88	7.141	5.227	4.439	3.339	2.710	1.983	1.625	1.712	1.170	1.014	1.026	1.073	0.783	0.762	0.822	0.746	0.683	0.722	0.700	0.697	0.622	0.556	0.503	0.409	0.349	0.318	0.342	0.263	0.304	0.292	0.325	0.337	0.290	0.267	0.273	0.297	0.255	0.342	0.449	0.722	1.153	1.263	1.184	1.547	2.675	4.027	6.834	15.87	31.33	27.85	15.60	2.581	0.363	0.234	0.237	0.195	0.204	0.237	0.211	0.199	0.166	0.210	0.196	0.196	0.186	0.211	0.235
260.0	28.11	23.09	58.76	263.5	315.0	221.2	796.0	4268	5895	252.8	28.39	7.479	5.689	3.803	2.785	2.606	1.925	1.589	1.242	1.221	1.117	1.038	0.848	0.834	0.830	0.771	0.696	0.708	0.613	0.710	0.702	0.636	0.459	0.436	0.409	0.380	0.333	0.303	0.293	0.306	0.257	0.305	0.246	0.270	0.276	0.265	0.276	0.288	0.282	0.339	0.681	1.505	1.658	1.226	0.895	1.237	1.819	4.209	11.80	25.85	40.51	26.03	11.76	1.331	0.287	0.213	0.183	0.256	0.206	0.234	0.191	0.196	0.172	0.209	0.194	0.224	0.251
265.0	29.24	21.14	26.75	123.1	358.5	238.1	216.7	1370	5824	5556	202.7	15.14	6.927	4.490	3.432	2.893	2.118	1.620	1.503	1.306	1.158	0.926	0.975	0.770	0.869	0.897	0.673	0.729	0.798	0.783	0.652	0.652	0.526	0.426	0.402	0.367	0.293	0.321	0.341	0.279	0.287	0.332	0.311	0.295	0.301	0.261	0.258	0.250	0.253	0.229	0.355	0.764	1.533	2.115	1.592	0.775	0.656	1.214	2.962	7.195	18.66	34.99	44.83	22.92	6.933	0.643	0.210	0.295	0.234	0.214	0.219	0.236	0.242	0.224	0.211	0.212	0.247
270.0	33.12	28.84	25.78	47.42	172.7	362.6	273.4	359.7	1761	5121	6437	795.6	51.01	7.198	4.695	3.119	2.449	1.984	1.783	1.495	1.256	1.198	1.012	0.987	0.897	0.922	0.744	0.758	0.774	0.705	0.757	0.739	0.567	0.527	0.482	0.473	0.404	0.333	0.353	0.359	0.327	0.353	0.344	0.354	0.324	0.300	0.268	0.298	0.276	0.237	0.254	0.352	0.588	1.070	1.650	2.011	1.911	1.216	1.033	1.973	4.571	9.519	19.06	29.27	30.75	33.52	15.72	6.230	0.780	0.273	0.286	0.272	0.214	0.268	0.229	0.237	0.259
275.0	52.07	54.84	51.33	38.73	65.88	169.6	462.0	326.9	443.6	1246	4009	8882	1144	52.48	7.200	4.399	3.481	2.955	2.113	1.336	1.480	1.317	1.186	1.005	1.079	0.942	0.951	0.885	0.781	0.813	0.824	0.780	0.729	0.589	0.578	0.485	0.477	0.411	0.429	0.364	0.355	0.324	0.360	0.363	0.299	0.307	0.358	0.387	0.330	0.333	0.268	0.322	0.378	0.516	0.638	0.974	1.926	2.909	2.479	1.259	1.370	2.449	4.566	6.956	8.711	19.35	42.40	54.59	24.42	6.636	0.609	0.353	0.246	0.265	0.314	0.275	0.250
280.0	74.43	83.88	79.98	55.14	45.16	79.33	281.7	547.8	258.5	335.5	1093	5902	8614	840.4	26.05	6.407	4.446	3.342	2.319	1.879	1.998	1.333	1.152	1.141	1.083	0.868	0.932	0.968	0.820	0.761	0.820	0.826	0.686	0.632	0.603	0.539	0.504	0.486	0.510	0.327	0.372	0.399	0.410	0.415	0.415	0.533	0.435	0.457	0.495	0.352	0.287	0.334	0.370	0.439	0.418	0.537	0.794	1.739	3.239	2.965	1.671	1.024	1.513	1.982	2.446	4.896	12.99	31.47	51.63	33.20	20.08	3.684	0.358	0.303	0.288	0.299	0.349
285.0	105.5	133.0	113.9	68.72	49.41	59.45	122.6	447.8	509.1	189.7	330.6	1692	7244	7271	120.7	12.08	5.598	3.944	2.807	2.292	1.845	1.624	1.399	1.149	1.252	0.947	0.989	0.947	0.890	0.920	0.887	0.856	0.770	0.638	0.615	0.547	0.590	0.523	0.471	0.355	0.383	0.393	0.394	0.411	0.424	0.494	0.518	0.552	0.587	0.492	0.412	0.346	0.453	0.418	0.376	0.447	0.565	0.828	1.519	2.749	3.577	2.519	1.119	0.994	1.039	1.620	3.456	8.070	18.15	36.10	57.17	31.21	14.72	1.523	0.329	0.303	0.351
290.0	142.3	177.0	165.6	110.4	73.81	68.75	89.93	204.5	500.0	475.5	241.4	515.0	2029	5479	6291	1822	34.24	6.213	3.719	2.744	2.341	1.873	1.543	1.281	1.321	1.164	1.043	1.091	0.993	0.888	0.975	0.859	0.748	0.663	0.642	0.623	0.563	0.517	0.536	0.489	0.447	0.464	0.435	0.521	0.508	0.643	0.611	0.701	0.688	0.580	0.506	0.514	0.509	0.473	0.438	0.506	0.559	0.578	0.785	1.189	2.000	2.939	3.398	2.758	1.710	1.243	1.551	2.557	4.787	9.294	19.41	28.61	40.75	37.57	20.68	10.64	1.969
295.0	171.5	240.8	241.1	161.7	117.4	109.5	128.4	173.4	285.1	605.3	715.2	391.4	639.4	1373	3278	7699	695.7	38.75	5.793	4.009	2.652	2.559	1.798	1.649	1.364	1.170	1.109	1.164	1.019	0.978	0.906	0.944	0.763	0.751	0.644	0.603	0.634	0.628	0.600	0.486	0.561	0.551	0.493	0.536	0.604	0.657	0.733	0.793	0.902	0.718	0.604	0.675	0.604	0.651	0.657	0.686	0.708	0.694	0.741	0.985	1.199	1.468	2.113	3.324	4.713	3.328	2.136	1.683	2.356	3.111	5.213	7.195	10.20	15.01	34.09	55.96	32.33
300.0	217.4	294.4	315.2	241.8	188.4	193.9	221.4	274.8	324.2	542.2	1025	767.9	495.9	550.1	967.9	4620	5725	563.2	20.72	5.471	3.750	3.064	2.106	1.841	1.460	1.201	1.275	1.166	1.177	1.021	0.933	1.013	0.868	0.706	0.849	0.676	0.616	0.693	0.637	0.516	0.491	0.479	0.529	0.553	0.670	0.841	0.883	1.146	1.130	0.963	0.885	0.950	0.923	1.028	0.991	0.966	1.170	1.229	1.259	1.383	1.539	1.789	2.110	2.707	4.405	5.472	4.991	3.202	2.645	2.534	2.708	2.941	3.618	4.504	9.986	25.19	47.85
305.0	279.8	402.6	421.1	336.6	295.3	309.0	376.1	463.5	561.8	724.9	1060	1363	849.0	584.8	565.5	1449	5376	4932	78.26	10.65	4.777	3.552	2.453	2.113	1.748	1.551	1.380	1.270	1.204	1.058	1.175	1.056	0.907	0.743	0.827	0.737	0.704	0.655	0.606	0.542	0.584	0.548	0.671	0.607	0.852	0.916	1.006	1.350	1.409	1.160	1.111	1.286	1.330	1.245	1.450	1.550	1.818	1.922	2.294	2.177	2.486	2.918	3.051	3.665	4.187	5.204	6.689	7.107	5.854	3.883	3.126	3.409	3.047	3.184	4.193	7.370	15.06
310.0	327.0	498.4	558.5	462.3	402.8	429.7	514.2	622.8	727.1	877.1	1064	1348	1371	902.1	626.2	665.4	1678	4016	4716	1486	25.46	5.162	3.466	2.574	2.084	1.775	1.460	1.349	1.251	1.216	1.228	1.118	1.014	0.867	0.840	0.737	0.681	0.722	0.738	0.693	0.609	0.607	0.756	0.777	0.831	1.071	1.272	1.700	1.773	1.515	1.566	1.629	1.692	1.678	1.864	1.904	2.235	2.684	2.916	2.993	3.234	3.582	3.978	4.301	4.568	4.986	5.849	6.607	7.200	7.070	5.795	4.606	3.570	3.613	3.425	3.905	5.376
315.0	381.9	624.5	709.9	604.0	517.9	531.8	616.2	732.5	825.2	978.2	1144	1291	1375	1362	839.8	573.8	712.4	1109	2430	5930	510.2	28.60	4.734	3.256	2.720	2.108	1.878	1.546	1.321	1.386	1.296	1.306	1.015	0.947	0.812	0.805	0.799	0.763	0.789	0.711	0.618	0.727	0.847	0.806	1.003	1.249	1.495	2.084	2.125	1.955	1.921	2.030	2.028	2.070	2.259	2.389	2.534	3.130	3.272	3.355	3.696	3.840	4.294	4.470	5.247	4.981	5.739	5.944	6.545	6.593	7.437	7.198	5.885	4.528	3.738	3.743	3.581
320.0	447.3	727.9	864.4	712.6	589.0	570.9	673.3	776.8	871.4	1021	1182	1315	1308	1384	1088	640.0	536.9	471.3	669.3	3407	5336	437.9	14.57	4.283	2.836	2.532	2.052	1.711	1.509	1.471	1.412	1.313	0.887	0.918	0.904	0.900	0.854	0.773	0.789	0.671	0.775	0.783	0.898	0.845	1.048	1.488	1.716	2.461	2.533	2.364	2.134	2.458	2.303	2.312	2.466	2.389	2.730	3.216	3.270	3.639	3.870	4.198	4.528	4.851	5.362	5.630	6.174	5.712	6.243	6.386	6.662	6.971	7.965	6.820	4.896	4.180	3.498
325.0	545.5	936.4	1152	895.0	692.8	613.0	694.7	790.8	889.7	1037	1195	1314	1316	1253	1241	807.6	518.8	347.1	255.4	941.6	4139	3764	60.85	8.121	4.089	3.039	2.483	1.934	1.635	1.582	1.508	1.501	1.069	0.974	0.978	0.851	0.844	0.767	0.705	0.793	0.681	0.711	0.907	1.000	1.239	1.891	2.236	3.046	3.255	3.127	2.778	3.126	2.693	2.573	2.618	2.664	3.055	3.204	3.549	3.733	4.098	4.038	4.732	5.277	5.487	5.661	5.841	5.788	6.294	6.305	6.375	6.258	6.978	7.632	6.548	4.933	3.913
330.0	664.9	1181	1559	1386	1008	743.9	727.9	812.0	887.7	1022	1187	1328	1338	1222	1113	974.7	677.4	367.6	208.6	303.4	1142	3089	3803	1223	21.37	4.095	2.923	2.258	1.936	1.754	1.694	1.523	1.241	1.002	0.993	0.807	0.864	0.802	0.780	0.671	0.788	0.834	0.957	1.094	1.461	2.023	2.587	3.667	4.373	4.285	4.203	4.477	4.040	3.495	3.146	3.003	3.209	3.296	3.678	3.691	3.895	4.171	4.621	5.092	5.376	5.593	5.819	5.913	6.128	6.676	6.458	6.174	6.059	6.319	6.268	6.021	5.856
335.0	722.1	1343	1846	1775	1379	924.8	783.5	815.6	879.3	1008	1175	1311	1324	1232	1060	895.3	846.4	518.2	253.8	203.9	354.6	777.4	2087	4988	421.1	23.98	4.023	2.923	2.583	1.936	1.942	1.730	1.270	1.151	0.987	0.921	0.954	0.846	0.860	0.760	0.803	0.951	1.031	1.105	1.664	2.319	3.014	4.253	4.981	5.166	5.222	5.947	5.446	4.663	3.949	3.251	3.328	3.296	3.686	3.558	3.836	4.026	4.588	4.744	5.191	5.234	5.699	6.027	5.993	6.457	6.628	6.266	6.284	5.959	5.422	5.411	5.583
340.0	729.5	1365	1983	1955	1476	1002	798.8	813.0	872.5	991.4	1132	1256	1278	1190	1034	828.6	753.3	648.5	323.5	199.9	194.4	262.1	575.6	3042	4535	372.0	11.96	4.072	2.885	2.113	2.139	1.663	1.365	1.153	1.014	0.882	1.013	0.931	0.945	0.730	0.836	0.878	0.983	1.144	1.544	2.355	2.970	4.347	4.973	5.325	5.599	6.090	5.864	5.242	4.177	3.362	3.359	3.440	3.712	3.823	3.924	4.232	4.173	4.771	4.902	5.043	5.723	5.635	6.012	6.102	6.213	5.973	6.264	5.811	5.399	4.624	4.874
345.0	708.9	1341	1915	1913	1481	997.0	791.5	803.6	839.9	957.0	1075	1183	1201	1133	983.3	780.0	646.7	627.1	440.6	227.3	169.8	159.9	200.7	847.2	3687	3196	52.90	5.915	3.478	2.583	2.262	1.883	1.395	1.101	1.033	0.824	0.924	0.925	0.826	0.657	0.827	0.976	0.879	1.214	1.490	2.177	3.070	4.277	5.172	5.093	5.666	5.881	6.014	5.301	4.088	3.372	3.331	3.229	3.473	3.601	3.752	3.896	4.062	4.703	4.852	4.914	5.462	5.490	5.886	5.706	6.072	5.763	5.851	5.417	5.189	4.721	4.846
350.0	666.6	1231	1802	1853	1513	1024	804.2	791.7	822.3	915.1	1006	1094	1106	1044	922.6	748.9	604.1	516.1	481.9	350.4	208.0	160.5	137.4	252.8	1020	2714	3201	1001	18.16	3.653	2.787	2.290	1.633	1.341	1.126	0.967	0.909	0.866	0.785	0.698	0.820	0.828	0.938	1.141	1.508	2.010	2.661	4.015	4.786	5.022	5.333	6.073	6.038	5.223	4.298	3.571	3.371	3.389	3.635	3.445	3.569	3.883	4.078	4.398	4.443	4.578	4.769	4.993	5.388	5.098	5.214	5.383	5.342	5.161	4.907	4.384	4.375
355.0	610.9	1119	1634	1731	1468	1050	824.9	794.9	826.9	895.3	962.9	1017	1018	964.0	861.7	716.6	589.7	482.1	407.1	423.7	316.4	189.0	144.5	138.1	276.6	651.8	1863	4141	386.7	20.16	4.368	3.162	2.102	1.566	1.241	1.114	0.990	0.849	0.898	0.780	0.764	0.919	0.940	1.030	1.357	1.917	2.371	3.338	4.113	4.583	4.904	5.675	5.695	5.242	4.256	3.875	3.531	3.234	3.553	3.628	3.673	3.725	4.037	4.231	4.564	4.404	4.437	4.623	4.734	4.879	4.944	5.131	4.867	4.682	4.617	4.423	4.185
360.0	584.4	1014	1466	1588	1396	1047	832.5	819.9	851.7	897.7	939.0	966.6	958.0	905.2	809.9	688.4	580.7	468.4	386.2	376.2	398.0	247.9	164.7	126.9	125.1	187.6	495.1	2737	3150	331.2	11.67	5.472	3.033	1.853	1.179	1.238	1.104	0.903	0.799	0.821	0.818	0.844	0.820	0.931	1.351	1.821	2.075	3.041	3.957	4.138	4.288	5.231	5.164	5.084	4.290	3.575	3.798	3.445	3.673	3.670	3.768	3.816	3.969	4.518	4.210	4.319	4.383	4.612	4.703	4.742	4.900	4.880	4.442	4.559	4.246	4.461	4.245
365.0	523.6	929.1	1341	1468	1336	1024	842.7	827.2	854.6	892.2	911.4	921.9	918.7	860.5	771.9	669.2	567.3	471.0	390.4	345.7	381.8	344.5	200.0	139.5	107.6	99.28	154.5	780.2	3305	2921	49.15	14.08	6.061	2.615	1.666	1.269	1.090	0.927	0.907	0.795	0.842	0.776	0.837	0.929	1.239	1.733	1.894	2.797	3.595	3.694	4.147	5.062	5.002	4.842	4.201	3.579	3.809	3.543	3.468	3.686	3.833	3.950	3.892	4.316	4.168	4.173	4.413	4.025	4.391	4.588	4.808	4.419	4.301	4.272	4.131	4.280	4.069
370.0	477.5	844.6	1246	1414	1372	1095	883.2	853.8	887.9	936.3	991.2	975.9	1046	912.9	750.7	652.4	564.3	485.6	413.9	361.0	351.2	376.6	330.3	234.4	175.7	157.3	193.8	332.0	1025	2746	3126	948.5	32.30	13.00	3.527	1.831	1.335	1.090	1.006	0.896	0.865	0.955	0.868	0.982	1.122	1.528	1.968	2.635	3.223	3.566	4.107	4.900	5.045	4.819	4.666	4.050	3.990	3.630	3.727	3.932	4.023	4.091	4.150	4.455	4.353	4.502	4.353	4.505	4.683	5.408	5.543	4.615	4.338	4.239	4.224	4.003	4.062
375.0	460.4	831.0	1285	1599	1676	1404	1011	928.3	999.5	1102	1321	1275	1643	1232	773.5	651.3	569.5	511.9	450.3	416.5	403.7	402.2	477.2	467.6	385.8	378.7	437.7	624.3	584.9	1023	2519	4381	1233	42.77	9.577	3.321	2.246	1.471	1.200	0.998	1.016	1.026	0.963	1.129	1.346	1.750	2.021	2.675	3.219	3.901	4.299	5.458	5.784	6.344	5.940	4.951	4.551	4.222	4.127	4.122	4.367	4.781	4.685	4.959	5.726	6.478	5.707	5.637	6.123	8.285	9.159	6.031	4.799	4.308	4.107	3.968	3.921
380.0	461.2	859.9	1375	1744	1951	1648	1121	1000	1096	1250	1590	1526	2115	1528	807.8	650.0	579.2	534.4	482.9	465.7	464.0	459.8	537.0	688.5	593.4	575.7	818.6	930.9	695.7	807.5	1517	3624	3742	296.9	18.34	5.023	2.880	1.742	1.329	1.091	1.124	1.023	1.112	1.125	1.464	1.567	2.076	2.771	3.467	4.062	4.753	6.246	6.639	7.611	7.151	5.850	4.900	4.435	4.339	4.501	4.648	5.171	5.131	5.702	6.901	7.779	6.779	6.813	7.358	11.01	11.07	7.318	5.263	4.399	4.161	4.046	3.966
385.0	494.8	845.6	1372	1768	2017	1759	1172	1033	1139	1308	1681	1627	2307	1670	813.8	650.4	579.3	543.2	500.2	492.3	501.1	495.9	567.5	738.2	730.8	685.1	978.9	1088	784.1	822.9	1318	1926	3422	2419	41.98	7.353	3.716	2.222	1.704	1.335	1.175	1.157	1.082	1.284	1.397	1.846	1.981	2.899	3.471	4.007	4.678	6.300	6.955	7.732	7.381	6.259	5.267	4.656	4.605	4.539	5.010	5.237	5.538	5.952	6.996	8.136	7.397	6.800	8.206	12.09	12.44	7.724	5.248	4.208	4.064	3.958	4.016
390.0	441.8	759.4	1200	1554	1754	1560	1097	982.6	1060	1182	1484	1430	1943	1455	772.1	633.3	571.5	533.3	502.8	494.9	504.6	496.1	542.6	645.0	660.8	673.9	854.3	908.1	658.9	666.6	1008	1125	1180	2220	2350	647.7	14.13	3.136	1.914	1.526	1.187	1.186	1.045	1.176	1.327	1.668	1.942	2.594	3.149	3.659	4.083	5.491	6.172	6.765	6.543	5.661	4.890	4.469	4.367	4.297	4.584	4.904	5.097	5.532	6.076	7.073	6.680	5.901	7.065	10.36	10.30	6.834	4.851	4.046	3.957	3.765	3.921
395.0	394.6	715.2	1128	1428	1662	1471	1087	961.4	1027	1157	1415	1377	1838	1379	765.9	628.4	588.0	553.8	531.5	537.0	554.4	550.3	592.8	673.1	657.0	703.4	911.6	910.1	659.9	656.6	947.5	949.2	529.9	602.6	1526	2862	273.8	14.92	2.939	1.963	1.524	1.318	1.070	1.264	1.318	1.521	1.769	2.371	2.776	3.275	3.753	5.092	5.768	6.419	6.509	5.504	4.781	4.305	4.176	4.315	4.414	5.040	4.815	5.029	5.989	6.743	6.205	5.672	6.544	9.640	10.07	6.534	4.585	4.030	3.980	3.554	3.921
400.0	389.0	695.4	1148	1432	1695	1523	1102	996.6	1073	1187	1486	1445	1953	1457	789.6	653.6	604.2	575.7	563.8	578.5	608.2	621.6	673.9	769.8	737.1	768.4	1034	1053	749.5	740.7	1054	1018	434.4	244.4	439.0	2000	2219	227.4	6.995	2.479	1.606	1.503	1.253	1.337	1.403	1.554	1.866	2.388	2.856	3.293	3.885	5.323	5.951	6.781	6.692	5.440	4.845	4.576	4.256	4.097	4.710	4.744	5.101	5.428	6.144	7.151	6.293	5.737	7.123	10.03	10.53	6.593	4.586	4.101	4.027	3.629	4.035
405.0	391.1	683.2	1125	1435	1659	1516	1110	1015	1077	1201	1509	1471	1972	1480	815.2	676.4	614.9	593.3	589.6	606.2	643.8	664.5	722.3	818.3	792.3	803.9	1057	1132	817.2	787.5	1090	1044	432.8	179.3	157.5	596.6	2202	1943	35.01	3.870	2.134	1.539	1.501	1.247	1.468	1.548	1.828	2.346	2.786	3.239	3.773	5.013	5.850	6.548	6.530	5.577	4.885	4.509	4.561	4.284	4.571	4.821	5.159	5.641	6.077	6.936	6.582	5.835	7.093	10.45	10.29	6.624	4.556	4.194	3.828	3.829	4.110
410.0	371.7	626.7	968.5	1234	1426	1343	1049	971.5	1012	1105	1324	1304	1649	1283	784.2	663.2	602.9	578.6	574.6	592.1	620.8	641.5	691.2	756.3	730.5	723.8	879.8	940.3	745.3	679.2	870.3	822.0	360.7	159.8	102.2	177.6	636.7	1671	1829	518.0	10.78	1.942	1.599	1.297	1.343	1.541	1.811	2.205	2.646	2.853	3.255	4.322	4.956	5.494	5.701	4.889	4.603	4.112	4.453	4.161	4.480	4.416	4.750	4.790	5.460	5.918	5.668	5.279	5.886	8.295	8.511	5.621	4.376	3.733	3.745	3.823	3.718
415.0	328.0	560.2	829.9	1042	1205	1159	975.2	920.0	931.9	992.8	1132	1112	1323	1074	727.2	629.4	576.7	556.2	540.2	561.5	584.3	598.4	634.9	670.8	647.6	634.8	712.8	728.1	613.4	589.2	661.8	604.6	289.0	147.3	90.37	86.20	170.7	401.9	1120	2141	244.5	11.79	1.906	1.498	1.390	1.491	1.737	1.822	2.547	2.462	2.864	3.972	4.224	4.768	4.873	4.372	3.877	3.878	4.139	3.959	3.984	4.119	4.226	4.353	4.793	5.180	4.773	4.690	4.696	6.249	6.745	5.005	3.980	3.803	3.290	3.575	3.647
420.0	298.4	513.5	780.7	982.1	1115	1088	942.5	898.4	908.7	941.9	1056	1032	1202	979.0	694.3	599.8	554.5	534.1	525.4	539.3	565.2	573.4	607.7	643.2	615.1	601.8	654.5	650.2	544.5	550.0	616.6	536.4	266.7	141.3	90.01	66.64	67.99	107.3	293.8	1446	1902	206.5	5.096	1.784	1.520	1.671	1.669	1.962	2.514	2.392	2.829	3.744	3.933	4.412	4.759	4.202	3.936	3.911	3.935	4.019	3.673	4.044	3.924	4.217	4.507	4.322	4.382	4.192	4.693	5.842	5.885	4.593	3.757	3.558	3.403	3.344	3.356
425.0	289.5	514.9	735.2	939.7	1075	1049	930.4	884.3	885.1	907.7	1015	987.6	1133	927.9	667.7	583.8	543.9	518.5	514.9	528.2	556.3	569.4	597.3	634.0	602.1	588.6	636.3	629.0	519.5	513.8	611.4	524.2	263.1	144.1	94.21	66.60	48.45	43.33	77.86	405.8	1637	1603	32.70	2.994	1.856	1.760	1.734	1.878	2.405	2.371	2.645	3.570	3.638	4.160	4.302	4.120	3.974	3.662	4.000	4.024	4.128	3.924	3.792	4.013	4.382	4.469	4.288	4.143	4.628	5.250	5.625	4.460	3.466	3.600	3.318	3.356	3.359
430.0	309.6	487.4	689.8	863.1	990.5	1007	922.6	893.2	865.6	878.3	958.2	924.6	1025	865.3	645.9	569.3	524.7	503.2	502.9	515.1	534.3	552.0	575.5	598.0	577.7	559.5	590.9	581.1	483.4	462.2	540.1	494.2	264.6	149.7	102.2	73.86	49.91	33.16	31.47	99.97	446.0	1230	1445	466.4	11.00	2.142	1.884	1.973	2.255	2.246	2.483	3.281	3.411	3.841	4.125	3.858	4.012	3.949	3.893	3.963	3.988	3.998	3.788	3.884	4.155	4.157	4.204	3.749	4.094	4.842	5.102	3.991	3.556	3.397	3.200	3.325	3.233
435.0	438.0	447.5	632.7	803.7	915.5	947.5	924.3	895.9	848.5	842.6	870.8	844.8	895.7	778.8	616.5	546.5	503.7	483.9	480.5	489.0	497.7	516.9	531.3	546.8	528.8	511.3	522.7	505.8	433.5	404.4	436.5	408.0	270.7	158.7	110.7	81.51	56.02	34.50	24.24	33.53	107.0	286.7	811.3	1832	238.2	13.30	2.232	2.219	2.272	2.172	2.276	3.028	3.118	3.639	4.125	3.733	4.157	3.917	3.715	4.005	3.786	3.995	3.715	3.668	3.652	4.044	3.821	3.388	3.568	4.242	4.227	3.549	3.190	3.094	2.973	3.043	3.067
440.0	676.1	461.1	598.0	751.6	876.2	925.9	912.1	891.1	835.8	813.2	812.3	782.5	805.5	708.7	582.3	524.3	483.4	466.0	457.9	462.1	463.5	475.9	488.4	504.4	487.5	469.9	471.2	452.9	394.0	368.9	376.2	342.9	254.1	173.2	115.5	82.50	59.48	37.34	24.54	20.42	33.32	70.72	206.6	1143	1724	208.1	7.407	2.398	2.111	2.053	2.310	2.724	3.186	3.601	3.736	3.550	3.901	3.833	3.983	3.969	3.669	3.758	3.756	3.471	3.649	3.520	3.395	3.150	3.335	3.628	3.742	3.444	3.046	3.009	2.729	2.987	2.945
445.0	860.9	561.2	564.7	716.1	826.3	905.7	909.4	884.8	824.0	768.0	771.7	730.9	745.1	655.1	548.3	497.2	460.2	440.7	434.0	435.6	431.2	439.1	449.5	460.9	449.9	435.5	430.4	415.4	365.8	340.6	339.7	301.2	225.2	179.7	122.7	84.13	59.68	39.14	26.27	19.38	17.72	23.27	52.21	309.1	1355	1537	151.2	4.153	2.396	2.088	2.296	2.779	3.034	3.456	3.612	3.595	3.853	4.012	3.898	3.809	3.644	3.601	3.532	3.371	3.478	3.251	3.341	3.147	3.230	3.543	3.231	3.120	2.909	2.900	2.523	2.962	2.616
450.0	603.4	1046	606.0	671.4	783.6	857.3	896.3	858.3	791.2	720.1	694.4	664.7	667.7	590.4	506.0	454.7	428.2	408.5	401.1	397.2	392.9	393.4	402.5	409.3	400.2	389.5	383.7	371.3	332.8	310.0	303.2	268.7	197.4	162.3	134.9	93.14	61.43	41.10	28.81	20.77	16.05	14.12	18.48	74.37	357.1	1042	1350	471.7	10.94	2.393	2.373	2.742	3.072	3.318	3.469	3.579	3.900	3.996	3.884	3.673	3.635	3.485	3.268	3.036	3.146	2.974	2.923	2.871	2.913	3.238	3.049	2.726	2.816	2.677	2.754	2.750	2.585
455.0	310.2	1215	997.5	638.6	727.2	823.2	847.8	827.4	736.5	664.1	625.8	590.2	588.4	529.4	454.6	413.3	386.9	371.5	364.8	358.3	350.4	349.9	351.9	361.0	352.9	341.9	336.5	329.2	296.9	278.1	268.7	237.6	177.3	140.6	126.3	106.0	66.93	42.66	30.09	22.80	17.31	13.39	12.09	22.49	84.93	239.6	592.5	1481	201.4	13.37	2.556	2.717	2.942	3.082	3.351	3.261	3.581	3.723	3.771	3.482	3.705	3.246	2.875	2.703	2.926	2.627	2.582	2.530	2.496	2.871	2.893	2.487	2.424	2.414	2.511	2.569	2.307
460.0	207.7	820.8	1585	672.1	679.3	767.3	800.3	781.3	702.5	618.8	580.5	545.3	533.7	478.8	417.2	384.8	358.1	345.2	330.7	330.5	318.2	314.4	317.0	323.6	316.2	307.7	302.5	293.3	269.4	256.3	242.4	214.3	162.4	129.6	110.2	102.4	76.63	45.75	32.20	23.81	18.33	14.21	11.81	11.67	24.45	58.11	143.5	771.1	1346	172.5	9.813	3.113	2.963	2.996	3.152	3.188	3.373	3.677	3.510	3.608	3.545	3.211	2.820	2.702	2.634	2.657	2.296	2.358	2.259	2.665	2.711	2.250	2.174	2.347	2.212	2.298	2.317
465.0	192.1	460.6	1843	879.4	631.3	714.5	761.5	740.4	668.4	571.0	531.5	505.5	484.7	436.0	384.7	352.8	329.7	315.1	304.1	298.9	289.2	283.3	286.1	290.5	283.2	276.4	271.5	265.2	243.7	232.2	218.6	195.6	152.3	122.6	100.4	90.88	80.72	52.37	33.56	25.10	18.99	15.24	11.67	10.29	11.33	17.95	36.54	196.1	911.8	1196	147.5	6.310	3.013	2.846	3.250	2.919	3.504	3.542	3.198	3.304	3.264	2.947	2.789	2.367	2.401	2.403	2.218	2.066	2.210	2.411	2.297	2.239	2.150	2.074	2.034	2.079	2.017
470.0	186.2	306.1	1134	1794	750.0	646.6	699.1	670.5	596.9	513.0	473.3	450.6	422.5	382.3	339.9	311.0	287.4	275.1	267.8	258.5	248.2	240.9	243.7	247.4	243.5	238.8	233.3	225.5	213.0	201.3	189.5	168.3	135.7	111.1	91.10	76.84	68.77	59.12	38.71	26.24	19.80	15.80	12.47	10.53	9.136	9.350	12.72	47.83	229.5	673.0	914.6	418.9	13.41	2.980	3.009	2.766	3.275	3.198	3.300	3.084	2.797	2.621	2.460	2.398	2.196	2.222	2.062	2.048	2.037	2.079	2.023	2.004	1.866	1.955	1.829	1.957	1.804
475.0	178.6	244.5	516.1	1831	1431	587.8	607.1	602.1	518.8	456.2	414.9	391.5	367.9	328.6	297.2	269.2	251.0	239.0	230.6	222.6	208.2	203.3	204.0	207.4	203.6	199.6	195.2	188.8	183.8	171.9	162.4	144.9	117.9	98.15	81.70	68.28	55.80	51.80	46.42	30.37	20.62	16.58	12.82	11.23	9.175	8.226	7.715	15.03	54.93	153.7	319.8	912.1	562.9	18.70	3.048	2.737	2.877	2.891	2.857	2.749	2.377	2.481	2.250	2.127	1.967	1.850	1.966	1.700	1.728	1.889	1.792	1.848	1.790	1.726	1.796	1.684	1.730
480.0	161.4	217.4	327.6	1154	2147	692.4	561.1	551.8	482.7	419.8	371.4	354.1	326.0	295.6	267.6	242.2	226.8	214.9	207.9	200.7	186.6	179.7	180.5	182.4	178.9	176.4	172.7	168.0	161.8	154.5	145.8	131.3	107.9	90.61	75.50	62.08	50.61	43.01	45.56	36.00	22.50	16.95	13.47	11.66	9.855	8.712	7.081	7.705	16.14	37.63	76.09	381.6	1022	209.2	13.37	2.741	2.913	2.719	2.512	2.601	2.383	2.189	2.004	1.968	1.702	1.788	1.799	1.562	1.417	1.718	1.676	1.706	1.430	1.683	1.524	1.543	1.554
485.0	146.7	219.3	286.2	623.8	2261	1113	514.7	494.9	446.9	377.6	343.3	322.2	297.0	271.1	245.5	220.5	205.0	197.2	188.4	182.0	168.8	161.9	161.4	162.2	159.5	158.7	155.8	152.0	145.2	141.3	133.5	121.2	100.3	84.20	71.44	58.90	47.63	38.74	37.99	39.15	26.98	17.23	14.17	12.14	10.08	9.048	7.371	6.301	7.598	11.73	20.08	93.36	537.9	955.5	180.0	8.386	2.764	2.551	2.482	2.444	2.247	2.041	1.981	1.861	1.584	1.645	1.719	1.587	1.618	1.519	1.611	1.526	1.281	1.492	1.451	1.468	1.487
490.0	120.7	227.7	274.0	372.2	1329	2025	645.8	449.5	391.9	337.8	308.5	292.8	265.4	242.0	217.8	199.0	184.2	174.2	167.3	159.8	147.4	141.3	142.0	143.0	141.1	139.2	135.3	135.4	129.3	125.3	117.9	106.9	90.53	77.17	64.74	54.81	44.63	36.08	31.67	33.06	31.68	21.67	15.15	12.07	10.53	8.858	7.554	6.525	6.052	6.079	7.479	23.77	130.2	439.2	769.0	470.7	16.02	3.000	2.364	2.320	2.090	1.939	1.915	1.633	1.609	1.493	1.536	1.547	1.447	1.392	1.446	1.378	1.274	1.278	1.324	1.331	1.308
495.0	93.12	199.4	281.6	285.3	585.2	1940	1369	408.2	349.3	298.2	270.0	258.2	234.3	210.8	190.9	172.1	162.2	152.6	144.8	137.6	125.7	121.6	122.3	123.0	121.1	119.8	117.5	116.0	111.6	108.9	103.3	92.37	79.28	68.68	58.74	48.94	41.21	34.06	28.70	25.98	28.24	26.97	17.61	12.14	10.45	8.828	7.834	7.080	6.073	5.171	4.801	8.356	31.69	100.7	254.1	800.2	635.5	22.90	2.432	2.046	1.958	1.826	1.641	1.527	1.517	1.426	1.363	1.333	1.196	1.203	1.235	1.293	1.073	1.089	1.235	1.117	1.305
500.0	84.59	172.2	280.0	256.6	357.2	1195	2111	497.0	312.5	267.7	250.1	229.1	211.7	190.7	169.6	151.6	145.5	134.7	127.7	121.0	113.4	106.1	105.5	107.9	106.3	105.6	103.8	103.3	99.55	96.61	91.78	83.07	72.38	62.21	54.78	45.68	38.41	32.02	26.95	23.53	23.13	26.25	21.66	13.96	10.65	8.896	8.164	7.184	5.925	5.369	4.566	4.816	9.678	24.84	59.87	301.5	917.0	232.4	17.29	2.088	2.004	1.476	1.732	1.441	1.487	1.196	1.107	1.290	1.185	1.155	1.128	1.163	1.058	0.970	1.106	1.034	1.018
505.0	85.89	140.3	265.8	252.4	276.4	599.0	2235	928.5	284.2	242.0	224.2	212.5	192.0	170.5	154.3	136.3	128.2	118.6	113.5	106.9	99.74	95.50	92.47	94.25	94.13	93.46	92.00	91.29	89.29	86.15	81.44	73.40	65.32	56.44	49.61	42.00	35.07	29.93	24.65	21.39	19.60	21.54	23.33	16.61	10.96	9.401	8.277	7.109	6.089	5.300	4.369	4.016	4.688	8.067	15.85	72.06	402.4	841.7	211.3	10.43	1.978	1.552	1.682	1.371	1.239	1.201	0.979	1.216	1.058	1.159	1.047	1.108	1.023	0.948	0.971	0.962	1.029
510.0	66.95	118.5	200.3	265.6	236.4	332.0	1281	1860	409.0	216.8	193.8	185.2	165.7	146.8	132.1	116.6	110.2	102.2	97.28	90.39	84.73	81.15	79.71	80.74	79.55	79.44	77.81	76.95	75.09	73.89	70.06	64.01	56.91	48.62	42.65	36.78	31.29	27.15	22.44	20.03	17.77	16.48	19.55	18.86	13.61	9.348	8.131	6.895	6.202	5.339	4.598	3.957	3.825	4.206	5.958	18.30	95.18	340.1	615.6	401.4	16.35	1.966	1.419	1.227	1.102	1.090	0.997	0.982	1.034	1.028	0.957	0.992	0.885	0.868	0.805	0.878	0.876
515.0	60.52	87.57	141.5	259.7	229.9	238.0	494.7	1878	1095	200.1	167.8	156.4	142.3	126.3	112.4	98.29	92.00	86.50	81.27	76.52	72.11	68.33	65.53	67.53	65.94	66.29	65.39	65.18	62.95	61.97	59.76	54.70	48.78	42.12	37.34	32.07	27.75	24.05	20.03	18.16	15.77	14.27	14.19	16.85	16.70	11.44	7.784	6.621	5.776	5.257	4.477	4.249	3.642	3.391	3.423	6.155	23.06	77.70	177.3	566.7	505.8	23.37	1.407	1.184	1.151	0.941	1.040	0.870	0.879	0.811	0.975	0.765	0.775	0.758	0.792	0.872	0.753
520.0	53.99	76.33	118.6	208.1	236.1	205.3	270.1	1140	1877	264.0	151.8	141.6	127.1	109.9	97.18	87.88	80.99	76.05	72.17	67.12	62.04	57.67	56.55	58.79	58.31	57.19	56.60	55.81	55.16	54.48	52.24	48.37	41.22	37.91	33.53	28.57	25.38	22.15	18.69	16.87	14.52	12.89	12.12	13.30	15.94	13.27	8.763	6.401	5.524	5.185	4.411	4.229	3.946	3.213	2.881	3.476	7.011	19.15	41.65	198.5	647.4	234.0	16.41	1.275	1.169	0.975	0.905	0.741	0.806	0.759	0.905	0.782	0.738	0.656	0.684	0.700	0.666
525.0	47.46	74.72	106.1	165.4	240.2	186.8	197.4	520.3	2149	674.7	138.6	127.0	116.9	98.38	86.71	79.04	72.48	68.74	63.54	60.52	55.02	52.89	49.61	51.62	51.40	50.67	49.56	49.10	49.37	47.59	47.01	43.27	38.67	33.59	30.08	26.00	22.66	19.92	17.54	15.58	13.25	12.34	10.97	11.00	13.36	14.27	10.12	6.528	5.353	4.906	4.231	3.851	3.889	3.407	2.616	2.652	3.341	5.810	10.92	47.23	268.3	601.2	198.8	8.225	1.084	0.847	0.871	0.783	0.773	0.738	0.784	0.781	0.639	0.707	0.702	0.585	0.563
530.0	47.43	66.52	92.32	115.5	202.3	192.3	158.5	232.8	1237	1671	201.0	109.7	100.7	86.18	74.63	67.35	61.92	58.23	53.84	50.86	47.50	43.97	43.12	43.65	42.29	42.73	42.91	42.34	41.43	41.48	39.49	35.81	32.41	28.98	25.60	23.14	20.04	17.64	15.74	13.80	12.26	10.96	10.04	9.689	9.974	12.17	11.62	7.965	5.284	4.580	4.017	3.623	3.407	3.192	2.834	2.594	2.558	2.925	3.962	11.94	62.99	232.8	435.1	299.7	15.31	1.141	0.860	0.791	0.691	0.730	0.683	0.679	0.595	0.656	0.659	0.600	0.570
535.0	42.59	54.17	69.67	86.98	145.4	202.0	140.2	147.2	409.7	1788	894.9	99.33	83.49	71.79	63.21	55.12	51.62	46.78	45.34	41.73	40.25	36.34	36.99	35.39	35.67	34.89	35.16	34.28	34.89	34.42	33.62	30.37	26.92	24.53	22.34	20.44	17.40	14.87	13.17	11.83	10.84	9.791	9.042	8.352	7.901	8.526	10.34	9.671	6.150	4.336	3.717	3.505	3.035	2.787	3.039	2.533	2.279	2.120	2.179	3.994	15.28	53.05	121.0	389.6	241.5	21.50	0.959	0.769	0.667	0.662	0.656	0.552	0.567	0.595	0.608	0.540	0.540
540.0	34.13	46.59	62.42	76.32	104.8	189.6	146.3	118.2	173.7	1039	1709	155.3	72.49	62.77	54.75	50.04	45.00	40.71	38.57	35.88	34.52	31.47	30.58	30.40	30.57	30.94	29.65	30.04	29.75	29.88	28.96	26.55	23.87	21.30	19.14	17.11	15.55	13.26	12.00	10.66	9.749	9.223	8.201	7.478	7.060	6.474	8.068	9.306	7.037	4.371	3.446	3.274	3.022	2.497	2.553	2.829	2.209	1.712	1.785	2.171	4.385	12.85	28.17	132.1	417.3	218.6	14.21	0.784	0.642	0.732	0.577	0.508	0.612	0.503	0.474	0.528	0.432
545.0	34.64	40.31	55.06	69.44	83.37	146.9	160.4	100.1	107.6	405.8	1975	453.4	66.65	53.71	49.34	43.08	40.10	36.14	33.39	31.49	29.00	28.98	26.60	26.97	27.09	26.78	27.03	25.99	26.93	25.47	25.79	22.55	21.27	18.27	17.11	14.83	13.57	11.52	10.59	9.352	8.834	8.254	7.255	6.841	6.263	5.857	6.064	7.863	7.470	5.267	3.395	2.852	2.766	2.375	2.130	2.429	2.558	1.645	1.548	1.492	1.933	3.886	7.330	31.18	170.8	422.1	169.3	6.019	0.669	0.622	0.543	0.501	0.484	0.398	0.452	0.462	0.424
550.0	31.99	39.34	49.27	56.64	65.09	99.72	157.8	96.48	81.01	148.6	1057	1366	113.8	46.29	40.36	35.07	32.15	29.61	27.96	25.47	24.53	23.02	21.96	22.92	21.97	21.75	21.24	21.24	22.26	20.93	20.99	18.88	17.13	15.68	14.14	12.67	11.46	9.707	9.155	8.084	7.502	6.808	6.286	5.858	5.368	5.069	4.611	5.324	6.393	5.767	3.883	2.690	2.331	2.133	1.959	1.911	2.157	1.979	1.581	1.200	1.352	1.726	2.488	7.781	39.93	156.1	291.7	138.3	14.37	0.922	0.516	0.519	0.435	0.451	0.399	0.447	0.386
555.0	27.24	36.12	43.41	49.30	50.30	67.18	120.6	118.4	66.96	78.21	307.8	1553	590.8	41.26	32.59	28.79	26.18	24.49	22.48	21.56	19.46	18.17	17.57	17.85	17.23	17.29	17.62	16.94	17.35	16.82	16.42	14.91	13.49	12.35	11.52	10.20	9.219	8.158	7.401	6.911	6.120	5.759	5.206	5.092	4.464	4.100	3.839	3.769	4.307	5.129	4.574	3.060	2.064	2.014	1.695	1.653	1.623	1.767	1.664	1.177	1.117	1.204	1.277	2.456	9.564	35.45	79.01	232.6	218.9	18.90	0.767	0.513	0.408	0.413	0.350	0.367	0.432
560.0	25.71	42.54	39.64	43.73	44.77	51.82	86.70	130.8	63.17	56.87	108.0	881.0	1266	72.79	27.64	24.28	22.53	19.90	18.56	17.40	15.27	14.82	14.93	14.57	14.58	14.62	14.18	14.45	14.09	14.61	13.91	12.79	11.80	10.67	9.376	8.747	8.061	7.082	6.354	5.698	5.136	4.988	4.438	4.289	3.882	3.693	3.328	3.045	3.094	4.041	4.596	3.404	2.050	1.739	1.572	1.471	1.208	1.340	1.681	1.355	1.016	1.008	0.897	1.172	2.712	8.524	18.39	78.88	268.0	166.9	11.45	0.572	0.438	0.418	0.294	0.359	0.365
565.0	28.16	35.82	32.19	40.35	40.12	43.62	58.78	131.8	71.23	47.95	59.52	319.8	1565	151.0	24.90	20.98	19.09	17.73	15.64	14.64	13.54	12.46	12.25	12.03	12.36	12.02	12.11	11.73	11.91	12.33	11.57	10.59	9.863	9.188	8.188	7.496	7.034	5.952	5.700	4.928	4.628	4.357	3.779	3.573	3.365	3.222	3.016	2.653	2.433	2.860	3.821	3.746	2.365	1.592	1.378	1.384	1.154	1.164	1.334	1.480	1.038	0.848	0.741	0.842	1.200	2.505	4.663	18.48	103.6	258.2	108.7	3.593	0.445	0.417	0.316	0.393	0.337
570.0	26.78	36.28	35.29	33.57	33.66	38.25	41.91	89.95	96.07	45.84	43.88	103.7	879.2	910.9	56.62	17.67	16.07	14.35	13.01	11.89	10.70	10.41	10.02	9.868	9.879	9.899	9.807	9.233	9.600	9.508	9.093	8.776	7.930	7.254	6.720	5.939	5.474	5.022	4.691	4.084	3.893	3.629	3.005	3.053	2.927	2.688	2.597	2.278	2.005	2.102	2.427	3.093	2.659	1.705	1.370	1.223	1.035	1.048	0.967	1.239	1.309	0.983	0.704	0.741	0.811	1.083	1.539	4.727	24.23	94.25	175.4	103.7	11.60	0.525	0.341	0.334	0.318
575.0	26.33	31.43	32.38	29.44	29.08	30.08	32.16	47.90	100.9	58.74	36.30	49.24	250.4	1142	355.4	15.78	12.77	11.60	10.36	9.338	8.317	8.112	8.052	7.982	8.020	7.674	7.244	7.469	7.600	7.145	7.276	7.166	6.155	5.467	5.502	4.697	4.585	4.247	3.659	3.566	3.067	3.013	2.642	2.539	2.204	2.342	1.933	1.904	1.637	1.674	1.658	2.204	2.448	2.128	1.441	1.082	0.980	0.971	0.817	0.894	1.020	1.172	0.900	0.652	0.672	0.674	0.908	1.606	5.925	21.38	47.86	146.3	135.0	13.96	0.445	0.349	0.283
580.0	26.43	30.38	31.06	27.81	26.07	25.37	27.77	34.91	85.27	75.05	34.87	36.19	79.33	675.5	840.6	29.45	10.81	9.669	9.665	8.235	7.271	6.708	6.729	6.857	6.498	6.373	6.428	6.633	6.249	6.122	6.371	5.984	5.248	4.818	4.729	3.867	3.888	3.487	3.159	2.899	2.549	2.345	2.368	2.005	2.004	1.888	1.814	1.601	1.447	1.420	1.370	1.426	1.779	2.079	1.544	1.053	0.849	0.826	0.777	0.762	0.671	1.083	1.101	0.671	0.625	0.569	0.727	0.917	1.775	5.205	11.06	50.23	161.0	97.06	6.319	0.361	0.296
585.0	25.67	31.31	30.98	24.56	24.14	23.89	25.68	28.64	59.79	94.03	37.74	32.12	38.34	239.7	1078	96.64	9.811	8.665	7.967	6.833	6.497	5.785	5.661	5.749	5.588	5.684	5.617	5.697	5.826	5.442	5.392	5.060	4.421	4.227	4.005	3.537	3.412	2.914	2.626	2.461	2.284	2.200	2.104	1.812	1.863	1.624	1.633	1.400	1.317	1.213	1.163	1.108	1.351	1.908	1.793	1.205	0.763	0.772	0.741	0.700	0.567	0.799	1.115	0.870	0.629	0.562	0.585	0.679	0.786	1.534	2.842	11.84	63.55	153.7	33.27	2.164	0.326
590.0	25.17	29.18	27.14	23.41	20.96	21.97	23.89	24.51	37.15	87.07	55.83	31.82	28.21	72.48	610.5	565.8	25.87	7.046	6.530	5.521	5.442	4.864	4.644	4.862	4.529	4.778	4.445	4.495	4.597	4.611	4.676	4.166	3.782	3.546	3.101	3.013	2.798	2.374	2.216	1.974	1.825	1.671	1.713	1.548	1.461	1.425	1.307	1.265	1.055	1.000	0.994	0.903	0.902	1.290	1.631	1.354	0.892	0.789	0.603	0.583	0.564	0.568	0.699	0.953	0.768	0.561	0.523	0.543	0.559	0.735	0.977	2.965	14.75	56.25	97.55	64.88	9.598
595.0	26.39	27.00	27.35	25.56	19.53	20.98	22.74	22.97	27.86	58.82	80.51	35.43	27.20	30.99	168.0	732.8	94.77	6.550	5.507	4.921	4.165	4.099	3.820	3.995	3.459	3.803	3.401	3.762	3.821	3.769	3.610	3.181	2.998	2.943	2.410	2.362	2.102	1.992	1.953	1.745	1.477	1.439	1.483	1.309	1.300	1.234	1.054	1.041	0.801	0.858	0.863	0.836	0.897	0.910	1.177	1.373	1.094	0.752	0.564	0.525	0.505	0.544	0.589	0.637	0.791	0.677	0.470	0.481	0.449	0.473	0.578	0.974	3.554	12.80	26.59	83.14	82.46
600.0	26.43	30.84	29.80	24.77	19.42	20.24	21.62	23.31	27.20	41.52	83.81	45.42	28.71	23.71	51.15	454.1	459.0	12.74	4.789	3.869	3.656	3.055	3.244	3.278	3.159	3.261	2.896	3.046	3.264	2.977	3.188	2.737	2.452	2.259	1.995	2.124	1.813	1.736	1.626	1.445	1.231	1.196	1.345	1.174	1.204	0.986	0.859	0.899	0.752	0.698	0.689	0.673	0.736	0.688	0.828	1.128	1.270	0.817	0.474	0.518	0.507	0.480	0.495	0.566	0.571	0.873	0.579	0.520	0.442	0.496	0.475	0.499	1.061	3.185	6.308	27.90	93.95
605.0	21.94	28.82	29.63	27.61	20.57	23.55	25.52	27.90	33.26	39.58	77.91	64.16	34.44	26.28	26.98	168.9	652.3	61.24	4.504	3.461	3.507	2.813	2.884	2.825	2.825	2.694	2.541	2.603	2.692	2.600	2.355	2.357	2.163	2.016	1.858	1.889	1.541	1.645	1.406	1.291	1.192	1.040	0.949	1.079	0.999	0.847	0.837	0.770	0.692	0.623	0.662	0.624	0.670	0.531	0.676	0.847	1.174	0.970	0.626	0.527	0.484	0.438	0.544	0.539	0.489	0.789	0.836	0.531	0.477	0.433	0.438	0.384	0.481	1.033	1.722	6.662	36.59
610.0	26.68	30.07	33.61	27.79	24.25	25.81	30.74	34.49	39.76	49.74	71.06	93.98	51.86	36.64	29.53	56.90	406.9	349.4	13.11	3.131	2.800	2.442	2.445	2.262	2.498	2.276	2.201	2.257	2.176	2.120	2.171	1.933	1.940	1.644	1.517	1.450	1.253	1.295	1.111	1.062	0.992	0.950	0.853	0.896	0.815	0.789	0.768	0.723	0.605	0.571	0.551	0.643	0.560	0.478	0.564	0.587	0.902	0.963	0.822	0.597	0.514	0.504	0.504	0.535	0.522	0.581	0.739	0.767	0.588	0.456	0.439	0.446	0.430	0.526	0.672	1.754	8.657
615.0	30.03	34.38	34.74	27.33	27.51	28.34	32.57	37.01	42.98	50.24	64.60	93.99	69.50	42.23	34.36	30.94	124.4	495.1	70.96	2.779	2.298	2.117	2.225	2.105	1.953	1.976	1.667	1.856	1.871	1.749	1.919	1.625	1.447	1.434	1.254	1.142	0.936	1.000	0.963	0.911	0.814	0.794	0.692	0.643	0.735	0.676	0.698	0.712	0.586	0.492	0.516	0.529	0.476	0.408	0.503	0.490	0.705	0.829	0.876	0.681	0.613	0.476	0.488	0.580	0.582	0.493	0.619	0.737	0.722	0.585	0.447	0.475	0.391	0.466	0.465	0.640	2.231
620.0	33.24	38.29	34.03	31.26	26.74	25.89	33.73	34.93	45.31	48.92	59.12	81.16	84.39	45.90	34.42	25.58	44.71	328.1	293.4	6.001	1.998	1.900	1.872	1.815	1.847	1.827	1.548	1.599	1.743	1.503	1.604	1.325	1.252	1.171	1.095	0.999	1.058	0.952	0.784	0.758	0.675	0.701	0.583	0.637	0.681	0.598	0.659	0.726	0.506	0.461	0.464	0.464	0.441	0.397	0.437	0.404	0.525	0.669	0.802	0.696	0.676	0.452	0.460	0.634	0.484	0.506	0.537	0.577	0.913	0.678	0.553	0.491	0.389	0.411	0.418	0.404	0.799
625.0	25.17	36.05	34.37	28.21	26.36	29.86	35.66	37.74	44.02	48.08	56.89	67.30	87.19	50.05	34.24	24.96	26.91	130.0	448.0	36.26	2.058	1.742	1.678	1.523	1.259	1.503	1.490	1.453	1.325	1.529	1.316	1.233	1.089	0.945	0.943	0.837	0.858	0.752	0.845	0.709	0.613	0.582	0.652	0.612	0.549	0.566	0.549	0.595	0.485	0.459	0.402	0.401	0.387	0.363	0.376	0.401	0.405	0.580	0.702	0.729	0.666	0.404	0.475	0.527	0.465	0.413	0.508	0.511	0.686	0.718	0.581	0.505	0.403	0.416	0.338	0.377	0.435
630.0	26.05	32.79	36.65	30.09	27.17	28.14	35.60	37.85	41.69	47.92	54.40	61.49	77.72	61.40	36.77	26.09	21.72	40.65	299.4	225.2	5.803	1.771	1.386	1.415	1.205	1.259	1.223	1.290	1.229	1.136	1.201	1.082	0.905	0.844	0.758	0.743	0.721	0.681	0.629	0.648	0.541	0.490	0.511	0.531	0.474	0.532	0.457	0.499	0.409	0.382	0.332	0.377	0.358	0.379	0.368	0.332	0.389	0.419	0.538	0.623	0.577	0.496	0.468	0.463	0.444	0.445	0.465	0.475	0.564	0.560	0.627	0.525	0.409	0.392	0.334	0.348	0.373
635.0	25.65	38.49	34.97	32.23	26.73	27.29	31.78	36.76	41.83	46.15	54.69	57.49	63.93	71.81	39.93	25.54	21.38	18.30	86.31	358.6	51.54	1.756	1.311	1.211	1.197	0.987	1.102	1.135	1.056	0.988	0.950	0.985	0.716	0.815	0.746	0.753	0.589	0.519	0.537	0.544	0.523	0.439	0.480	0.424	0.402	0.369	0.403	0.431	0.394	0.297	0.312	0.337	0.352	0.328	0.310	0.322	0.386	0.328	0.456	0.540	0.573	0.513	0.485	0.489	0.437	0.411	0.473	0.448	0.516	0.567	0.632	0.722	0.389	0.403	0.443	0.355	0.338
640.0	30.24	36.04	37.57	35.52	29.95	29.45	31.91	36.50	39.47	46.79	51.90	57.24	57.41	68.18	44.98	26.32	20.63	13.86	24.32	256.2	193.5	3.264	1.400	1.073	0.993	1.115	1.047	1.056	0.958	0.956	0.889	0.860	0.643	0.687	0.699	0.754	0.601	0.516	0.527	0.483	0.400	0.416	0.348	0.367	0.404	0.381	0.494	0.381	0.393	0.294	0.289	0.349	0.361	0.336	0.342	0.293	0.334	0.385	0.402	0.425	0.505	0.585	0.492	0.401	0.442	0.359	0.431	0.445	0.500	0.542	0.473	0.579	0.552	0.410	0.409	0.334	0.279
645.0	30.41	33.52	39.12	33.63	28.28	29.17	31.51	33.54	37.02	45.51	51.54	55.18	54.28	59.29	52.18	26.27	20.52	12.87	9.798	104.5	317.4	20.76	1.254	0.956	0.934	1.109	0.871	0.829	0.940	0.799	0.913	0.933	0.739	0.675	0.656	0.651	0.626	0.571	0.500	0.480	0.401	0.453	0.386	0.415	0.378	0.344	0.351	0.362	0.316	0.316	0.320	0.334	0.339	0.327	0.350	0.305	0.327	0.382	0.323	0.350	0.467	0.497	0.531	0.426	0.451	0.417	0.456	0.444	0.421	0.422	0.458	0.442	0.552	0.506	0.332	0.331	0.344
650.0	29.29	41.93	39.12	34.38	28.06	26.45	30.97	32.75	36.52	41.46	48.09	52.86	51.71	49.76	55.04	27.84	19.73	12.51	6.730	29.81	295.1	64.15	1.529	1.104	0.965	1.080	0.855	0.806	0.793	0.856	0.847	0.807	0.721	0.579	0.760	0.635	0.533	0.565	0.483	0.429	0.431	0.418	0.394	0.388	0.387	0.287	0.342	0.341	0.311	0.311	0.251	0.352	0.298	0.282	0.316	0.269	0.273	0.357	0.297	0.316	0.436	0.437	0.514	0.413	0.398	0.450	0.369	0.436	0.407	0.451	0.405	0.412	0.478	0.558	0.336	0.300	0.266
