Sample:	'1
File name:	S2025062003弯沟河钢厂旁支流.FD3
Run date:	'11:06:18, 06/23/2025
Operator:	Administrator
Comment:	'

Instrument
Model:	F-2700 FL Spectrophotometer
Serial number:	23B8-004
ROM Version:	4J14000 07

Instrument parameters
Measurement type:	3-D scan
Data mode:	Fluorescence
EX  Start WL:	220.0 nm
EX  End WL:	600.0 nm
EX Sampling interval:	5.0 nm
EM  Start WL:	230.0 nm
EM  End WL:	650.0 nm
EM Sampling interval:	5.0 nm
Scan speed:	12000 nm/min
EX Slit:	5.0 nm
EM Slit:	5.0 nm
PMT Voltage:	700 V
Response:	Auto 
Corrected spectra:	Off
Contour interval:	50.000

Peak integration
Integration method:	Rectangular
Sensitivity:	1
Threshold:	1.000

Peaks
No.	ApexEX/EM(nm)	Height(Data)
1	230.0/605.0	53.31
2	240.0/265.0	311.7
3	240.0/400.0	1582
4	245.0/270.0	350.1
5	245.0/395.0	1559
6	250.0/275.0	455.2
7	255.0/285.0	429.1
8	260.0/290.0	425.8
9	260.0/570.0	152.1
10	265.0/585.0	120.3
11	270.0/300.0	763.0
12	270.0/600.0	96.75
13	275.0/305.0	816.7
14	275.0/610.0	77.00
15	280.0/310.0	727.4
16	280.0/625.0	58.34
17	285.0/320.0	671.6
18	285.0/640.0	41.38
19	290.0/325.0	602.7
20	305.0/345.0	441.0
21	505.0/275.0	2.789
22	505.0/395.0	6.560
23	510.0/280.0	2.754
24	510.0/420.0	6.754
25	520.0/285.0	2.751
26	530.0/290.0	2.637
27	540.0/295.0	3.703
28	545.0/300.0	4.178
29	550.0/305.0	4.436
30	560.0/310.0	3.964
31	570.0/315.0	4.042
32	580.0/320.0	4.146
33	585.0/325.0	3.780

Data points
	220.0	225.0	230.0	235.0	240.0	245.0	250.0	255.0	260.0	265.0	270.0	275.0	280.0	285.0	290.0	295.0	300.0	305.0	310.0	315.0	320.0	325.0	330.0	335.0	340.0	345.0	350.0	355.0	360.0	365.0	370.0	375.0	380.0	385.0	390.0	395.0	400.0	405.0	410.0	415.0	420.0	425.0	430.0	435.0	440.0	445.0	450.0	455.0	460.0	465.0	470.0	475.0	480.0	485.0	490.0	495.0	500.0	505.0	510.0	515.0	520.0	525.0	530.0	535.0	540.0	545.0	550.0	555.0	560.0	565.0	570.0	575.0	580.0	585.0	590.0	595.0	600.0
230.0	86.97	1287	1807	337.9	15.53	6.985	6.035	4.622	3.983	3.718	3.293	3.320	2.601	2.233	2.089	1.870	1.698	1.422	1.312	1.189	1.213	1.008	1.054	0.855	0.824	0.774	0.820	0.803	0.666	0.709	0.673	0.659	0.551	0.551	0.518	0.480	0.461	0.455	0.489	0.451	0.499	0.533	0.495	0.396	0.363	0.441	2.030	6.010	6.701	3.493	1.091	0.375	0.271	0.289	0.278	0.268	0.296	0.268	0.284	0.280	0.271	0.286	0.270	0.306	0.290	0.276	0.288	0.286	0.282	0.286	0.265	0.275	0.281	0.309	0.313	0.350	0.311
235.0	97.36	379.4	1534	1831	392.8	20.56	5.813	5.279	4.398	4.058	4.012	2.927	2.872	2.586	2.010	1.964	1.763	1.339	1.326	1.297	0.977	1.076	1.082	0.921	0.918	0.815	0.771	0.740	0.737	0.704	0.709	0.635	0.586	0.610	0.501	0.457	0.421	0.482	0.473	0.464	0.499	0.556	0.437	0.547	0.453	0.374	0.813	1.837	3.606	5.688	6.782	5.656	2.209	0.590	0.276	0.284	0.263	0.351	0.276	0.350	0.318	0.339	0.287	0.293	0.364	0.314	0.280	0.236	0.399	0.301	0.236	0.256	0.264	0.299	0.279	0.283	0.272
240.0	140.9	138.8	540.9	1990	1838	299.0	10.29	6.032	5.129	4.364	3.899	2.982	2.798	2.489	2.079	1.986	1.819	1.374	1.256	1.199	1.115	1.118	1.009	0.967	0.878	0.889	0.816	0.893	0.747	0.786	0.664	0.588	0.591	0.508	0.494	0.437	0.470	0.559	0.543	0.454	0.431	0.404	0.387	0.528	0.639	0.549	0.574	0.671	1.055	2.014	4.988	10.27	9.852	5.484	1.777	0.476	0.280	0.302	0.321	0.264	0.294	0.280	0.334	0.335	0.291	0.325	0.294	0.264	0.295	0.348	0.303	0.267	0.266	0.285	0.296	0.308	0.277
245.0	128.1	157.9	166.9	811.7	2571	1766	200.5	7.974	5.681	4.726	4.580	2.933	2.684	2.728	1.982	1.936	1.791	1.590	1.470	1.342	1.316	0.988	0.894	1.034	0.935	0.840	0.861	0.853	0.733	0.695	0.584	0.653	0.608	0.497	0.451	0.430	0.425	0.522	0.525	0.513	0.430	0.421	0.428	0.353	0.540	0.735	0.680	0.702	0.511	0.662	1.493	4.261	9.155	12.94	11.11	4.957	1.250	0.317	0.313	0.327	0.283	0.305	0.302	0.324	0.363	0.327	0.267	0.270	0.421	0.357	0.265	0.265	0.277	0.277	0.331	0.320	0.310
250.0	62.75	140.1	184.5	238.8	942.0	2366	2435	685.7	32.06	5.795	4.951	3.799	3.345	3.046	2.352	2.056	1.820	1.466	1.375	1.348	1.285	1.025	1.034	1.016	0.956	0.953	0.840	0.911	0.755	0.734	0.721	0.673	0.604	0.504	0.578	0.483	0.462	0.412	0.487	0.436	0.427	0.416	0.428	0.350	0.407	0.521	0.558	0.763	0.804	0.713	0.644	1.293	2.489	4.882	8.910	12.63	14.62	11.63	5.706	1.430	0.410	0.312	0.265	0.299	0.310	0.349	0.293	0.270	0.335	0.300	0.274	0.311	0.269	0.279	0.306	0.308	0.336
255.0	43.52	55.32	155.8	230.5	265.9	676.7	2581	2912	292.0	27.36	6.999	5.042	4.051	3.177	2.863	2.244	1.655	1.652	1.507	1.370	1.399	1.031	1.187	1.023	1.005	0.920	0.949	0.848	0.820	0.716	0.742	0.657	0.605	0.564	0.529	0.496	0.505	0.453	0.523	0.397	0.415	0.388	0.408	0.362	0.396	0.374	0.383	0.458	0.600	0.835	0.965	1.031	0.901	1.375	2.236	3.408	6.887	15.77	24.58	20.49	8.589	1.550	0.346	0.321	0.303	0.356	0.327	0.317	0.346	0.347	0.277	0.297	0.341	0.280	0.300	0.319	0.351
260.0	38.71	30.38	77.06	230.9	221.3	201.6	900.5	3693	2356	232.4	15.65	5.702	5.002	3.632	2.881	2.360	1.846	1.797	1.425	1.525	1.461	1.099	1.210	0.971	1.069	0.910	0.891	0.823	0.728	0.709	0.659	0.651	0.661	0.643	0.559	0.575	0.493	0.466	0.537	0.469	0.553	0.393	0.396	0.393	0.412	0.352	0.350	0.337	0.406	0.533	0.830	1.336	1.339	0.853	0.822	1.148	2.028	4.724	12.71	24.53	29.63	19.33	5.624	0.725	0.291	0.326	0.374	0.337	0.332	0.378	0.331	0.328	0.305	0.314	0.314	0.297	0.311
265.0	34.61	26.48	37.28	137.5	311.7	197.5	262.5	1479	4791	2023	174.0	9.889	6.068	4.153	3.303	2.733	2.379	1.779	1.548	1.340	1.529	1.394	1.130	1.173	1.111	1.060	0.851	0.852	0.812	0.874	0.769	0.882	0.676	0.607	0.653	0.561	0.506	0.434	0.490	0.449	0.538	0.378	0.469	0.390	0.473	0.386	0.326	0.318	0.344	0.344	0.451	0.898	1.401	1.695	1.083	0.878	0.968	1.517	3.369	8.072	19.19	32.05	29.40	16.34	3.212	0.434	0.376	0.317	0.341	0.341	0.331	0.328	0.294	0.415	0.310	0.332	0.355
270.0	44.42	32.01	29.76	61.99	202.7	350.1	255.7	402.7	1730	4264	4282	723.2	33.66	5.923	3.950	3.056	2.742	2.150	1.819	1.595	1.412	1.451	1.228	1.231	1.093	1.045	0.974	0.894	0.902	0.912	0.776	0.815	0.706	0.670	0.638	0.520	0.509	0.495	0.503	0.478	0.486	0.462	0.468	0.412	0.409	0.410	0.412	0.385	0.340	0.328	0.355	0.559	0.756	1.220	1.588	1.712	1.630	1.214	1.268	2.313	4.903	9.901	17.79	27.26	29.88	27.05	12.18	3.265	0.464	0.367	0.346	0.326	0.292	0.357	0.383	0.346	0.348
275.0	67.68	53.92	43.05	51.49	120.9	252.1	455.2	277.9	435.6	1142	4170	7355	962.3	25.62	6.422	3.964	3.066	2.751	2.152	2.076	1.762	1.576	1.468	1.356	1.051	0.966	1.004	0.830	1.061	0.927	0.842	0.793	0.885	0.685	0.689	0.674	0.585	0.514	0.525	0.564	0.494	0.474	0.548	0.479	0.461	0.453	0.501	0.487	0.377	0.362	0.398	0.470	0.531	0.769	0.982	1.329	2.354	2.789	1.945	1.269	1.629	2.691	4.368	6.697	10.04	23.56	43.40	31.75	18.70	3.285	0.459	0.386	0.347	0.371	0.450	0.365	0.385
280.0	106.0	90.20	60.90	52.36	95.39	169.3	358.5	404.5	205.8	302.4	1296	6356	6839	142.7	13.25	6.142	3.845	3.276	2.739	2.239	1.936	1.586	1.609	1.441	1.259	1.093	1.213	1.043	0.943	0.858	0.886	0.788	0.832	0.690	0.771	0.692	0.647	0.718	0.624	0.580	0.535	0.549	0.570	0.503	0.504	0.544	0.623	0.580	0.428	0.372	0.393	0.438	0.501	0.668	0.779	0.984	1.333	2.075	2.754	2.353	1.306	1.102	1.454	2.018	2.715	6.240	16.41	33.17	50.77	30.13	13.36	1.463	0.372	0.470	0.444	0.395	0.352
285.0	158.0	128.6	92.66	68.30	89.18	134.9	205.2	429.1	313.1	151.7	364.4	2094	7615	5395	103.2	8.843	5.121	3.446	3.157	2.414	1.907	1.665	1.600	1.590	1.320	1.115	1.164	1.068	1.002	1.020	0.919	0.996	0.891	0.942	0.867	0.813	0.782	0.724	0.695	0.674	0.595	0.592	0.637	0.596	0.634	0.649	0.626	0.660	0.661	0.430	0.424	0.508	0.539	0.618	0.785	0.830	0.922	1.080	1.617	2.661	2.751	1.679	1.030	0.921	1.105	1.910	4.301	9.370	23.16	42.29	52.83	25.39	7.316	0.794	0.388	0.428	0.431
290.0	235.6	216.0	149.5	102.4	104.7	122.4	141.5	224.3	425.8	387.3	234.0	604.6	2364	5649	5528	432.6	23.45	5.133	3.737	2.963	2.476	2.032	1.724	1.688	1.388	1.293	1.229	1.151	1.137	1.049	0.964	0.915	1.036	1.045	1.143	0.990	0.884	0.871	0.688	0.770	0.654	0.695	0.727	0.740	0.827	0.797	0.767	0.923	0.796	0.629	0.546	0.607	0.560	0.650	0.726	0.727	0.798	0.839	0.994	1.382	1.986	2.545	2.637	2.050	1.376	1.239	1.801	2.924	6.083	11.62	22.11	31.39	32.28	35.63	16.90	6.827	0.961
295.0	322.6	309.6	243.7	148.3	124.5	118.0	128.7	152.4	249.1	540.3	540.7	362.0	701.6	1452	3923	6512	614.0	18.72	5.078	3.580	3.004	2.319	2.056	1.909	1.504	1.438	1.338	1.338	1.149	1.071	0.981	0.865	1.085	1.136	1.094	1.065	1.031	1.041	0.819	0.784	0.752	0.902	0.785	0.950	1.006	0.929	0.964	1.093	1.051	0.795	0.749	0.732	0.680	0.685	0.628	0.772	0.822	0.827	0.932	0.876	1.061	1.307	1.960	3.168	3.703	2.497	1.766	1.835	2.319	3.609	5.912	7.834	8.995	19.60	40.34	52.77	27.13
300.0	376.3	370.2	307.1	198.2	142.7	127.8	144.8	160.8	217.5	394.9	763.0	514.7	389.9	477.3	1122	5254	5529	86.96	10.30	4.777	3.289	2.568	2.439	2.015	1.693	1.655	1.547	1.284	1.132	1.160	1.014	0.996	1.173	1.163	0.987	1.294	1.200	1.145	0.974	0.893	0.888	0.873	0.929	1.020	1.131	1.057	1.132	1.222	1.091	0.946	0.852	0.871	0.682	0.749	0.677	0.761	0.889	0.890	1.013	1.010	1.032	1.207	1.533	2.167	3.343	4.178	3.421	2.160	1.932	2.092	2.429	2.612	2.674	5.189	12.44	29.91	51.45
305.0	409.7	435.3	345.8	233.1	168.0	156.8	161.1	187.7	236.2	338.6	638.3	816.7	427.0	300.8	357.1	1585	6147	4418	70.00	6.882	4.274	3.101	2.670	2.282	2.033	1.638	1.428	1.245	1.283	1.171	0.897	1.021	1.169	1.269	1.308	1.276	1.239	1.045	0.975	0.911	0.903	0.930	0.988	1.068	1.138	1.161	1.204	1.287	1.358	0.976	0.960	0.979	0.912	0.872	0.828	0.787	1.022	1.024	1.107	1.258	1.287	1.435	1.480	1.719	2.402	2.995	4.436	3.985	2.878	1.875	1.986	1.726	1.519	2.012	3.409	7.763	18.42
310.0	448.5	450.4	388.8	270.7	200.3	179.5	188.3	218.1	275.4	352.4	493.9	722.4	727.4	381.4	222.5	434.6	1776	4479	4664	306.2	19.34	4.566	3.102	2.740	2.144	1.785	1.697	1.433	1.333	1.296	1.077	1.106	1.169	1.278	1.267	1.289	1.316	1.304	1.049	1.006	0.968	0.879	1.030	1.096	1.174	1.269	1.346	1.320	1.352	1.117	1.044	1.111	0.975	0.946	0.970	0.925	1.023	1.022	1.124	1.295	1.374	1.653	1.772	1.947	2.215	2.342	3.039	3.577	3.964	3.753	3.020	1.975	1.544	1.400	1.609	2.458	4.794
315.0	471.8	485.9	411.7	307.7	227.3	200.4	221.2	252.4	311.2	385.5	469.4	560.9	665.1	666.7	281.9	199.3	460.7	1075	3011	5812	482.0	17.98	4.722	3.302	2.636	2.269	1.873	1.735	1.426	1.407	1.199	1.241	1.176	1.159	1.254	1.191	1.351	1.324	1.069	1.052	1.093	1.041	1.122	1.142	1.110	1.406	1.342	1.561	1.334	1.249	1.134	1.171	1.016	1.123	0.983	1.100	1.149	1.196	1.336	1.471	1.576	1.732	1.815	2.114	2.222	2.445	2.574	2.685	3.061	3.352	4.042	4.011	2.731	1.716	1.395	1.519	1.858
320.0	490.3	541.0	470.7	338.9	254.7	235.0	244.4	291.6	342.6	409.3	485.0	531.6	554.5	671.6	474.8	191.7	185.4	292.0	798.5	4101	4201	372.4	8.980	4.411	3.255	2.722	2.089	1.720	1.596	1.388	1.267	1.278	1.189	1.207	1.219	1.297	1.303	1.176	1.125	0.998	1.057	1.119	1.206	1.112	1.206	1.414	1.441	1.624	1.527	1.214	1.281	1.372	1.046	1.134	1.165	1.216	1.338	1.400	1.446	1.696	1.703	1.784	1.879	2.190	2.062	2.467	2.513	2.628	2.857	2.785	3.011	3.783	4.146	2.865	1.509	1.476	1.333
325.0	539.0	642.5	560.9	414.1	297.0	272.4	279.1	331.9	377.6	440.7	513.3	548.7	539.5	540.7	602.7	311.3	152.0	136.2	225.1	1163	4573	3630	57.73	6.293	3.876	2.896	2.237	1.951	1.718	1.520	1.430	1.416	1.282	1.417	1.229	1.422	1.283	1.188	1.095	1.170	1.108	1.011	1.246	1.331	1.269	1.656	1.732	1.840	1.680	1.612	1.402	1.461	1.306	1.329	1.312	1.227	1.377	1.461	1.578	1.738	1.725	2.005	1.949	2.503	2.130	2.710	2.685	2.627	2.626	2.741	2.637	2.959	3.394	3.780	3.095	1.825	1.387
330.0	639.3	736.7	714.9	543.0	416.7	365.6	377.1	392.6	434.5	488.1	548.5	582.8	568.3	511.0	493.2	474.0	276.1	139.1	124.7	311.0	1307	3505	3836	1025	18.04	3.859	2.873	2.362	1.883	1.592	1.442	1.296	1.341	1.364	1.389	1.271	1.246	1.248	1.194	1.209	1.115	1.087	1.219	1.406	1.480	1.646	1.905	2.061	2.184	1.961	1.674	1.823	1.789	1.674	1.742	1.646	1.754	1.743	2.009	1.975	1.974	2.257	2.279	2.581	2.449	2.776	2.925	2.844	2.802	2.890	2.804	2.760	2.654	2.991	3.022	3.095	2.722
335.0	707.6	844.5	871.2	687.7	571.1	509.7	503.2	493.9	520.0	557.3	594.2	617.3	604.4	544.9	460.6	417.6	452.2	258.4	137.8	149.4	350.0	847.0	2460	5100	418.2	18.24	4.059	3.067	2.278	1.800	1.613	1.559	1.418	1.483	1.284	1.240	1.385	1.209	1.120	1.158	1.242	1.373	1.375	1.431	1.591	1.961	2.151	2.358	2.420	2.169	2.192	2.228	2.182	2.050	2.355	2.094	2.382	2.186	2.429	2.478	2.326	2.599	2.487	2.736	2.617	2.799	3.133	2.810	3.286	2.845	2.853	2.790	2.763	2.738	2.561	2.604	3.050
340.0	753.8	929.1	964.0	835.7	700.3	645.1	619.9	582.6	586.5	612.1	624.4	642.2	637.1	571.0	483.9	398.9	425.8	405.6	199.9	137.6	157.9	247.0	662.4	3522	3508	339.1	9.179	3.790	2.521	2.167	1.976	1.698	1.434	1.365	1.278	1.359	1.366	1.159	1.239	1.172	1.148	1.347	1.513	1.518	1.638	2.263	2.042	2.482	2.766	2.443	2.526	2.855	2.770	2.583	2.726	2.573	2.926	2.647	2.793	2.825	2.782	2.689	2.976	3.048	2.775	2.901	3.067	3.045	3.184	3.057	3.037	2.919	3.016	2.889	2.583	2.497	2.588
345.0	847.7	997.0	1013	932.2	832.7	785.0	726.6	679.4	652.5	655.4	657.0	661.5	657.5	601.2	518.9	421.2	382.3	441.0	326.3	175.9	144.5	138.3	209.0	1012	3890	3127	51.56	6.004	3.214	2.462	2.085	1.757	1.571	1.446	1.379	1.247	1.235	1.197	1.093	1.162	1.137	1.310	1.532	1.624	1.737	2.307	2.349	2.784	2.914	2.851	2.665	3.046	3.019	3.101	3.135	2.782	3.502	2.910	2.942	3.087	3.169	3.096	3.220	3.049	3.031	3.077	3.098	3.136	3.259	3.275	3.303	3.089	3.026	3.085	2.690	2.438	2.525
350.0	863.2	1048	1109	1066	995.4	942.9	867.9	801.0	739.3	723.4	706.0	703.4	687.3	643.1	562.8	475.3	408.5	397.1	421.3	318.4	199.7	158.1	146.4	300.2	1135	2946	3205	874.6	16.68	3.543	2.609	2.019	1.647	1.585	1.487	1.260	1.289	1.244	1.305	1.307	1.191	1.367	1.454	1.635	1.883	2.351	2.458	2.868	2.968	2.844	3.034	3.535	3.608	3.737	3.585	3.496	3.883	3.722	3.473	3.411	3.482	3.565	3.414	3.299	3.391	3.383	3.218	3.413	3.264	3.560	3.507	3.354	3.067	3.312	3.042	2.870	2.872
355.0	882.5	1127	1207	1163	1132	1116	1027	928.9	867.2	801.5	771.7	755.1	729.4	687.4	625.4	536.6	468.6	428.1	411.6	445.1	339.8	227.5	183.9	182.9	336.4	736.2	2065	4096	381.4	17.45	3.635	2.582	1.946	1.694	1.578	1.236	1.385	1.201	1.232	1.301	1.312	1.390	1.609	1.730	1.918	2.193	2.451	3.097	3.428	3.199	3.131	3.819	3.837	4.304	4.259	4.081	4.319	4.333	4.030	4.023	3.943	4.164	3.977	3.765	3.728	3.603	3.609	3.400	3.615	3.899	3.724	3.603	3.557	3.639	3.575	3.070	3.115
360.0	929.0	1140	1247	1257	1242	1225	1128	1021	939.3	886.0	835.4	796.6	770.7	727.7	664.4	587.7	525.5	477.4	431.2	439.6	455.7	317.1	233.8	192.0	189.0	246.1	575.0	2896	3185	318.9	8.771	3.485	2.207	1.748	1.742	1.381	1.603	1.381	1.279	1.388	1.441	1.279	1.642	1.872	1.931	2.427	2.701	3.205	3.354	3.239	3.428	4.179	4.224	4.694	4.663	4.566	4.724	4.921	4.519	4.322	4.334	4.361	4.389	4.026	3.942	3.587	3.727	3.905	3.774	4.065	3.890	3.759	3.820	3.663	3.757	3.570	3.561
365.0	951.8	1157	1274	1309	1305	1297	1241	1100	1015	950.1	882.6	849.5	806.9	767.8	703.0	633.3	581.8	529.9	481.7	451.0	485.0	434.4	298.8	235.1	190.5	161.7	203.0	860.9	3431	2854	47.97	5.693	2.856	2.110	1.768	1.410	1.416	1.315	1.451	1.361	1.322	1.357	1.679	1.834	2.041	2.417	2.687	3.010	3.346	3.130	3.623	4.339	4.436	4.555	4.948	5.249	5.256	5.043	4.986	4.658	4.359	4.786	4.485	4.429	4.210	4.021	3.899	3.892	4.011	4.066	3.850	3.924	3.973	3.780	4.004	3.677	3.662
370.0	969.9	1194	1323	1362	1391	1379	1324	1198	1105	1040	962.8	909.6	866.0	824.9	757.9	698.6	651.1	607.8	558.8	519.3	501.0	513.0	443.2	322.1	248.4	193.9	159.4	270.2	1015	2705	2913	764.8	14.90	3.198	2.346	1.810	1.461	1.498	1.411	1.506	1.551	1.574	1.695	1.904	2.132	2.553	2.691	3.221	3.358	3.286	3.745	4.612	4.877	5.064	5.072	5.144	5.592	5.409	5.277	5.193	4.847	5.115	4.830	4.735	4.555	4.435	4.234	4.192	4.217	4.146	4.125	4.159	4.221	4.306	4.129	4.132	4.164
375.0	1014	1234	1349	1417	1451	1450	1401	1267	1185	1119	1040	989.1	937.4	890.1	829.0	770.9	723.8	685.5	640.1	605.8	559.3	536.2	544.6	464.8	335.9	258.2	198.7	175.9	305.9	677.1	1945	3569	328.2	14.78	3.373	2.189	1.988	1.646	1.591	1.575	1.572	1.617	1.680	1.886	2.120	2.441	2.871	3.423	3.612	3.647	3.903	5.105	5.054	5.449	5.401	5.516	5.650	5.780	5.769	5.383	5.321	5.143	5.411	5.127	4.931	4.784	4.356	4.485	4.507	4.616	4.418	4.443	4.389	4.887	4.419	4.452	4.919
380.0	1050	1246	1373	1444	1505	1492	1440	1325	1243	1174	1092	1040	983.6	926.5	866.5	816.6	776.4	741.4	701.9	661.5	618.3	578.4	562.0	557.0	423.6	317.2	243.4	186.5	173.7	222.0	545.9	2611	2700	255.6	7.268	2.852	2.354	1.830	1.861	1.511	1.509	1.858	1.855	2.126	2.331	2.786	2.914	3.694	3.640	3.510	3.889	4.898	5.293	5.432	5.500	5.425	5.800	6.000	5.831	5.688	5.552	5.533	5.733	5.305	5.202	4.977	4.715	4.749	4.820	4.853	4.598	4.733	4.813	4.734	4.794	4.661	4.828
385.0	1088	1296	1400	1485	1517	1527	1480	1374	1292	1223	1146	1080	1019	964.7	910.4	857.9	812.9	781.8	750.3	711.4	666.4	623.9	585.8	581.0	516.2	380.1	290.5	224.1	173.1	144.1	183.6	781.6	2812	2271	38.71	4.916	2.650	2.081	1.956	1.777	1.652	1.884	2.082	2.227	2.280	2.960	2.809	3.604	3.636	3.741	4.003	5.249	5.443	5.391	5.481	5.851	6.115	6.196	6.023	5.847	6.013	5.770	5.721	5.733	5.372	5.111	4.739	4.967	4.705	4.920	5.028	4.890	5.036	4.974	4.993	4.946	5.150
390.0	1115	1319	1422	1499	1537	1539	1497	1416	1326	1270	1196	1131	1071	1013	951.5	901.7	863.4	833.7	806.5	770.5	725.3	686.1	640.8	600.7	575.1	496.5	373.1	285.0	219.2	167.1	135.2	236.6	837.1	2087	2094	531.9	12.64	3.107	2.390	1.944	1.843	2.001	2.026	2.122	2.374	2.857	2.978	3.542	3.636	3.760	4.103	5.344	5.124	5.682	5.772	5.961	6.159	6.238	6.273	5.951	5.808	5.941	5.915	5.786	5.644	5.390	4.963	5.059	4.898	5.387	5.327	5.056	5.366	5.314	5.056	5.039	5.716
395.0	1135	1341	1477	1506	1556	1559	1520	1455	1375	1315	1240	1188	1108	1048	981.7	940.1	906.7	878.8	854.8	825.2	781.9	744.5	700.9	646.0	598.1	570.6	479.5	360.6	279.3	219.0	163.1	144.5	248.1	524.4	1467	2384	267.1	11.44	3.261	2.569	2.001	2.132	2.294	2.168	2.488	2.836	3.164	3.588	3.943	3.559	3.928	5.202	5.155	5.715	5.650	5.828	6.448	6.560	6.302	6.457	6.304	5.960	6.400	5.566	5.691	5.512	5.129	5.385	5.347	5.248	5.367	5.472	5.651	5.342	5.207	5.384	5.687
400.0	1145	1346	1475	1510	1582	1547	1559	1486	1397	1351	1283	1206	1142	1070	1009	960.2	929.5	905.0	884.4	853.3	815.6	773.0	738.1	681.6	625.3	588.8	549.6	435.8	328.3	261.0	199.3	146.2	132.3	169.9	422.7	1894	2090	202.4	6.239	3.286	2.257	2.250	2.002	2.385	2.750	2.981	3.156	3.804	3.752	3.552	4.074	5.201	5.252	5.625	5.756	5.811	6.240	6.345	6.637	6.369	6.242	6.001	6.110	5.781	5.641	5.460	5.376	5.485	5.538	5.537	5.336	5.344	5.425	5.478	5.395	5.366	5.743
405.0	1161	1348	1481	1535	1551	1543	1559	1496	1421	1371	1299	1225	1161	1090	1032	969.9	948.2	923.9	903.0	867.4	831.0	800.5	764.5	710.2	656.7	602.1	562.5	506.1	386.6	301.6	234.2	172.8	126.5	104.6	139.8	579.4	2088	1664	34.07	4.441	2.705	2.561	2.265	2.289	2.668	2.951	3.237	3.678	3.805	3.550	3.944	4.945	5.145	5.846	5.636	6.133	6.362	6.304	6.149	6.076	5.966	6.112	6.428	5.840	5.772	5.670	5.487	5.585	5.510	5.643	5.451	5.527	5.525	5.595	5.785	5.631	5.841
410.0	1160	1341	1464	1517	1555	1536	1554	1501	1439	1388	1324	1245	1167	1098	1035	977.8	946.9	931.9	904.8	879.2	851.2	822.6	785.2	743.2	689.2	632.8	574.7	539.3	472.3	368.6	281.9	211.9	156.3	116.5	95.46	173.2	625.8	1543	1530	147.6	10.50	3.126	2.771	2.712	2.658	3.086	3.259	3.615	3.848	3.661	4.003	4.948	5.120	5.544	5.595	5.783	6.388	6.182	6.266	6.243	6.189	6.109	6.314	6.126	5.699	5.842	5.567	5.631	5.642	5.625	5.371	5.621	5.641	5.555	5.796	5.617	5.936
415.0	1162	1304	1438	1455	1516	1520	1531	1502	1454	1385	1335	1250	1166	1094	1025	968.5	941.1	920.9	901.3	880.4	848.4	830.2	799.9	761.7	714.0	654.9	595.5	546.5	519.0	449.6	333.4	256.9	191.6	142.7	105.8	98.91	179.7	388.3	1084	1758	228.2	9.352	3.470	3.058	2.850	2.981	3.099	3.715	3.690	3.753	3.847	4.922	5.063	5.350	5.814	5.761	6.266	6.482	6.406	6.378	6.009	6.504	6.185	6.014	5.900	5.966	5.660	5.737	5.679	5.380	5.403	5.430	5.578	5.764	5.724	5.467	5.956
420.0	1120	1291	1430	1456	1480	1514	1501	1500	1456	1395	1336	1255	1160	1088	1008	956.8	926.5	907.1	890.8	867.7	841.2	824.1	793.4	762.6	718.4	673.0	613.2	560.3	519.2	489.2	386.2	288.4	218.2	164.4	123.6	94.25	90.31	120.7	309.4	1363	1550	35.69	5.838	3.478	2.957	3.188	3.143	3.626	3.725	3.826	3.924	5.063	5.072	5.453	5.545	5.582	6.209	6.199	6.754	6.443	6.522	6.554	6.337	6.253	5.891	5.930	5.514	5.740	5.943	5.437	5.384	5.406	5.544	5.624	5.444	5.657	5.737
425.0	1135	1269	1390	1405	1460	1469	1468	1477	1428	1396	1322	1248	1160	1082	994.4	939.9	904.8	893.6	879.7	856.9	839.3	817.1	795.2	762.5	726.2	672.1	622.6	573.6	523.2	494.6	432.0	322.2	243.7	187.3	140.2	105.9	81.19	68.68	98.68	419.3	1512	1200	31.51	4.736	3.422	3.463	3.186	3.497	3.801	3.783	3.930	4.836	4.969	5.269	5.605	5.749	5.985	5.930	6.449	6.348	6.423	6.318	6.227	6.282	5.717	5.792	5.624	5.530	5.817	5.266	5.308	5.311	5.322	5.333	5.357	5.627	5.923
430.0	1161	1257	1336	1388	1431	1432	1460	1444	1441	1388	1322	1231	1149	1064	974.1	916.6	887.3	869.2	860.3	837.7	818.0	800.0	784.6	761.7	725.5	678.3	636.2	586.5	540.7	495.7	449.6	378.1	283.3	216.4	167.8	128.0	96.29	72.20	63.32	123.2	449.9	1108	1165	136.5	10.80	4.012	3.642	3.701	3.762	3.552	3.753	4.750	4.851	5.034	5.422	5.586	5.968	5.981	5.990	6.282	6.224	6.219	6.149	6.118	5.995	5.801	5.641	5.351	5.504	5.319	5.241	5.030	5.270	5.101	5.407	5.434	5.588
435.0	1471	1218	1289	1345	1392	1400	1416	1436	1416	1381	1311	1224	1136	1046	949.8	889.6	862.0	841.5	833.9	813.5	806.0	786.5	771.3	754.5	719.4	681.3	642.9	592.0	555.8	510.4	454.9	404.5	337.0	251.4	194.9	152.6	118.0	90.28	68.63	68.49	130.0	279.0	808.0	1447	216.2	11.44	4.289	4.039	3.944	3.437	3.703	4.446	4.572	4.880	5.441	5.516	5.879	5.846	5.999	6.098	6.302	6.322	5.956	5.848	5.732	5.830	5.515	5.498	5.440	5.191	5.080	4.895	5.382	5.128	5.356	5.246	5.446
440.0	1873	1220	1272	1332	1355	1365	1416	1419	1406	1372	1305	1219	1116	1035	936.1	875.3	840.9	825.7	808.3	794.2	785.8	763.6	754.3	743.5	714.1	674.5	643.7	598.6	561.5	518.8	459.1	406.0	360.2	283.1	215.2	170.1	134.9	104.9	80.44	64.64	65.41	90.59	232.7	1112	1349	170.1	7.268	4.631	4.258	3.545	3.658	4.588	4.513	4.851	5.462	5.133	5.745	5.911	5.853	6.200	6.035	6.193	5.899	5.753	5.745	5.950	5.443	5.539	5.587	5.333	5.380	5.180	5.330	5.334	5.121	5.138	5.408
445.0	2034	1421	1226	1278	1306	1326	1378	1384	1391	1355	1287	1196	1101	1004	913.6	847.7	820.1	797.5	789.7	768.4	759.3	745.3	735.7	725.7	700.5	662.8	632.5	599.5	563.5	522.0	467.4	406.3	362.6	310.5	238.7	185.7	150.0	118.8	91.79	72.90	58.98	53.06	77.90	343.2	1296	1134	28.01	6.178	4.333	3.778	3.841	4.250	4.486	4.745	5.253	5.055	5.605	5.751	5.844	5.876	5.718	6.018	6.238	6.032	5.832	5.461	5.530	5.167	5.522	5.189	5.212	5.180	5.445	5.092	5.085	5.201	5.247
450.0	1576	2021	1263	1214	1237	1262	1312	1342	1329	1306	1252	1161	1056	963.7	873.5	809.1	775.1	756.1	744.0	730.4	720.6	711.6	701.1	690.5	667.5	640.2	614.3	584.4	552.2	517.5	465.7	406.9	355.3	313.3	268.9	208.9	165.8	134.4	108.3	85.98	69.54	56.13	51.65	103.0	384.4	982.7	1064	124.5	10.65	4.158	3.871	4.436	4.524	4.524	4.883	4.927	5.457	5.563	5.759	5.725	5.868	5.629	5.926	5.859	5.705	5.327	5.332	5.047	5.224	5.308	5.009	4.863	4.804	5.014	4.792	4.822	4.987
455.0	1030	2122	1685	1149	1163	1199	1236	1277	1270	1242	1195	1118	1009	908.3	817.0	753.3	721.4	702.2	696.3	680.8	668.1	664.8	657.4	641.9	629.3	608.3	583.6	557.9	531.7	502.4	457.5	402.6	348.2	302.7	273.7	234.9	184.2	148.4	122.5	99.52	81.22	66.81	54.76	55.58	110.5	246.3	643.7	1203	183.0	10.42	4.162	4.769	4.524	4.194	4.462	4.655	5.173	5.244	5.619	5.640	5.519	5.360	5.841	5.489	5.292	5.203	5.059	4.798	4.832	4.949	4.845	4.530	4.481	4.533	4.566	4.800	4.907
460.0	835.9	1698	2184	1156	1092	1135	1168	1202	1216	1188	1151	1069	954.4	869.1	777.4	712.7	683.7	661.7	651.3	637.8	628.3	623.3	619.5	607.5	596.1	575.0	551.3	533.7	511.8	487.0	444.0	396.9	345.8	297.6	266.3	242.5	199.3	158.9	130.5	108.2	88.93	74.96	59.58	50.25	53.47	76.61	177.9	834.3	1077	139.8	7.066	5.024	4.670	4.235	4.468	4.565	5.042	5.271	5.148	5.271	5.174	5.593	5.535	5.375	5.074	5.014	4.904	4.650	4.619	4.879	4.575	4.544	4.506	4.618	4.173	4.328	4.589
465.0	775.1	1207	2316	1418	1020	1089	1120	1137	1166	1127	1096	1011	912.0	827.4	743.6	678.1	643.3	619.7	616.6	594.7	589.9	583.4	578.1	570.3	561.1	543.4	525.6	507.5	488.1	465.6	429.4	386.1	336.4	292.9	256.8	234.6	208.3	167.1	134.9	114.2	94.15	79.27	65.14	51.58	42.93	41.92	58.14	243.9	959.9	878.4	23.52	6.125	4.602	4.520	4.170	4.164	4.801	4.963	4.952	4.910	4.965	5.365	4.988	5.287	4.864	4.889	4.721	4.676	4.437	4.465	4.399	4.238	4.252	4.001	4.049	4.293	4.509
470.0	721.3	900.7	1719	2022	1057	982.7	1015	1055	1071	1045	1016	938.4	851.8	757.0	684.1	623.5	591.8	565.3	553.7	541.4	535.8	527.2	523.9	522.3	511.3	496.5	481.2	467.1	451.6	433.0	405.4	363.8	320.6	280.9	246.4	217.6	199.5	175.6	143.1	117.6	99.34	83.64	69.90	56.84	45.51	37.05	34.33	70.99	272.6	671.3	752.0	269.1	11.44	4.768	4.219	4.157	4.570	4.549	4.528	4.645	4.746	4.912	4.778	4.800	4.651	4.500	4.600	4.277	4.137	4.135	4.048	3.857	3.996	3.916	3.868	3.841	4.082
475.0	690.7	755.3	1027	2097	1484	893.6	920.4	971.8	973.3	970.8	929.1	866.7	783.2	702.7	624.0	565.5	534.1	510.0	495.5	482.5	478.3	471.6	470.0	467.5	460.9	448.2	433.9	425.2	413.6	399.1	374.0	336.9	300.0	265.0	233.7	206.0	184.4	171.4	150.3	122.0	100.7	84.61	72.14	60.76	49.55	39.55	32.26	35.23	75.36	163.7	368.6	832.2	189.3	13.10	4.426	4.029	4.161	4.246	4.156	4.261	4.215	4.664	4.516	4.239	4.197	4.214	3.942	3.818	3.749	3.763	3.883	3.569	3.537	3.337	3.483	3.634	3.652
480.0	625.4	676.5	791.7	1596	2020	907.6	873.9	895.4	906.3	910.8	880.6	814.5	740.1	655.2	590.2	533.9	500.2	474.1	460.7	450.0	442.2	436.4	434.2	433.4	424.3	414.9	404.7	396.0	389.0	375.4	350.0	318.6	284.9	255.1	227.2	200.9	177.6	160.5	150.3	127.9	102.7	86.75	73.74	62.61	50.31	42.15	33.78	28.94	32.85	48.98	98.13	455.9	787.1	170.1	8.015	4.328	4.253	3.891	4.226	4.114	4.015	4.224	4.456	4.235	4.049	3.914	3.950	3.591	3.805	3.435	3.499	3.457	3.326	3.226	3.297	3.408	3.367
485.0	591.5	652.8	681.8	1058	2188	1179	805.1	844.7	868.2	859.7	844.2	772.4	708.6	624.7	553.3	501.6	467.2	449.0	431.7	423.6	415.1	407.9	405.9	404.0	398.4	386.6	378.7	371.2	365.8	356.5	333.9	306.1	272.3	244.1	218.7	193.7	171.4	153.4	145.9	132.7	108.0	88.50	75.63	63.90	54.39	44.34	36.80	29.39	25.26	25.28	33.22	126.4	581.7	743.8	28.82	5.681	4.302	4.008	3.725	3.916	3.808	3.992	4.284	3.787	4.069	3.633	3.808	3.647	3.559	3.199	3.485	3.267	3.468	3.337	3.298	3.237	3.057
490.0	499.3	633.8	646.7	747.3	1571	1869	863.7	782.9	803.1	801.0	775.9	725.5	653.6	579.1	515.6	465.3	432.5	414.1	397.1	388.9	376.6	373.3	371.9	367.2	363.9	355.4	348.5	343.5	339.0	329.9	313.3	285.8	257.7	231.7	207.1	187.3	167.9	148.5	135.6	127.2	112.6	92.24	77.39	66.52	57.41	47.91	39.98	32.67	26.27	22.00	20.93	39.70	156.7	449.3	622.8	279.2	13.64	4.274	3.959	3.745	3.890	3.787	3.737	3.743	3.609	3.388	3.543	3.282	3.466	3.124	3.207	3.099	2.943	3.000	2.962	2.900	2.918
495.0	470.5	571.2	616.4	607.6	886.4	1949	1323	709.8	735.3	735.8	717.2	664.7	598.6	529.3	468.8	426.6	393.6	377.7	359.7	351.5	341.7	337.2	336.2	335.3	326.8	320.7	315.8	314.3	308.7	303.0	287.4	265.0	238.7	215.3	194.2	175.2	159.3	142.9	127.3	117.3	109.7	98.61	80.74	67.78	58.99	49.18	41.44	34.87	28.63	23.09	20.07	21.75	45.02	109.6	278.6	740.0	228.0	17.01	4.295	3.969	3.702	3.539	3.458	3.444	3.404	3.372	3.276	3.005	2.970	2.795	2.708	2.866	2.904	2.938	2.691	2.700	2.771
500.0	399.6	515.6	609.5	572.9	642.4	1434	1879	723.8	677.8	676.1	661.5	629.7	556.0	496.6	439.9	395.9	368.1	346.5	332.3	319.1	313.1	308.6	308.7	304.2	301.6	294.7	289.8	288.8	285.2	275.3	266.7	246.2	224.3	203.8	181.5	167.0	151.2	137.1	121.8	108.8	101.4	97.50	83.06	68.04	58.77	49.92	42.77	36.01	30.09	25.12	20.60	18.72	21.24	33.88	72.97	354.9	755.1	201.9	11.09	3.946	3.562	3.335	3.372	3.100	3.287	3.150	2.982	2.963	2.761	2.793	2.687	2.576	2.623	2.620	2.468	2.632	2.627
505.0	360.4	470.2	574.0	545.5	550.7	912.2	2071	989.7	630.1	625.5	612.3	580.6	518.1	463.2	410.9	364.3	339.2	319.3	306.1	292.7	286.7	283.4	280.4	278.4	274.3	268.1	266.5	265.0	263.2	258.9	246.7	229.2	209.6	188.7	171.1	157.4	142.7	128.6	116.6	104.8	94.60	90.52	83.69	68.68	58.53	50.86	43.96	36.10	30.89	25.59	21.71	18.79	16.79	17.61	25.02	93.14	445.9	709.3	157.9	6.570	3.721	3.030	3.166	3.052	3.060	2.968	2.814	2.729	2.638	2.527	2.508	2.445	2.522	2.609	2.308	2.326	2.456
510.0	332.4	413.6	473.4	504.9	497.9	591.2	1434	1726	660.4	568.7	558.5	519.7	461.0	415.2	369.5	328.9	301.7	282.1	273.0	258.6	255.5	251.1	247.0	245.1	242.6	239.3	237.1	234.1	234.2	230.6	220.0	205.5	188.3	171.0	156.2	143.6	130.7	119.1	108.2	96.98	87.58	81.84	77.77	69.68	58.96	50.03	43.45	36.70	31.59	26.75	23.15	19.58	16.20	14.68	15.27	28.91	114.5	354.5	533.4	246.5	14.66	3.419	3.042	2.809	2.814	2.729	2.607	2.657	2.554	2.303	2.323	2.220	2.462	2.255	2.298	2.173	2.303
515.0	297.0	348.1	395.3	471.8	451.6	460.9	729.0	1859	1121	515.9	491.0	457.3	408.7	372.1	328.2	289.2	267.1	249.7	241.5	227.7	222.6	218.5	217.1	214.0	211.3	207.3	207.0	207.5	205.8	204.1	194.7	179.6	166.2	153.2	139.3	128.1	118.0	107.0	98.15	89.11	81.19	73.59	68.98	66.08	60.31	49.66	42.15	35.88	30.81	27.63	23.11	20.37	17.06	14.53	13.56	15.51	32.80	85.32	184.8	524.4	232.2	18.77	3.056	2.668	2.493	2.606	2.453	2.458	2.240	2.266	2.027	2.143	2.187	2.028	2.036	1.792	2.035
520.0	276.5	319.6	360.0	425.2	427.5	404.0	485.1	1306	1737	529.9	445.6	422.1	375.8	339.3	293.4	262.8	238.2	226.1	219.4	206.4	198.1	198.1	193.4	193.3	190.0	190.1	185.2	185.0	184.8	182.4	174.7	164.3	152.1	139.2	127.2	115.6	108.2	98.80	91.52	82.92	74.98	68.47	62.75	58.86	58.17	50.76	41.09	35.70	31.00	27.11	23.53	20.25	17.75	15.16	13.39	12.84	14.98	25.59	47.71	219.9	534.5	202.3	11.92	2.702	2.533	2.444	2.266	2.247	1.911	2.003	1.915	1.954	1.871	1.812	1.774	1.827	1.846
525.0	256.3	287.1	319.7	357.1	413.5	374.2	404.1	747.4	2020	791.8	408.1	384.7	346.5	307.8	269.9	242.8	219.9	207.7	198.8	186.7	183.6	179.4	174.6	174.6	172.9	173.4	167.1	168.1	168.4	167.4	159.6	150.5	139.0	126.1	116.1	107.0	98.06	91.70	84.46	76.53	69.96	62.92	58.59	55.21	54.01	49.74	41.48	34.71	30.28	26.29	23.49	19.66	17.91	15.49	13.66	12.23	11.91	12.64	16.49	56.13	269.5	510.4	153.4	5.834	2.583	2.364	2.201	2.029	1.942	2.020	1.747	1.768	1.673	1.690	1.776	1.835	1.654
530.0	213.2	256.5	276.3	297.8	372.4	355.9	352.8	440.8	1329	1590	456.3	337.8	307.4	270.4	238.5	213.4	196.5	183.1	174.3	165.5	160.5	156.6	151.7	151.4	150.3	148.7	146.6	146.6	146.2	144.8	140.1	131.9	121.5	111.6	103.1	95.19	88.53	81.47	75.24	68.66	63.05	57.88	52.76	49.35	46.91	45.86	41.06	34.24	28.51	24.98	22.19	19.46	17.23	15.63	13.68	12.07	10.90	10.06	9.684	17.58	67.47	222.1	369.6	138.4	14.65	2.375	2.019	1.907	1.780	1.622	1.477	1.644	1.693	1.578	1.482	1.599	1.522
535.0	181.8	219.2	245.2	253.6	300.6	349.2	316.7	330.4	587.5	1744	958.4	300.8	265.9	238.3	204.5	187.5	172.0	157.8	147.3	143.0	137.6	132.7	131.0	131.5	130.0	127.3	125.6	124.6	125.9	125.3	120.7	111.9	104.6	96.59	89.94	82.92	76.24	70.91	65.87	60.51	55.60	52.51	48.28	44.54	40.92	39.29	38.23	33.82	27.65	23.77	20.61	18.68	16.20	14.49	13.75	12.08	10.50	9.106	8.038	8.949	19.41	52.98	113.8	329.0	227.4	18.16	1.938	1.880	1.728	1.597	1.510	1.392	1.430	1.357	1.306	1.311	1.358
540.0	170.5	193.5	215.8	222.3	244.5	322.9	288.7	283.5	344.3	1133	1621	318.5	240.0	209.3	183.3	165.8	153.0	143.8	132.7	127.2	121.9	117.7	117.0	116.9	113.6	113.0	112.1	108.6	111.1	110.6	106.0	100.2	93.64	86.04	80.18	74.54	68.87	63.65	59.73	54.96	50.93	47.32	43.34	40.36	37.14	34.17	33.89	32.31	26.95	22.31	19.29	17.72	15.46	14.24	12.87	11.86	10.22	8.819	7.434	6.906	8.517	15.59	28.79	126.4	371.6	186.2	10.47	1.870	1.635	1.598	1.417	1.281	1.305	1.259	1.236	1.236	1.172
545.0	150.6	172.4	180.9	192.0	214.2	270.8	280.2	248.4	264.9	564.7	1868	545.5	210.0	191.1	164.0	144.6	134.1	126.5	120.4	111.3	109.8	104.6	102.7	103.6	100.9	101.3	98.98	97.81	99.59	98.51	95.04	89.39	83.13	76.89	71.65	65.74	61.26	56.76	53.51	49.06	44.92	42.84	38.60	36.66	33.88	30.95	29.54	29.12	26.24	21.90	18.75	17.14	14.38	13.32	12.39	11.90	10.15	8.640	7.233	6.535	6.350	7.344	9.458	31.97	167.1	355.4	122.6	4.567	1.548	1.512	1.309	1.216	1.246	1.184	1.243	1.032	1.104
550.0	133.4	146.3	163.2	165.8	179.1	211.4	264.0	221.1	213.6	296.4	1108	1296	239.4	161.6	140.5	123.2	114.8	107.4	101.2	94.31	91.32	88.01	86.56	85.46	83.48	82.41	82.32	82.66	82.22	82.39	79.15	74.75	69.46	65.16	60.22	56.05	52.03	49.27	45.99	42.37	39.10	36.56	33.73	31.57	29.34	26.86	25.51	24.44	23.49	20.56	17.32	15.05	13.06	11.97	11.37	10.39	9.282	8.591	6.962	6.024	5.364	5.046	5.119	9.655	40.97	144.0	231.5	127.2	12.80	1.507	1.303	1.216	1.190	1.065	1.115	1.018	1.031
555.0	119.2	127.4	139.3	139.4	151.4	160.2	212.6	212.7	178.2	200.2	414.9	1479	595.8	135.4	115.7	104.8	93.47	87.66	81.78	78.11	75.14	72.38	72.12	70.09	68.67	67.89	67.11	67.39	67.51	66.88	66.00	62.15	57.08	53.58	49.17	45.82	42.73	40.92	37.64	35.40	32.83	30.53	28.45	26.56	24.51	22.89	21.51	20.07	18.94	18.30	15.93	13.94	11.36	10.72	10.01	9.016	8.308	7.745	7.033	5.658	4.921	4.324	3.835	4.586	11.27	33.85	70.71	213.2	173.9	14.64	1.365	1.158	1.001	0.953	1.068	0.972	0.949
560.0	100.9	109.9	113.9	121.0	126.6	138.1	163.3	205.6	155.5	162.1	207.9	911.6	1170	146.8	99.93	88.00	80.82	76.12	70.54	65.41	65.43	61.26	61.11	59.38	57.88	56.98	57.63	58.64	56.96	56.91	55.58	52.34	47.88	45.41	41.47	38.94	36.67	34.28	32.44	30.31	27.60	26.56	24.47	22.72	21.76	20.25	18.49	17.24	15.89	15.53	14.81	12.68	10.41	9.440	8.703	8.139	7.557	7.035	6.451	5.362	4.322	3.969	3.455	3.284	4.481	9.128	17.43	78.35	231.7	119.1	6.839	1.238	0.900	0.848	0.837	0.853	0.801
565.0	101.2	112.5	107.7	103.5	111.7	116.7	129.1	184.2	146.0	131.7	149.1	402.9	1452	295.9	88.47	76.56	67.84	65.89	60.44	57.21	55.73	53.17	52.00	50.76	50.19	49.34	49.19	48.92	49.17	48.54	46.77	43.89	40.64	39.19	35.24	33.97	31.81	28.87	27.38	26.42	24.29	23.43	21.13	19.97	18.53	17.72	16.17	15.11	13.68	13.05	13.31	11.84	9.529	8.681	7.957	7.400	6.704	6.176	5.579	5.193	4.074	3.710	3.303	3.001	2.956	3.592	5.454	19.35	100.1	213.7	33.55	2.703	0.857	0.863	0.859	0.827	0.803
570.0	90.29	96.20	86.30	89.30	91.79	96.29	99.72	141.9	152.1	113.9	114.2	174.1	856.2	909.5	101.2	62.58	56.69	52.63	49.07	47.11	44.86	43.44	41.88	41.24	40.59	39.67	39.29	39.48	39.38	39.74	38.08	36.73	33.22	31.99	29.52	27.94	25.76	24.49	22.99	21.42	20.12	18.38	17.28	16.43	15.34	14.73	13.39	12.67	11.44	10.74	10.34	10.19	9.116	7.808	6.772	6.432	5.687	5.329	4.784	4.424	3.899	3.350	2.926	2.573	2.371	2.347	2.628	5.422	24.23	83.57	136.1	82.28	10.18	0.846	0.819	0.718	0.768
575.0	79.27	81.88	73.80	73.21	72.60	77.13	82.86	98.60	142.4	109.4	94.87	109.4	281.2	1089	357.2	51.91	44.87	42.46	40.16	37.34	35.51	34.96	34.05	32.17	32.37	32.18	31.95	31.64	31.36	31.90	31.03	29.17	26.98	25.44	23.25	22.40	20.78	19.53	17.71	17.64	16.45	14.71	14.44	13.65	13.11	12.33	11.65	10.84	9.548	8.888	8.280	7.993	8.126	6.918	5.892	5.599	5.184	4.648	4.376	3.663	3.500	3.277	2.708	2.406	2.182	2.015	1.846	2.285	6.469	19.73	40.06	125.3	104.1	10.16	0.736	0.669	0.724
580.0	75.48	74.89	67.66	63.20	66.87	63.13	70.08	77.66	121.8	113.6	83.60	83.61	117.6	666.3	795.7	57.91	38.42	36.95	32.84	32.27	29.99	29.12	29.92	28.41	27.88	27.51	27.06	26.44	26.48	27.14	26.30	24.39	23.09	21.49	19.92	18.70	18.61	16.71	15.34	14.65	14.03	12.83	11.87	11.44	11.14	10.18	10.25	9.220	8.167	7.460	7.064	6.646	6.797	6.529	5.381	4.955	4.677	4.007	3.847	3.293	3.255	2.869	2.591	2.268	1.783	1.811	1.621	1.572	2.437	5.320	9.884	45.29	134.8	35.72	4.419	0.610	0.630
585.0	74.40	68.08	64.56	60.16	59.40	55.43	63.06	64.73	95.30	120.3	78.43	72.95	75.51	269.1	1013	108.4	33.28	31.33	28.44	27.50	26.93	24.54	25.28	24.19	23.89	23.80	23.11	22.56	23.05	23.62	22.40	21.49	19.32	18.15	17.15	16.47	16.10	14.75	13.85	13.12	11.95	11.28	10.86	9.989	9.438	9.114	8.423	8.158	7.299	6.780	6.047	5.807	5.644	6.041	5.177	4.537	4.255	3.865	3.301	3.129	2.836	2.480	2.426	2.320	1.880	1.625	1.602	1.406	1.460	1.974	3.033	11.22	56.63	117.3	31.19	2.033	0.672
590.0	72.24	67.58	57.95	52.93	48.60	49.35	51.54	55.28	67.07	107.9	85.07	65.05	58.17	99.08	590.3	545.4	43.80	25.55	24.53	22.43	21.75	20.69	20.16	19.38	19.48	18.97	18.52	18.56	18.53	19.18	18.52	17.49	16.20	15.01	14.13	13.08	12.90	12.06	11.33	10.57	9.888	9.356	9.069	8.377	7.952	7.689	6.961	6.740	5.989	5.700	5.101	4.813	4.386	4.746	4.615	4.248	3.693	3.329	2.845	2.561	2.511	2.136	2.070	2.166	1.966	1.518	1.455	1.309	1.200	1.321	1.446	3.238	13.67	46.79	81.81	53.14	7.302
595.0	65.50	60.32	48.03	47.78	42.53	40.02	44.15	47.94	54.80	79.49	94.38	59.55	51.06	53.13	179.4	710.7	182.4	21.20	20.18	17.97	17.37	16.21	16.28	15.73	15.36	15.44	14.65	15.46	14.93	15.79	14.52	14.26	13.09	12.10	11.22	11.03	9.893	9.584	9.075	8.922	8.252	7.236	7.234	6.750	6.564	6.136	5.596	5.469	5.012	4.560	4.120	3.901	3.766	3.645	3.719	3.844	3.521	3.033	2.503	2.302	2.206	1.934	1.937	1.697	1.758	1.476	1.281	1.245	1.135	1.011	1.066	1.328	3.619	11.04	23.65	72.13	63.06
600.0	57.41	58.45	50.44	38.69	40.34	38.22	39.89	39.25	44.81	60.76	96.75	64.89	46.85	41.25	64.33	455.0	458.4	24.87	16.72	15.69	15.30	14.08	13.58	13.18	13.01	13.85	13.07	12.41	12.64	12.52	11.83	11.93	10.50	10.36	9.851	9.341	8.179	7.871	7.790	7.294	6.707	6.314	6.303	5.588	5.513	5.307	4.754	4.593	4.257	4.025	3.597	3.312	3.109	3.070	2.895	3.368	3.152	2.590	2.339	2.084	2.017	1.736	1.643	1.558	1.470	1.448	1.335	1.164	1.024	1.030	0.947	0.981	1.369	3.027	5.816	25.57	79.62
605.0	52.71	51.59	53.31	33.81	35.99	33.15	38.35	38.97	41.91	50.65	87.15	71.69	43.71	36.16	35.56	176.4	640.1	63.75	14.56	13.13	12.97	12.07	11.82	11.42	11.18	11.21	11.01	10.16	10.76	10.71	10.94	9.958	9.042	8.597	8.197	8.041	7.220	6.491	6.440	6.266	5.457	5.500	5.085	4.898	4.834	4.440	4.091	3.807	3.558	3.411	3.150	2.907	2.675	2.631	2.401	2.837	2.946	2.398	2.153	1.783	1.693	1.552	1.463	1.480	1.335	1.314	1.288	1.104	0.887	0.784	0.864	0.877	0.812	1.142	1.740	6.385	32.22
610.0	57.65	55.03	44.35	33.69	30.99	28.96	32.35	33.59	36.77	42.97	62.92	77.00	44.74	32.93	26.16	57.26	408.3	332.1	18.69	11.14	10.84	10.12	9.707	9.292	9.222	8.867	9.138	8.244	8.783	8.899	8.583	8.234	7.246	7.024	6.558	6.528	5.864	5.574	5.168	5.099	4.601	4.602	3.963	4.113	3.937	3.668	3.414	3.259	3.119	2.812	2.494	2.517	2.296	2.190	2.120	2.269	2.439	2.193	2.101	1.477	1.434	1.366	1.274	1.209	1.198	1.069	1.182	1.076	0.970	0.800	0.786	0.728	0.782	0.713	0.888	1.901	7.892
615.0	49.72	49.08	41.95	30.86	28.60	26.78	28.05	31.05	33.50	36.15	46.66	71.22	50.80	30.44	21.66	24.55	122.4	490.4	70.46	9.182	8.542	8.380	7.884	7.008	7.595	7.146	7.033	6.891	7.132	7.016	6.431	6.376	5.674	5.713	5.044	5.165	4.933	4.225	4.256	3.860	3.616	3.710	3.398	3.320	3.177	2.858	3.049	2.645	2.475	2.357	2.107	1.875	1.864	1.704	1.835	1.675	1.863	1.711	1.886	1.265	1.268	1.180	1.183	1.005	1.087	0.785	0.945	1.018	0.950	0.799	0.760	0.719	0.673	0.579	0.669	0.901	2.185
620.0	45.28	46.00	32.88	30.08	26.48	24.26	26.18	27.39	30.27	32.63	38.86	57.36	57.02	28.36	19.64	16.71	38.07	347.7	276.2	10.13	7.535	6.814	7.031	5.943	6.629	6.344	6.004	5.663	6.331	5.888	5.661	5.343	4.900	4.865	4.170	4.275	3.868	3.706	3.746	3.242	3.241	3.054	2.732	2.846	2.654	2.393	2.570	2.351	2.168	1.931	1.692	1.753	1.512	1.445	1.519	1.451	1.473	1.510	1.634	1.316	1.170	1.194	1.098	0.940	0.912	0.794	0.815	0.838	0.848	0.796	0.717	0.634	0.514	0.543	0.498	0.636	0.884
625.0	44.18	40.61	30.91	28.95	22.57	21.34	23.60	25.62	27.42	31.94	36.05	46.07	58.34	29.92	18.06	14.50	16.22	142.1	442.0	32.92	6.423	5.980	5.837	5.336	5.495	5.138	5.221	4.871	5.084	5.296	5.094	5.015	4.393	4.221	3.942	3.660	3.246	3.205	3.124	2.626	2.558	2.634	2.357	2.451	2.166	2.086	2.141	1.941	1.881	1.587	1.549	1.628	1.351	1.322	1.221	1.373	1.239	1.251	1.340	1.308	1.128	1.015	0.890	0.900	0.887	0.724	0.774	0.649	0.775	0.800	0.725	0.546	0.624	0.489	0.599	0.516	0.610
630.0	46.18	41.53	31.69	26.61	21.68	19.59	21.64	22.67	25.51	29.59	33.19	37.11	50.73	36.78	17.51	12.43	11.31	41.16	317.6	181.6	7.937	4.804	5.031	4.255	4.364	4.296	4.343	4.074	4.057	4.268	4.195	3.844	3.623	3.301	3.054	2.954	2.772	2.699	2.486	2.364	2.216	2.162	2.008	2.061	1.894	1.873	1.727	1.639	1.567	1.367	1.287	1.246	1.245	1.132	1.153	1.048	1.092	1.048	1.071	1.094	0.988	0.851	0.857	0.797	0.798	0.738	0.743	0.645	0.708	0.755	0.751	0.607	0.576	0.451	0.483	0.466	0.485
635.0	43.79	35.63	32.90	25.69	22.74	18.39	20.16	22.73	22.83	27.40	30.42	31.76	36.92	40.81	19.08	10.96	9.072	14.32	97.80	358.8	46.29	4.034	3.752	3.834	3.346	3.166	3.493	3.150	3.154	3.202	3.056	3.144	2.713	2.600	2.460	2.272	2.287	2.021	1.883	1.884	1.756	1.831	1.651	1.538	1.581	1.400	1.318	1.242	1.187	1.198	1.020	1.013	1.028	0.998	0.946	0.966	0.881	0.886	0.783	0.946	0.993	0.793	0.774	0.668	0.644	0.590	0.669	0.558	0.573	0.570	0.657	0.713	0.550	0.443	0.491	0.465	0.446
640.0	45.72	34.52	32.33	21.81	20.85	17.09	19.22	21.02	21.01	24.53	27.27	30.01	29.53	41.38	23.52	11.58	8.882	8.182	28.25	285.0	173.8	4.349	3.487	3.116	2.820	2.969	2.674	2.621	2.772	2.735	2.522	2.530	2.193	2.224	2.181	1.945	1.848	1.853	1.611	1.567	1.560	1.460	1.409	1.396	1.424	1.213	1.063	1.162	1.001	1.019	0.920	0.871	0.876	0.830	0.815	0.860	0.732	0.700	0.656	0.800	0.768	0.781	0.725	0.707	0.623	0.637	0.613	0.583	0.572	0.574	0.595	0.618	0.651	0.437	0.431	0.629	0.346
645.0	42.58	33.37	32.04	22.40	19.85	17.47	18.42	19.51	20.18	23.46	26.37	27.11	28.02	34.34	26.47	11.51	8.348	6.856	10.21	131.4	308.2	14.65	3.203	2.724	2.573	2.581	2.450	2.405	2.283	2.503	2.375	2.106	1.957	2.016	1.678	1.765	1.747	1.535	1.389	1.337	1.321	1.274	1.232	1.174	1.193	1.064	0.864	0.967	0.828	0.812	0.826	0.759	0.710	0.722	0.767	0.715	0.603	0.652	0.694	0.722	0.714	0.648	0.779	0.713	0.624	0.637	0.495	0.508	0.489	0.547	0.497	0.583	0.726	0.527	0.467	0.461	0.445
650.0	43.13	39.00	35.15	23.33	20.05	18.30	16.99	18.87	19.75	22.85	26.65	25.26	26.11	26.76	31.46	12.22	8.042	6.240	6.113	40.37	318.0	59.01	3.040	2.528	2.366	2.224	2.378	2.297	2.045	2.130	2.053	1.668	1.737	1.843	1.557	1.557	1.524	1.460	1.176	1.259	1.239	1.119	1.228	1.073	1.030	0.990	0.767	0.797	0.758	0.708	0.760	0.679	0.590	0.613	0.631	0.676	0.525	0.687	0.612	0.624	0.695	0.623	0.668	0.568	0.610	0.502	0.511	0.461	0.514	0.474	0.499	0.475	0.648	0.594	0.436	0.435	0.464
