Sample:	'1
File name:	C2025051018雅思达格栅前.FD3
Run date:	'19:48:52, 05/10/2025
Operator:	Administrator
Comment:	'

Instrument
Model:	F-2700 FL Spectrophotometer
Serial number:	23B8-004
ROM Version:	4J14000 07

Instrument parameters
Measurement type:	3-D scan
Data mode:	Fluorescence
EX  Start WL:	220.0 nm
EX  End WL:	600.0 nm
EX Sampling interval:	5.0 nm
EM  Start WL:	230.0 nm
EM  End WL:	650.0 nm
EM Sampling interval:	5.0 nm
Scan speed:	12000 nm/min
EX Slit:	5.0 nm
EM Slit:	5.0 nm
PMT Voltage:	700 V
Response:	Auto 
Corrected spectra:	Off
Contour interval:	50.000

Peak integration
Integration method:	Rectangular
Sensitivity:	1
Threshold:	1.000

Peaks
No.	ApexEX/EM(nm)	Height(Data)
1	225.0/340.0	4209
2	255.0/565.0	165.8
3	260.0/575.0	165.2
4	265.0/585.0	170.8
5	270.0/600.0	170.1
6	275.0/335.0	3423
7	275.0/615.0	157.7
8	280.0/625.0	146.2
9	455.0/340.0	14.50
10	560.0/335.0	16.99
11	565.0/340.0	17.08

Data points
	220.0	225.0	230.0	235.0	240.0	245.0	250.0	255.0	260.0	265.0	270.0	275.0	280.0	285.0	290.0	295.0	300.0	305.0	310.0	315.0	320.0	325.0	330.0	335.0	340.0	345.0	350.0	355.0	360.0	365.0	370.0	375.0	380.0	385.0	390.0	395.0	400.0	405.0	410.0	415.0	420.0	425.0	430.0	435.0	440.0	445.0	450.0	455.0	460.0	465.0	470.0	475.0	480.0	485.0	490.0	495.0	500.0	505.0	510.0	515.0	520.0	525.0	530.0	535.0	540.0	545.0	550.0	555.0	560.0	565.0	570.0	575.0	580.0	585.0	590.0	595.0	600.0
230.0	128.1	4869	9999.9	5466	201.3	24.52	17.21	16.36	13.83	13.32	13.03	12.00	11.32	9.759	8.653	7.095	6.724	6.368	5.936	5.376	5.005	4.513	4.239	4.019	3.848	3.889	3.566	3.477	3.508	3.796	3.954	3.987	4.146	4.128	3.993	3.576	3.490	3.201	3.069	2.854	2.739	2.787	2.765	2.535	2.437	2.513	5.810	27.23	53.16	44.25	17.33	4.578	1.847	1.661	1.619	1.557	1.557	1.496	1.385	1.295	1.263	1.217	1.144	1.139	1.102	1.013	0.977	0.860	0.843	0.807	0.765	0.709	0.689	0.700	0.700	0.632	0.609
235.0	168.6	1279	7115	9999.9	4435	286.3	26.26	19.70	17.64	15.68	14.15	12.67	12.67	11.22	9.394	7.394	7.217	6.153	6.250	5.834	5.266	4.933	4.690	4.431	3.985	3.925	3.840	3.633	3.661	3.795	3.823	3.879	3.884	4.130	4.251	4.000	3.453	3.522	2.860	2.755	2.610	2.580	2.914	2.804	2.769	2.493	3.132	8.188	18.91	34.87	56.45	66.15	21.36	8.077	1.977	1.634	1.545	1.528	1.445	1.292	1.208	1.201	1.110	1.150	1.181	1.084	0.961	0.975	0.825	0.862	0.750	0.749	0.691	0.663	0.668	0.639	0.572
240.0	194.7	410.1	2048	9999.9	9999.9	3472	162.5	26.85	21.45	17.21	17.03	14.85	13.38	11.50	9.791	8.820	7.281	6.915	6.056	5.966	5.270	4.920	4.543	4.326	4.189	3.918	3.969	3.910	3.749	3.912	3.889	3.978	3.892	4.143	4.153	3.900	3.838	3.303	3.280	2.907	2.679	2.691	2.774	2.754	2.854	2.787	2.661	3.635	5.895	10.55	27.12	71.81	92.74	74.00	19.18	5.188	1.776	1.702	1.517	1.486	1.475	1.265	1.265	1.234	1.168	1.082	1.001	0.991	0.846	0.833	0.894	0.791	0.708	0.726	0.786	0.602	0.593
245.0	152.0	265.8	552.7	3458	9999.9	9999.9	2554	79.63	30.19	24.39	19.84	16.44	15.00	12.28	10.95	8.999	7.760	7.630	6.840	6.245	5.171	5.342	4.945	4.744	4.449	4.220	4.149	3.927	4.059	4.205	4.239	3.971	4.134	4.271	4.165	3.782	4.003	3.525	3.366	2.901	2.819	2.749	2.733	2.755	2.783	2.739	2.617	2.878	3.149	3.903	7.809	22.83	58.54	110.4	117.5	28.59	15.20	2.860	1.603	1.573	1.408	1.439	1.298	1.176	1.152	1.217	0.963	0.947	0.896	0.920	0.856	0.820	0.743	0.801	0.857	0.638	0.584
250.0	108.6	183.9	308.6	885.1	3784	9999.9	9999.9	8381	160.5	36.95	28.59	22.38	18.23	15.21	12.40	10.75	9.361	8.386	7.086	6.441	5.990	5.620	5.224	4.854	4.737	4.621	4.549	4.285	4.447	4.287	4.358	4.185	4.307	4.226	4.064	3.925	4.122	3.781	3.281	3.202	3.037	2.899	2.761	3.073	2.626	2.592	2.439	2.653	2.835	2.751	3.337	6.640	15.02	33.86	65.54	96.10	134.6	109.0	70.53	11.98	3.180	1.626	1.387	1.280	1.227	1.270	1.038	1.038	1.052	0.970	0.929	0.827	0.752	0.774	0.755	0.738	0.703
255.0	108.8	106.1	188.8	409.0	953.2	2689	9999.9	9999.9	9999.9	193.1	45.25	32.47	25.23	19.80	14.78	12.60	10.16	10.13	8.527	7.277	6.705	6.123	5.150	5.197	4.756	5.040	4.680	4.669	4.740	4.902	5.120	4.635	4.271	4.270	4.166	4.035	4.180	3.959	3.386	3.380	3.390	3.117	2.915	2.931	2.884	2.822	2.334	2.278	2.499	2.485	2.875	3.557	5.057	9.039	16.20	23.74	47.43	111.9	212.5	212.3	30.54	16.38	2.471	1.590	1.441	1.334	1.174	1.212	1.132	1.173	0.971	0.814	0.832	0.867	0.702	0.849	0.783
260.0	118.2	98.53	112.8	262.4	420.6	695.4	3666	9999.9	9999.9	2055	135.5	45.19	32.13	24.59	17.72	14.64	11.25	10.26	9.185	7.761	7.165	6.133	5.884	5.329	5.237	5.299	5.084	5.053	5.339	5.050	5.282	5.052	4.764	4.521	4.176	4.269	3.925	3.826	3.737	3.411	3.410	3.279	2.974	2.979	2.764	2.728	2.521	2.313	2.332	2.233	2.335	3.064	3.332	3.707	5.382	6.923	12.50	30.82	89.94	200.9	269.1	201.7	27.50	10.76	1.872	1.531	1.433	1.357	1.134	1.163	1.110	0.953	0.876	1.034	0.900	1.043	0.849
265.0	145.2	107.2	98.30	153.0	323.0	326.8	921.7	5916	9999.9	9999.9	1642	89.80	45.09	32.52	23.07	17.09	13.64	12.15	11.09	9.113	7.932	7.241	6.797	5.862	5.573	5.460	5.180	5.160	5.121	5.349	5.413	5.389	4.909	4.696	4.451	4.360	4.060	3.806	3.970	3.732	3.576	3.470	3.252	3.049	2.972	3.035	2.632	2.344	2.426	2.132	2.223	2.567	3.008	3.335	3.481	3.318	4.491	8.673	22.31	57.82	146.0	289.6	331.9	181.9	21.64	4.752	1.886	1.522	1.366	1.203	1.246	1.047	1.016	1.046	0.908	0.982	1.009
270.0	511.3	403.3	277.7	160.5	202.6	344.1	438.5	1499	7035	9999.9	9999.9	6425	116.4	52.38	33.89	25.11	18.49	15.59	12.64	10.82	9.489	8.574	7.667	6.970	6.370	5.704	5.830	5.787	5.634	6.232	5.959	5.922	5.467	5.515	5.593	5.197	4.927	4.377	4.173	4.040	4.127	4.162	4.073	3.758	3.965	3.905	3.218	3.123	2.991	2.509	2.285	2.391	2.490	2.649	3.226	3.515	3.565	4.011	6.880	14.78	35.56	83.30	161.8	256.4	265.5	235.0	121.8	14.61	5.276	1.743	1.548	1.290	1.177	1.183	1.012	1.009	1.091
275.0	1491	1256	805.3	330.8	169.0	244.5	517.6	654.6	1846	3654	9999.9	9999.9	8714	128.9	55.83	38.92	26.74	20.51	17.34	13.27	11.02	9.358	8.698	8.145	7.209	6.734	6.451	6.061	6.627	6.499	6.108	6.683	6.496	7.206	7.650	7.153	6.303	5.738	5.423	5.271	5.218	5.401	5.671	5.947	6.040	6.127	5.085	4.730	4.429	3.411	2.919	2.760	2.413	2.456	2.656	2.915	3.731	4.511	4.761	5.943	10.20	21.06	38.75	60.97	84.01	197.9	420.7	474.7	197.7	21.65	3.611	1.953	1.671	1.465	1.332	1.276	1.315
280.0	2415	1919	1247	503.7	200.2	215.2	450.0	722.1	856.4	1264	5615	9999.9	9999.9	1135	100.4	52.26	36.73	26.16	20.50	15.78	13.31	10.94	10.00	8.893	8.191	7.293	6.636	6.690	6.544	6.659	6.758	6.816	7.397	7.982	9.310	8.713	7.567	6.917	6.440	6.504	6.659	6.545	7.130	7.361	7.435	7.861	6.509	6.645	5.715	4.458	3.413	2.975	2.644	2.548	2.691	2.802	3.083	3.934	5.082	5.496	5.367	7.824	11.77	16.66	22.18	51.24	150.3	349.0	531.2	261.5	32.33	15.25	2.485	1.941	1.838	1.546	1.541
285.0	3224	2719	1721	692.5	254.2	238.2	381.5	756.2	929.5	872.7	1850	9404	9999.9	9999.9	861.3	81.92	48.55	34.58	25.79	18.80	15.52	13.06	11.21	9.970	8.955	8.326	7.679	7.163	7.243	7.421	7.069	7.139	8.214	9.509	10.58	10.41	9.291	7.842	7.557	7.241	7.466	7.767	8.494	9.029	9.073	9.196	8.542	8.401	6.939	5.295	3.888	3.342	2.942	2.943	2.798	2.874	3.284	3.740	4.372	5.843	6.266	5.863	6.636	7.565	8.833	15.36	37.32	91.05	219.0	414.2	558.8	246.3	27.27	9.137	2.551	2.014	1.924
290.0	3842	3330	2156	894.0	345.2	294.2	416.2	668.8	1077	1213	1281	2874	9999.9	9999.9	9999.9	3514	84.20	52.69	37.04	26.14	20.30	16.79	14.04	12.19	10.75	9.573	8.975	8.207	8.213	7.917	7.896	7.709	8.703	10.21	11.28	11.72	10.81	9.059	8.703	8.351	8.541	8.664	9.547	9.811	10.57	10.55	10.09	9.734	8.079	6.277	4.873	4.179	3.454	3.327	3.177	3.217	3.581	3.819	4.349	4.779	5.862	6.824	7.324	7.508	6.964	8.242	12.83	24.52	53.20	108.6	218.5	327.4	439.9	403.6	147.0	19.01	8.532
295.0	4037	3526	2414	1120	455.7	372.3	471.4	688.4	1039	1530	1653	1702	3020	4031	9999.9	9999.9	5055	89.37	56.90	37.53	28.04	22.08	17.80	14.86	13.00	11.34	9.554	9.580	9.078	8.573	8.365	8.800	9.011	10.78	11.60	11.78	11.32	9.952	9.461	8.984	8.990	9.125	9.802	10.70	10.89	11.42	10.89	10.93	8.704	7.140	5.347	4.814	3.886	3.652	3.432	3.592	3.561	4.302	4.495	4.947	5.832	6.705	7.466	9.216	10.01	9.152	8.777	11.05	17.00	28.97	52.91	77.12	112.8	209.5	451.5	653.6	266.2
300.0	3964	3684	2573	1248	553.1	431.5	520.7	763.5	1086	1549	2049	1799	1722	1604	5858	9999.9	9999.9	674.9	80.43	51.67	35.35	27.05	22.41	17.56	14.82	12.88	11.17	10.12	10.08	9.606	9.232	9.187	9.368	10.85	12.08	12.39	11.33	10.49	9.958	9.914	9.110	9.607	10.10	10.55	10.77	11.75	11.25	10.97	9.161	7.573	5.846	5.149	4.059	3.973	3.757	3.776	4.021	4.749	5.031	5.583	6.042	6.702	7.663	9.056	10.59	11.03	10.38	9.400	10.45	12.33	17.30	21.78	29.50	52.07	134.9	364.7	635.3
305.0	3903	3625	2693	1344	646.2	498.8	615.0	857.0	1206	1635	2161	2293	1653	1249	1867	9999.9	9999.9	9999.9	540.7	71.89	47.91	33.82	26.47	19.98	16.78	14.79	13.36	11.82	11.00	10.72	9.880	9.970	10.07	11.05	11.78	12.01	11.25	10.46	10.08	9.898	9.156	9.489	9.738	10.47	10.71	11.23	11.39	11.55	9.968	7.622	6.165	5.557	4.261	4.155	4.090	4.106	4.505	5.106	5.483	6.117	6.687	7.390	8.549	9.056	10.00	11.43	12.74	11.62	10.79	9.945	10.62	10.14	11.52	15.85	33.67	89.51	219.8
310.0	3654	3608	2766	1468	747.1	581.0	700.5	970.6	1359	1818	2275	2579	2294	1516	1139	2682	9999.9	9999.9	9999.9	9999.9	158.7	49.34	36.47	26.05	20.75	17.50	15.22	12.93	12.33	11.87	10.95	10.80	10.88	11.39	11.58	11.99	11.70	11.04	10.31	9.958	9.321	9.434	9.800	10.16	10.84	11.43	11.49	11.62	10.41	8.216	6.616	6.145	5.004	4.596	4.451	4.642	5.234	5.533	5.840	6.551	7.246	7.976	9.313	9.829	10.77	11.69	12.53	13.21	13.55	12.72	11.10	9.748	8.773	8.998	11.73	23.45	52.52
315.0	3614	3560	2833	1567	867.6	688.3	818.6	1104	1538	2042	2508	2747	2662	2107	1245	1086	2497	3716	9999.9	9999.9	3810	136.0	53.69	36.90	27.39	22.43	17.76	15.98	14.37	13.56	12.50	11.87	11.64	11.53	12.46	11.97	11.31	11.28	10.40	10.15	9.879	9.718	10.06	10.22	11.12	11.70	11.33	11.86	10.62	8.795	7.171	6.793	5.739	4.880	5.142	5.194	5.720	5.998	6.478	7.609	8.024	9.229	10.24	11.35	11.93	13.23	13.19	13.72	14.00	13.57	13.73	12.50	10.12	8.776	8.037	9.304	15.35
320.0	3623	3668	2971	1666	936.4	765.6	908.0	1207	1679	2213	2713	2934	2806	2410	1540	832.0	864.0	1049	5683	9999.9	9999.9	522.2	70.57	50.03	34.87	26.62	21.53	17.91	16.31	14.85	13.94	13.18	12.20	12.33	12.65	11.99	11.57	11.36	10.54	10.02	10.22	9.951	10.52	10.43	11.46	11.78	11.90	12.44	11.00	9.062	7.685	7.566	6.000	5.787	5.637	5.658	6.207	6.436	7.324	7.912	9.097	10.04	10.87	11.59	13.00	13.84	14.35	14.16	14.75	14.25	14.29	13.88	12.14	10.69	7.917	7.032	7.428
325.0	3630	3862	3155	1821	1028	844.9	971.0	1306	1790	2372	2880	3124	2969	2479	1845	924.7	557.0	462.3	1477	9999.9	9999.9	9999.9	433.6	65.61	45.16	33.60	25.64	20.38	17.99	16.55	15.30	13.65	13.35	12.95	12.46	12.45	12.32	11.60	11.11	10.36	10.22	10.21	10.61	11.15	11.73	12.02	12.19	13.39	11.52	9.749	8.250	7.526	6.507	6.091	6.134	5.699	6.328	6.925	7.514	8.351	9.196	10.44	11.39	12.58	14.12	14.64	14.86	15.28	15.92	15.29	14.28	13.49	12.96	12.22	9.643	7.238	5.804
330.0	3804	4116	3462	2093	1163	922.3	1058	1405	1911	2505	3056	3327	3166	2611	1931	1180	622.8	369.5	512.3	2443	9999.9	9999.9	9999.9	9731	141.5	47.07	35.30	26.85	22.65	19.53	17.60	15.69	14.44	13.82	13.07	12.62	12.22	11.93	11.08	10.63	10.53	10.48	10.76	11.38	12.15	12.98	12.90	14.01	12.54	10.28	8.942	8.241	7.241	6.578	6.329	6.336	6.865	7.308	7.797	8.909	9.562	11.15	12.06	13.37	14.40	15.57	15.84	16.37	16.52	16.04	15.61	13.80	12.97	12.20	10.26	8.932	7.378
335.0	3795	4208	3607	2249	1276	1009	1129	1468	1995	2594	3131	3423	3286	2729	1965	1208	825.3	438.6	325.2	700.5	2364	3645	9999.9	9999.9	3294	142.4	51.43	38.09	29.53	25.09	21.02	17.80	16.66	15.24	14.58	13.41	13.18	12.05	11.80	11.39	11.08	10.87	11.23	11.81	12.65	14.05	13.65	14.50	13.03	10.98	9.715	9.043	7.727	7.052	6.863	6.954	7.316	7.552	7.934	9.428	9.726	11.45	12.50	13.91	15.15	15.57	16.07	16.59	16.99	16.78	15.86	14.05	13.42	12.64	10.15	8.720	8.084
340.0	3788	4209	3577	2281	1342	1058	1157	1505	2009	2589	3119	3418	3268	2749	1979	1203	839.4	571.8	326.4	334.7	667.9	952.0	5750	9999.9	9999.9	2683	84.33	48.44	37.53	29.98	24.45	20.31	18.03	16.33	14.90	14.18	13.80	12.60	12.14	11.25	11.17	11.44	11.40	11.85	12.51	13.56	13.37	14.50	13.39	10.95	9.606	9.255	7.906	7.243	6.825	7.056	7.618	7.643	8.207	9.447	10.06	11.48	12.78	14.19	14.91	15.03	15.79	16.67	16.76	17.08	15.78	14.87	13.91	12.56	9.900	8.664	7.855
345.0	3743	4101	3565	2268	1381	1092	1194	1505	1981	2545	3030	3311	3188	2707	1969	1191	772.6	636.6	410.6	277.2	307.5	351.3	1438	9999.9	9999.9	9999.9	401.1	60.79	46.67	36.91	28.08	23.26	20.17	16.98	15.50	14.31	14.32	12.39	12.15	11.26	10.80	11.12	11.12	11.29	12.50	13.42	13.49	14.08	13.27	10.93	9.335	9.161	7.976	7.322	6.591	6.874	7.326	7.638	8.250	9.075	9.805	11.03	12.69	14.15	14.66	15.04	15.53	16.01	16.11	16.08	15.79	15.09	13.55	12.19	10.39	8.369	7.571
350.0	3560	3845	3255	2176	1376	1125	1216	1503	1924	2439	2887	3119	2992	2553	1887	1178	760.3	583.4	512.6	365.9	268.1	242.6	461.7	2407	9591	9999.9	9999.9	9999.9	149.1	50.70	37.22	30.06	23.81	19.31	17.34	14.98	14.49	13.13	12.50	11.54	11.26	11.03	10.82	10.99	11.74	12.68	12.69	13.16	12.52	10.42	9.100	9.042	8.011	7.202	7.051	6.971	7.390	7.804	8.401	8.989	9.886	10.61	11.88	12.73	13.65	14.30	14.65	14.95	15.15	15.33	14.68	13.95	12.97	11.70	10.09	8.360	7.438
355.0	3224	3482	2970	2033	1387	1181	1254	1522	1893	2315	2690	2884	2769	2367	1813	1153	783.4	580.7	502.4	486.1	351.3	261.4	274.4	680.7	2263	3386	9999.9	9999.9	3212	176.7	53.79	40.54	31.41	24.54	20.37	16.75	15.79	14.37	12.95	12.06	11.47	10.78	10.82	10.55	11.59	12.37	11.93	12.57	11.55	10.03	8.635	8.893	7.870	7.102	7.141	6.828	7.405	7.732	8.396	8.627	9.817	10.52	11.61	12.08	13.41	13.48	13.75	13.92	14.16	14.13	13.36	12.97	12.39	11.17	9.685	8.598	7.027
360.0	3052	3201	2731	1908	1387	1201	1273	1535	1870	2237	2555	2709	2583	2236	1718	1133	801.2	607.0	507.4	493.9	459.3	317.8	261.5	316.0	644.2	887.1	5001	9999.9	9999.9	2927	113.8	53.39	40.41	30.28	23.67	18.84	16.67	15.49	13.56	12.86	12.14	11.40	10.92	10.78	11.45	12.01	11.75	12.24	11.10	9.548	8.555	8.937	7.956	7.396	7.137	7.086	7.740	8.314	8.698	9.150	9.530	10.39	11.33	11.91	12.70	12.76	13.37	13.28	13.28	13.29	13.04	12.78	11.85	10.87	9.742	8.396	7.111
365.0	2893	3012	2564	1818	1374	1206	1269	1500	1836	2144	2433	2549	2438	2114	1644	1109	817.3	638.0	541.1	490.4	502.6	417.2	297.4	263.3	303.0	330.2	1258	8866	9999.9	9999.9	404.4	84.73	50.85	38.61	29.00	22.24	19.39	16.93	15.03	13.83	12.50	11.54	11.50	11.17	11.39	11.37	11.55	11.67	10.91	9.540	8.736	8.849	8.155	7.659	7.298	7.436	7.727	8.301	8.649	9.397	9.575	10.27	10.90	11.35	12.28	12.57	12.40	12.99	12.44	12.81	12.24	12.00	11.37	10.58	9.221	8.140	7.263
370.0	2680	2752	2334	1718	1341	1238	1279	1464	1766	2024	2253	2340	2227	1952	1541	1082	828.6	682.0	594.8	532.5	502.4	500.4	415.7	308.3	264.7	234.4	410.8	2133	9028	9999.9	9999.9	9999.9	175.0	57.28	40.89	29.93	24.22	20.27	16.96	15.40	14.14	12.75	12.20	11.39	11.38	11.77	11.31	11.45	10.64	9.188	8.363	8.681	8.042	8.081	7.641	7.484	7.984	8.294	8.794	9.381	9.749	9.958	10.54	11.21	11.78	11.95	11.84	11.98	11.55	12.06	11.32	10.94	10.72	9.866	8.864	8.158	7.377
375.0	2528	2574	2108	1630	1348	1274	1278	1438	1689	1904	2088	2146	2018	1792	1444	1060	849.3	727.6	645.0	590.6	542.0	519.7	516.4	421.3	314.8	255.7	251.2	604.3	2129	3416	9999.9	9999.9	9999.9	208.1	61.28	41.56	32.80	25.34	20.51	17.43	15.46	14.18	12.84	12.24	11.94	11.86	11.12	11.55	10.28	8.976	8.090	8.984	8.376	8.277	7.908	7.735	8.284	8.544	8.748	8.886	9.689	9.850	10.57	10.79	11.02	11.40	10.97	11.48	11.09	11.21	10.76	10.68	10.23	8.861	8.707	7.473	7.452
380.0	2429	2328	1976	1587	1334	1268	1271	1410	1610	1800	1958	1984	1905	1666	1366	1037	861.0	755.7	682.9	635.3	589.0	545.2	528.1	504.1	381.4	289.4	240.2	282.7	599.7	893.6	5188	9999.9	9999.9	2705	145.3	56.08	41.49	31.38	24.34	20.47	17.34	15.45	14.13	13.36	12.32	12.20	11.58	11.29	10.07	8.781	8.442	9.237	8.475	8.602	8.485	7.979	8.632	8.799	8.712	9.271	9.763	9.746	10.36	10.37	10.62	10.65	10.55	10.88	10.72	10.86	10.42	10.08	9.844	9.133	8.467	7.676	7.489
385.0	2266	2192	1855	1521	1356	1263	1252	1373	1532	1712	1825	1871	1775	1575	1303	1025	868.5	776.0	716.5	673.8	627.1	583.5	536.5	529.6	464.0	338.9	264.5	229.6	272.9	324.8	1299	9122	9999.9	9999.9	2249	93.00	53.70	39.60	29.04	23.01	19.06	17.44	15.23	14.32	13.13	12.66	11.51	11.31	10.40	8.996	8.627	8.915	8.871	8.653	8.314	8.563	8.798	8.709	8.227	8.902	9.366	9.364	9.674	9.893	10.15	10.54	10.36	10.17	9.932	10.30	9.865	9.479	9.673	8.884	8.318	7.606	7.448
390.0	2087	2037	1734	1476	1334	1260	1244	1321	1457	1590	1682	1720	1632	1460	1243	1009	878.0	803.3	752.4	710.6	671.8	633.0	580.1	540.5	514.1	440.3	329.1	261.6	234.5	222.4	420.7	2186	8175	9999.9	9999.9	9420	167.8	57.49	40.00	30.64	23.31	20.04	17.08	15.31	14.36	13.28	12.17	12.04	10.58	9.103	8.343	9.151	9.040	8.784	8.763	8.549	8.623	8.537	8.849	9.010	9.000	9.177	9.497	9.645	9.905	9.874	9.857	9.657	9.657	9.658	9.294	9.005	9.408	8.971	8.241	7.707	7.143
395.0	1929	1880	1687	1419	1323	1241	1232	1285	1388	1469	1556	1586	1504	1380	1184	992.9	891.5	824.5	781.2	747.7	712.9	681.8	636.2	587.6	541.5	513.0	438.0	328.7	277.4	239.7	252.7	620.0	1942	2972	9999.9	9999.9	9999.9	214.9	58.67	40.27	30.59	24.03	20.18	17.66	15.38	14.78	13.10	12.55	11.01	9.485	8.755	9.463	9.004	8.957	8.882	8.584	8.669	8.676	8.785	8.742	8.861	8.852	9.331	9.149	9.646	9.585	9.482	9.203	9.223	8.958	9.033	8.802	9.055	8.552	8.173	7.792	7.576
400.0	1839	1777	1588	1358	1285	1234	1214	1250	1330	1413	1474	1502	1424	1313	1142	978.4	890.5	835.6	797.5	768.6	739.1	713.8	672.2	628.3	572.8	534.0	503.8	406.4	323.2	273.0	235.8	286.1	559.3	782.4	4021	9999.9	9999.9	9999.9	166.4	51.99	37.94	29.89	23.05	19.68	16.85	15.29	13.87	12.82	11.29	9.836	9.035	9.784	8.897	9.157	8.663	8.397	9.111	9.029	8.802	8.599	8.771	8.349	8.787	8.982	8.786	9.107	9.224	8.793	8.763	8.392	8.201	8.665	8.250	8.093	7.677	7.784	7.863
405.0	1737	1714	1504	1337	1286	1224	1215	1232	1286	1373	1415	1423	1365	1252	1112	965.3	880.9	840.8	806.0	780.6	753.0	733.2	697.5	662.2	604.9	556.4	520.9	476.5	378.7	305.7	253.3	229.3	262.2	289.2	1011	5905	9999.9	9999.9	2200	109.9	46.86	35.40	27.31	21.95	18.49	16.10	13.80	13.35	11.94	9.736	9.304	9.684	9.157	9.338	8.636	8.769	8.819	8.730	8.754	8.887	8.521	8.392	8.480	8.556	8.387	8.765	8.662	8.524	8.570	8.151	7.879	8.623	8.206	7.994	7.492	7.510	7.698
410.0	1632	1611	1449	1311	1238	1208	1177	1197	1242	1297	1347	1333	1279	1187	1065	937.0	866.0	828.6	797.9	783.2	759.6	744.1	712.4	687.3	632.8	583.8	533.4	504.2	453.4	367.1	291.9	242.9	210.2	188.4	328.8	1421	6049	9999.9	9999.9	9642	164.3	48.05	34.22	26.98	21.58	18.24	15.16	14.18	11.99	9.998	9.381	10.16	9.550	9.345	8.752	8.662	9.179	8.880	8.763	8.841	8.513	8.377	8.506	8.581	8.165	8.387	8.325	8.166	8.180	8.243	7.725	7.994	7.949	7.920	7.221	7.290	7.774
415.0	1544	1481	1388	1254	1189	1161	1152	1153	1184	1247	1276	1261	1194	1112	1008	902.7	842.4	803.7	779.6	766.1	755.0	737.3	718.2	693.7	648.4	605.0	555.8	513.7	489.5	437.3	342.1	271.3	217.6	178.8	182.9	406.3	1430	2622	9999.9	9999.9	9999.9	215.2	49.38	34.60	27.24	21.24	16.97	14.84	12.59	10.52	10.01	10.38	9.804	9.425	8.787	8.705	9.194	9.174	8.993	8.495	8.189	8.272	7.885	8.151	8.101	7.923	7.806	7.664	7.655	7.250	7.282	7.699	7.515	7.486	7.379	6.937	7.161
420.0	1456	1381	1276	1214	1172	1142	1114	1131	1146	1193	1227	1195	1134	1061	957.6	865.7	813.8	781.4	760.2	747.7	736.6	731.8	719.4	694.0	656.1	615.8	568.7	523.0	486.3	465.8	384.6	296.3	234.8	186.3	156.7	184.1	400.0	664.9	3155	9999.9	9999.9	9999.9	162.8	44.54	32.21	25.66	19.27	16.36	13.22	11.21	10.27	10.72	9.913	9.922	9.532	8.968	8.877	9.367	8.910	8.644	8.259	8.273	7.877	8.201	8.363	7.567	7.446	7.688	7.274	7.463	7.343	7.470	7.346	7.314	6.976	7.087	6.955
425.0	1419	1320	1235	1159	1116	1122	1095	1105	1128	1142	1168	1145	1083	1005	909.0	827.8	784.1	757.0	741.7	731.2	718.6	719.5	713.2	686.8	660.6	618.1	579.9	536.6	488.7	461.2	420.8	327.4	249.9	197.9	157.6	139.7	170.9	221.8	782.7	4350	9999.9	9999.9	2153	106.9	38.25	30.04	22.58	17.96	14.44	11.67	10.60	11.15	10.15	9.891	9.306	9.191	8.987	9.027	8.755	8.612	8.005	8.188	8.210	8.257	7.774	7.264	7.490	7.124	6.906	7.254	7.116	7.212	7.051	6.958	6.838	6.537	6.969
430.0	2264	1245	1172	1118	1084	1078	1068	1087	1083	1105	1116	1089	1025	953.4	866.2	788.2	751.4	728.6	713.1	704.9	698.2	697.6	692.5	677.8	655.8	619.0	583.7	542.2	500.6	463.8	424.8	367.8	282.7	216.8	172.5	140.5	127.2	125.2	241.7	1042	4626	9999.9	9999.9	9151	156.1	43.47	29.31	23.10	17.42	13.45	11.73	12.02	10.66	10.15	9.815	9.549	9.392	9.279	8.864	8.373	8.163	8.274	8.255	8.149	7.754	7.463	7.431	7.050	6.869	6.869	6.786	6.732	6.741	6.710	6.506	6.501	6.884
435.0	5342	1347	1109	1069	1047	1037	1041	1049	1043	1076	1062	1045	966.2	904.0	824.9	757.6	716.2	691.6	682.1	680.0	666.5	673.9	671.8	664.9	645.5	613.5	582.4	548.3	508.6	468.7	424.7	378.1	324.9	244.2	189.1	152.0	127.8	110.1	124.2	295.0	1093	2470	9999.9	9999.9	9999.9	204.5	43.71	30.04	22.33	16.65	13.61	12.90	11.71	10.82	10.38	10.17	10.11	9.629	9.066	8.328	8.700	8.276	7.688	8.047	7.548	7.135	7.052	6.968	7.005	6.526	6.892	6.223	6.338	6.689	6.115	6.233	6.450
440.0	7740	1956	1051	1044	1027	1016	1021	1027	1023	1023	1026	993.1	923.6	855.9	784.4	718.9	682.5	668.4	655.0	647.7	644.8	651.6	652.9	644.9	630.9	600.9	577.9	543.0	510.8	472.1	427.3	375.8	337.0	274.0	205.4	164.4	135.4	112.5	102.6	130.6	304.0	615.0	2902	9999.9	9999.9	9999.9	148.9	40.25	26.84	19.64	15.85	14.36	12.81	11.26	10.65	10.55	10.48	9.948	9.682	8.945	8.486	8.088	7.785	8.144	7.576	7.340	7.323	6.832	6.728	6.507	6.514	6.490	6.388	6.465	6.044	6.470	6.231
445.0	7888	4397	1085	1015	1003	978.7	978.9	998.6	990.1	976.7	983.8	949.6	883.3	817.8	745.8	692.7	655.4	634.1	622.9	619.1	617.2	619.8	622.7	618.4	612.1	586.4	565.4	535.1	509.8	473.0	427.9	373.8	329.1	291.1	224.9	174.0	144.2	119.8	102.1	96.50	127.7	195.5	713.2	4145	9999.9	9999.9	9404	106.2	33.77	23.32	18.44	16.20	13.21	12.19	11.38	10.98	11.02	10.02	9.812	8.905	8.987	8.360	8.018	7.874	7.859	7.310	7.051	6.604	6.886	6.516	6.128	6.212	6.376	5.815	6.000	6.127	6.113
450.0	4600	8170	2191	946.4	939.9	934.4	923.7	953.2	943.8	930.6	916.3	883.1	817.0	754.3	690.4	631.0	603.1	584.8	577.4	574.5	575.2	579.4	583.0	582.4	575.6	557.3	536.3	515.0	490.1	461.2	420.0	370.7	321.2	283.4	242.0	192.8	154.8	129.3	108.1	94.60	92.84	102.1	214.4	988.0	4544	9999.9	9999.9	8044	132.6	33.49	23.72	20.16	16.38	13.96	12.29	11.54	11.35	10.52	9.847	9.522	8.532	8.532	8.092	8.180	7.748	7.193	6.901	6.529	6.730	6.491	6.070	6.129	6.218	6.057	6.022	5.773	5.979
455.0	1864	7807	6519	986.2	877.2	866.0	866.6	889.8	880.1	855.5	845.3	806.8	752.0	686.1	632.8	577.9	548.6	532.4	526.8	521.0	525.8	528.0	535.7	534.6	530.5	516.7	500.0	482.7	462.4	440.0	404.9	360.8	312.1	269.1	239.5	208.6	165.9	136.3	115.2	99.36	88.71	82.84	100.3	269.6	1064	2456	9999.9	9999.9	9999.9	155.4	34.66	25.24	19.38	16.12	13.71	12.10	11.51	10.51	10.20	9.816	9.009	8.420	7.925	7.723	7.795	7.078	6.925	6.441	6.380	6.271	5.859	5.924	5.447	5.836	5.544	5.738	5.640
460.0	1083	4832	9999.9	1997	818.1	813.8	808.8	829.0	830.3	801.3	798.3	752.1	696.0	645.7	575.4	532.7	502.9	491.0	487.4	484.5	483.9	487.2	498.5	495.2	491.8	482.1	469.3	455.3	435.1	418.5	389.8	344.0	302.6	259.1	228.1	208.1	176.7	141.3	118.6	103.4	89.74	78.39	75.48	107.2	282.7	599.4	2730	9999.9	9999.9	9999.9	125.3	31.86	23.84	18.84	15.99	13.63	12.35	11.72	10.94	9.845	8.929	8.645	8.041	7.877	7.373	6.966	6.888	6.480	6.279	6.320	6.228	5.767	6.014	5.579	5.192	5.776	5.485
465.0	884.1	2234	9999.9	4951	791.0	757.8	774.7	774.9	775.8	758.9	739.0	698.4	651.0	591.9	539.3	496.3	464.5	454.4	444.6	444.4	449.2	453.9	455.4	456.2	453.4	445.8	439.5	421.5	413.3	395.2	371.1	330.6	288.0	252.9	217.8	196.7	180.3	149.2	121.2	104.9	90.81	78.34	69.83	71.80	106.4	176.8	659.8	3662	9999.9	9999.9	8434	103.6	30.49	23.22	18.64	15.95	14.19	12.36	11.21	10.14	9.794	8.780	8.228	8.293	7.480	7.194	6.605	6.823	6.294	5.913	5.818	5.720	5.942	5.649	5.411	5.363	5.424
470.0	804.7	1074	5914	9999.9	2138	696.0	696.7	711.3	708.8	696.5	671.8	626.3	579.5	529.7	485.9	441.9	412.9	401.5	395.4	395.0	396.4	400.1	403.3	406.5	404.4	398.9	390.9	379.2	371.8	359.0	335.1	305.3	269.6	236.6	205.3	181.8	167.1	151.6	123.5	104.7	90.45	78.18	66.53	61.18	64.72	77.53	184.6	862.7	4108	9999.9	9999.9	7600	132.8	33.64	23.22	18.72	16.23	13.58	11.70	10.95	9.878	8.982	8.528	8.130	7.523	7.082	6.658	6.302	6.287	5.576	5.837	5.365	5.538	5.222	5.095	4.993	4.861
475.0	701.8	724.9	1978	9999.9	5390	764.5	613.4	630.6	635.0	620.0	596.9	555.4	508.5	472.0	429.5	384.0	362.9	348.9	345.3	345.5	344.3	349.0	350.8	356.1	354.1	348.9	344.8	337.2	330.1	320.0	301.4	274.2	245.8	219.5	190.8	168.1	150.5	140.8	126.4	104.4	87.37	76.10	63.87	55.93	51.64	50.35	72.11	222.6	947.1	2365	9999.9	9999.9	9999.9	181.1	30.96	21.12	17.88	14.84	12.23	10.69	9.456	8.267	7.987	7.465	7.106	6.557	6.288	5.753	5.658	5.248	5.197	5.167	4.760	4.571	4.527	4.610	4.468
480.0	625.9	640.5	891.4	6310	9999.9	1723	578.8	588.7	589.2	582.6	554.3	512.5	467.9	430.4	390.8	353.0	333.2	319.9	314.2	313.7	313.5	318.8	317.7	324.4	323.1	318.9	314.7	308.0	301.5	295.2	277.6	254.8	228.8	203.5	182.1	159.2	142.1	129.1	123.9	106.6	87.76	74.57	63.01	53.88	46.96	42.60	44.86	77.52	238.4	558.5	2571	9999.9	9999.9	9999.9	130.8	28.02	20.89	16.19	13.49	11.51	9.887	8.735	8.328	7.474	6.936	6.693	6.155	5.528	5.256	5.256	4.962	4.987	4.772	4.490	4.616	4.376	4.126
485.0	577.8	616.4	624.0	2688	9999.9	4186	558.9	549.7	542.4	541.1	509.7	481.4	435.7	396.7	365.4	330.4	306.6	293.5	288.8	289.6	288.8	292.1	293.5	296.3	296.8	291.1	288.9	284.5	281.9	275.9	260.6	236.9	214.7	191.7	171.8	151.6	137.1	122.0	115.2	108.0	90.06	73.11	61.38	54.33	46.38	40.26	37.67	43.43	77.94	150.0	605.7	3219	9999.9	9999.9	1756	86.13	26.58	19.43	15.54	12.48	10.77	9.559	8.571	7.738	7.233	6.720	6.279	5.691	5.488	5.175	4.867	4.915	4.711	4.546	4.328	4.199	4.207
490.0	538.2	561.0	519.6	1003	7092	9999.9	1699	507.1	496.0	491.5	470.1	441.4	400.7	364.1	325.2	296.1	274.0	263.7	259.9	259.2	258.4	258.4	263.9	267.1	264.7	262.8	257.4	257.5	255.3	249.8	237.6	217.7	197.8	178.6	160.6	143.8	128.8	113.8	104.7	100.5	90.97	75.00	60.55	53.01	45.28	39.83	35.76	34.40	40.31	55.36	158.0	749.2	3609	9999.9	9999.9	7894	133.9	28.01	19.34	15.52	12.46	10.67	9.235	8.197	7.608	6.701	6.423	5.999	5.702	5.168	4.990	4.817	4.456	4.257	4.144	4.033	4.220
495.0	450.9	504.0	479.1	547.6	2283	9999.9	7052	536.7	448.8	445.0	425.8	401.8	359.8	322.7	290.2	265.1	242.1	232.3	230.4	228.8	225.8	228.5	232.7	233.5	235.0	230.2	228.8	227.6	225.8	221.4	212.3	196.4	179.3	164.5	146.8	132.1	118.9	107.2	97.36	89.90	86.06	76.94	61.69	52.80	45.57	39.29	35.35	31.80	30.60	32.48	55.54	188.8	830.2	2343	9999.9	9999.9	9999.9	193.0	28.63	19.14	14.69	12.11	10.49	8.714	7.838	6.699	6.521	5.770	5.411	5.303	4.482	4.616	4.412	4.274	4.184	3.864	4.033
500.0	397.8	449.0	469.4	421.5	828.0	7464	9999.9	1287	418.6	407.9	394.0	359.3	326.9	295.8	265.6	239.4	218.7	212.7	208.6	203.1	204.0	204.5	208.9	210.2	209.4	210.3	207.0	206.0	205.8	201.8	194.8	181.3	166.2	150.1	136.4	123.4	112.2	102.1	92.64	83.85	78.16	74.52	63.65	52.21	45.21	39.76	35.15	30.63	28.05	26.82	31.24	62.25	206.6	550.5	2580	9999.9	9999.9	9999.9	144.9	24.54	16.57	13.39	11.28	9.032	8.055	6.815	6.546	5.709	5.064	5.196	4.582	4.213	4.528	3.995	3.970	3.649	3.605
505.0	367.2	382.0	449.0	385.7	470.6	3266	9999.9	2967	395.0	380.7	356.4	334.1	305.5	270.4	240.6	216.9	199.6	192.6	185.2	185.8	184.2	186.2	188.7	188.6	187.5	187.4	187.9	185.8	185.3	183.4	177.3	163.6	151.7	138.3	125.1	113.9	106.4	95.61	87.23	78.99	71.14	68.04	63.02	51.89	43.66	38.38	33.77	31.07	26.96	25.18	24.68	32.97	65.12	144.8	605.4	3103	9999.9	9999.9	1936	35.26	21.83	14.87	11.97	9.797	8.331	7.094	6.531	5.811	5.371	4.791	4.442	4.475	4.131	3.746	3.491	3.596	3.544
510.0	340.1	329.0	362.9	374.2	351.5	1033	8431	9999.9	1217	344.4	325.8	296.6	266.4	241.7	210.7	190.2	176.3	167.5	163.0	162.6	160.4	162.2	161.9	162.7	161.7	164.5	163.2	162.3	162.4	160.3	154.0	144.4	133.9	122.8	112.0	102.8	95.75	87.64	79.59	72.10	65.07	59.77	57.94	52.72	43.81	37.29	32.57	29.55	26.29	23.67	22.60	24.41	31.55	50.60	155.7	719.5	3341	9999.9	9999.9	8550	134.4	22.30	14.54	11.03	9.260	7.632	6.666	6.205	5.326	4.753	4.508	4.188	3.986	3.648	3.408	3.418	3.367
515.0	299.8	293.8	295.3	349.0	312.9	441.9	2682	9999.9	6299	355.7	288.3	265.1	231.6	210.9	183.0	165.4	153.1	144.4	140.3	137.4	137.4	137.6	138.7	138.6	139.8	140.0	139.3	141.1	139.4	138.3	132.7	125.2	117.2	106.3	95.58	91.06	84.26	77.75	70.82	64.80	59.45	54.69	49.84	48.96	44.41	36.31	31.08	28.26	25.21	22.71	21.32	21.23	22.28	27.12	51.15	178.4	766.4	2312	9842	9999.9	9999.9	195.5	22.43	14.22	10.22	8.697	7.311	6.468	5.303	4.928	4.637	3.898	3.922	3.758	3.459	3.471	3.309
520.0	263.3	271.1	260.1	295.5	300.1	307.7	830.7	9310	9999.9	925.0	263.1	239.7	214.2	189.2	165.4	148.0	137.2	128.2	125.3	123.5	122.5	122.4	122.4	123.0	123.9	123.7	122.6	124.6	123.8	123.1	119.0	112.6	105.2	96.60	88.71	82.24	76.61	70.65	65.57	59.05	54.77	50.02	45.61	43.07	43.01	37.47	30.29	26.11	24.20	21.67	20.63	19.95	19.31	20.30	26.19	55.55	188.6	538.0	2415	9999.9	9999.9	9999.9	35.88	18.70	12.30	9.714	7.957	7.017	5.781	4.913	4.579	4.242	3.909	3.499	3.526	3.183	3.232
525.0	255.5	239.2	229.6	255.9	290.8	257.3	383.2	4187	9999.9	2195	252.9	222.5	196.2	167.8	150.1	132.7	125.0	116.7	113.2	111.4	109.4	110.0	109.9	109.9	109.9	112.3	109.7	110.7	111.8	110.9	107.0	102.0	94.77	87.04	81.88	74.51	68.46	64.26	60.75	54.17	51.12	46.12	42.35	39.07	38.85	36.44	30.08	25.71	22.88	20.77	19.25	19.15	18.19	17.87	18.70	26.41	57.16	137.3	561.9	2788	9999.9	9999.9	1961	32.57	16.32	11.23	8.897	7.166	6.342	5.137	4.605	4.221	3.872	3.556	3.220	3.124	3.145
530.0	228.1	215.8	210.2	207.6	246.5	238.4	249.1	1208	9999.9	9999.9	879.8	200.1	175.0	151.8	133.9	117.6	108.9	101.7	97.11	97.07	94.39	94.10	94.66	94.46	95.18	95.59	94.24	94.08	95.14	95.66	93.24	89.10	82.42	75.83	70.23	65.78	60.67	56.73	53.10	49.30	46.17	41.84	37.65	35.02	33.43	33.45	30.42	25.06	21.36	19.66	17.78	17.29	16.81	16.65	16.04	17.81	25.74	44.25	140.5	641.5	2897	9999.9	9999.9	8632	136.6	18.07	11.12	8.122	6.854	5.546	5.010	4.151	3.860	3.415	3.241	3.038	3.035
535.0	211.6	200.2	182.7	175.1	202.1	236.7	191.8	422.2	3224	9999.9	5866	200.3	157.1	134.2	116.3	102.3	91.77	88.98	83.38	82.54	79.74	80.04	79.22	80.19	81.30	80.14	80.66	79.93	80.68	81.40	79.11	75.49	69.87	65.24	61.00	56.79	54.00	48.77	45.32	42.61	40.58	36.52	33.97	31.19	29.32	27.69	28.86	25.12	20.77	17.97	16.21	15.60	14.66	14.56	14.87	14.69	16.64	20.89	42.86	155.7	660.6	2275	6783	9999.9	9999.9	202.6	17.21	10.36	7.806	6.336	5.317	4.429	3.763	3.462	3.319	2.985	2.977
540.0	222.2	194.7	174.0	164.0	164.5	210.5	188.5	228.6	900.8	9999.9	9999.9	535.2	144.4	120.0	104.4	91.65	84.04	78.69	74.42	73.07	68.94	70.66	69.26	69.49	71.67	70.24	70.17	70.01	70.73	70.70	69.47	66.01	61.06	57.12	54.10	49.76	48.04	43.57	41.36	38.99	36.12	33.40	30.49	28.34	26.74	24.73	24.93	24.28	20.03	17.25	15.31	14.96	14.00	13.37	13.53	13.46	13.48	14.42	19.83	45.73	159.8	522.6	1621	9657	9999.9	9999.9	34.84	14.31	9.140	6.452	5.743	4.764	4.165	3.790	3.252	3.075	2.922
545.0	257.2	231.0	189.7	148.1	149.7	184.9	184.1	183.0	340.8	4467	9999.9	1569	134.0	111.9	94.33	80.82	74.45	69.94	66.82	63.79	62.54	63.50	61.63	61.80	61.56	62.00	62.18	61.84	62.82	62.58	61.95	57.98	53.81	50.03	48.79	44.59	42.41	39.46	36.52	35.06	32.28	30.05	28.01	26.09	24.10	22.94	22.02	22.44	19.64	16.36	14.43	14.00	13.20	12.42	12.13	12.76	12.09	11.81	13.25	19.60	45.72	128.3	377.8	2432	9999.9	9999.9	1995	30.38	11.91	7.902	6.177	5.247	4.394	3.702	3.287	2.920	2.664
550.0	315.2	274.8	205.1	141.6	124.9	144.0	184.9	161.0	201.7	1242	9999.9	9999.9	502.7	97.59	82.24	70.49	63.44	58.61	56.41	53.69	52.93	51.91	50.96	51.38	51.63	51.75	51.26	51.66	52.39	52.42	51.63	48.22	46.21	42.22	41.02	38.04	36.21	33.89	31.35	29.90	27.57	25.59	24.15	22.52	21.29	19.87	18.93	18.42	17.99	15.81	13.70	12.25	11.58	11.14	10.71	11.18	10.87	10.47	10.70	11.77	18.24	37.69	94.56	555.4	2561	8820	9999.9	8353	140.0	14.24	7.813	5.863	5.079	4.051	3.502	2.909	2.737
555.0	359.4	306.2	213.7	134.8	111.3	112.2	161.2	158.7	154.3	397.1	3109	9999.9	4106	99.54	71.73	60.77	54.40	48.88	46.63	45.77	44.13	43.23	42.38	42.92	42.54	41.79	40.90	41.92	42.23	43.10	40.79	39.59	38.43	35.28	34.27	31.62	30.05	28.00	26.52	25.13	23.44	22.16	20.28	18.98	18.13	17.25	16.38	15.17	14.68	14.82	12.88	11.18	10.11	10.02	9.251	9.183	9.487	9.246	9.379	9.074	10.63	15.22	28.54	131.9	580.1	1986	4559	9999.9	9999.9	211.3	12.19	7.349	5.562	4.457	3.800	3.173	2.833
560.0	405.7	341.9	235.0	133.6	98.73	94.87	130.1	165.7	141.2	197.2	848.8	9999.9	9999.9	158.7	64.97	54.40	47.38	42.17	40.29	39.00	37.23	36.24	34.98	36.80	35.67	35.22	36.02	36.21	36.41	37.17	35.56	32.72	32.65	30.21	29.16	27.27	25.65	24.28	22.87	21.87	20.60	18.92	17.78	16.77	16.23	15.10	14.30	13.60	12.45	12.79	12.23	10.85	9.218	8.382	8.360	8.518	8.778	8.326	8.392	7.974	8.296	9.479	12.75	36.39	136.9	451.7	1061	5745	9999.9	8553	34.81	9.950	6.492	4.962	3.838	3.156	2.867
565.0	435.5	368.0	246.1	137.0	91.22	85.63	109.0	165.8	143.4	151.8	298.5	4273	9999.9	1059	61.73	49.02	42.81	36.40	35.50	33.45	32.42	31.92	30.35	31.25	30.94	30.29	31.13	30.17	30.88	31.93	29.55	29.30	27.82	25.73	24.49	23.70	22.74	21.34	19.51	18.88	18.12	16.92	15.67	15.50	14.45	13.60	12.85	11.79	11.23	10.44	10.96	10.50	8.533	7.876	7.959	7.591	7.477	7.406	7.492	7.807	7.160	7.300	8.408	14.10	36.99	108.2	246.2	1374	7075	9999.9	2079	29.76	8.418	5.711	4.221	3.258	3.072
570.0	430.1	394.9	258.9	133.3	81.03	74.81	92.74	139.9	156.1	140.7	170.1	1148	9999	9999.9	306.7	44.92	37.65	31.99	29.30	27.50	27.13	26.60	25.53	25.50	25.18	24.88	25.34	24.48	25.42	25.97	24.61	23.97	22.96	21.55	20.88	19.78	19.18	18.27	16.74	16.26	15.19	14.29	13.61	12.93	12.61	11.91	11.07	10.25	9.688	8.915	8.856	8.992	8.132	7.201	6.885	6.575	6.439	6.324	6.363	6.551	6.784	6.516	6.686	8.072	13.56	29.75	61.15	313.9	1683	5591	9999.9	6571	145.1	11.27	5.207	3.649	3.042
575.0	435.9	390.8	261.1	129.1	77.85	66.13	82.12	108.3	165.2	139.7	141.5	347.1	2967	9999.9	3049	47.22	32.86	29.52	24.96	23.65	23.22	21.85	20.96	20.81	20.46	19.89	20.36	20.20	20.82	21.44	20.29	19.55	19.58	18.32	17.88	16.62	16.50	15.59	14.31	13.66	12.53	11.95	11.56	10.97	10.75	10.01	9.449	8.634	8.031	7.518	7.058	7.318	7.300	7.040	6.164	5.385	5.985	5.824	5.603	5.691	5.827	6.108	5.722	6.003	7.195	11.15	18.46	74.96	380.3	1254	3032	9999.9	8828	233.3	9.919	4.764	3.743
580.0	424.3	380.0	250.1	123.7	69.92	65.97	75.88	98.38	156.7	154.6	137.9	168.1	779.8	9308	7882	100.1	30.54	27.11	23.22	21.35	20.73	19.35	18.57	18.26	17.24	17.29	17.38	17.67	17.90	17.85	17.80	17.07	16.85	16.15	15.32	14.44	14.60	13.56	12.68	11.92	11.21	10.56	10.31	9.673	9.082	9.187	8.321	8.052	7.276	6.946	6.168	6.239	6.473	6.685	5.709	5.253	5.524	5.419	5.071	5.055	5.125	5.179	5.303	5.082	5.478	6.392	8.217	20.90	89.47	284.6	689.5	3540	9999.9	6512	35.62	6.724	4.273
585.0	420.8	354.1	253.0	120.7	64.89	61.71	68.01	88.20	132.7	170.8	142.5	131.6	249.0	3712	9999.9	729.9	32.05	24.20	20.96	19.65	18.94	16.76	16.68	16.43	15.70	14.85	15.33	15.36	15.62	15.41	15.37	15.01	14.96	13.91	13.95	13.11	12.64	12.24	11.02	10.50	10.42	9.533	8.792	8.745	8.179	8.135	7.744	7.179	6.630	6.092	5.358	5.428	5.542	5.923	5.754	5.141	4.941	4.519	4.748	4.512	4.649	4.935	4.890	4.780	4.894	4.962	5.382	8.246	23.84	67.55	159.2	813.1	4196	9999.9	2127	30.63	5.937
590.0	388.4	335.6	238.7	119.2	63.22	58.85	65.72	80.50	115.5	166.1	150.7	126.5	131.1	968.8	8097	6967	179.3	23.36	19.45	17.19	15.76	14.46	14.31	13.55	13.33	13.00	12.75	12.85	13.00	13.13	12.69	12.64	11.98	12.07	11.76	10.85	10.59	10.19	9.516	9.036	8.815	7.988	7.769	7.589	7.369	7.034	6.682	6.341	5.719	5.288	4.885	4.691	4.590	4.965	5.303	4.977	4.384	4.304	4.210	4.122	4.179	4.178	4.280	4.320	4.364	4.338	4.471	4.806	8.651	18.50	39.13	185.8	963.9	3696	6632	4633	155.6
595.0	345.9	303.8	213.0	104.4	60.24	50.41	60.54	75.19	99.18	143.2	167.3	129.1	109.8	274.0	2311	9999.9	1978	26.27	18.51	15.93	14.09	12.32	12.53	12.19	11.06	10.57	10.77	11.22	10.93	10.93	10.79	10.46	9.853	10.42	9.821	9.489	9.281	8.181	8.089	7.502	7.237	7.218	6.813	6.716	6.468	6.098	5.776	5.697	5.250	4.773	4.321	4.145	4.223	4.335	4.319	4.517	4.261	3.967	3.763	3.556	3.762	3.595	3.837	3.855	3.846	3.967	3.873	3.584	4.552	6.873	11.81	44.51	218.1	827.3	1751	5554	5972
600.0	303.6	271.9	205.3	110.4	57.85	50.53	53.76	72.98	90.12	130.8	170.1	132.5	105.2	119.5	585.8	7231	5664	69.19	18.58	15.32	12.99	11.67	11.36	10.54	9.992	9.664	9.511	9.646	9.498	9.775	9.388	9.409	8.876	9.203	8.720	8.644	8.735	7.761	7.049	6.780	6.314	6.138	5.981	6.214	6.037	5.470	5.274	4.941	4.627	4.229	3.970	3.892	3.672	3.615	3.804	4.094	4.501	3.823	3.705	3.209	3.254	3.328	3.519	3.354	3.678	3.703	3.361	3.227	3.477	3.998	5.227	12.59	51.54	187.5	396.0	1743	6385
605.0	283.8	260.3	196.1	104.2	55.26	45.44	53.80	67.99	88.98	120.1	159.3	144.6	107.7	85.97	170.7	2806	9437	528.2	19.72	14.91	12.56	11.28	10.49	10.02	9.529	9.195	8.657	8.309	8.607	9.150	8.833	8.961	8.720	8.389	8.137	7.981	8.001	7.184	6.632	6.160	5.464	5.694	5.646	5.326	5.316	5.117	5.006	4.624	4.354	3.989	3.607	3.660	3.492	3.328	3.531	3.789	4.078	3.745	3.397	3.110	3.057	2.918	3.010	3.265	3.232	3.535	3.359	3.243	2.965	2.988	3.530	5.142	14.05	44.60	91.52	397.2	2252
610.0	264.9	236.1	179.9	104.2	54.17	44.28	52.14	65.00	89.06	115.1	143.6	156.3	114.9	83.23	79.46	713.9	6390	5016	53.74	14.82	11.97	10.45	9.567	8.698	8.265	7.931	7.854	7.602	7.896	8.007	8.185	8.206	7.975	7.878	7.863	7.660	7.269	6.586	6.131	5.567	5.196	5.315	5.062	4.732	4.797	4.733	4.475	4.089	3.925	3.627	3.231	3.322	3.041	2.999	3.174	3.278	3.447	3.439	3.164	3.075	2.907	2.701	2.821	2.772	2.853	2.952	3.104	3.061	2.858	2.750	2.773	3.143	5.214	12.08	22.82	91.29	510.9
615.0	258.1	218.6	168.7	96.43	52.11	43.24	51.54	64.41	85.00	109.0	132.4	157.7	124.9	86.00	60.49	185.4	1823	8020	596.1	16.46	11.09	10.17	8.502	7.587	7.561	6.726	7.267	7.134	6.949	7.220	7.292	7.403	7.305	7.134	7.149	6.987	6.700	5.921	5.644	5.075	4.655	4.642	4.438	4.144	4.375	4.089	4.068	3.793	3.373	3.163	3.081	3.039	2.850	2.713	2.706	2.731	2.802	2.984	2.964	2.914	2.779	2.454	2.622	2.627	2.620	2.620	2.654	2.788	2.703	2.905	2.403	2.584	2.882	4.385	6.872	22.20	115.7
620.0	226.6	199.6	152.3	93.16	53.59	43.13	49.95	65.96	83.59	108.4	131.5	149.5	137.7	87.60	55.59	67.88	453.7	5740	4107	45.06	12.52	10.06	8.406	7.637	6.864	5.791	6.435	6.116	6.212	6.790	6.515	6.535	6.397	6.554	6.956	5.925	6.133	5.492	5.082	4.844	4.225	4.331	4.087	3.946	4.122	3.794	3.696	3.546	3.438	3.064	2.869	2.794	2.726	2.543	2.587	2.412	2.601	2.779	2.795	2.773	2.715	2.462	2.347	2.401	2.408	2.501	2.446	2.463	2.629	2.547	2.350	2.135	2.215	2.546	3.157	6.511	27.52
625.0	215.9	204.2	156.4	90.70	53.16	42.91	46.95	66.07	81.81	103.7	130.5	141.5	146.2	94.24	57.05	41.93	121.0	2331	7103	359.9	13.73	9.780	7.939	6.934	6.429	6.033	5.807	5.844	5.530	5.988	6.134	6.181	6.184	5.967	6.007	5.647	5.277	4.876	4.890	4.738	3.825	3.845	3.834	3.593	4.026	3.617	3.514	3.117	3.119	2.731	2.819	2.643	2.274	2.289	2.396	2.430	2.533	2.574	2.608	2.659	2.557	2.302	2.428	2.422	2.334	2.379	2.173	2.236	2.523	2.437	2.361	2.084	1.996	2.003	2.166	3.096	7.682
630.0	201.5	191.5	148.8	84.28	50.21	42.60	45.80	61.67	83.17	102.9	126.8	136.3	141.2	103.0	59.17	35.96	44.41	593.2	5239	3245	38.83	10.28	8.170	6.845	6.288	5.656	5.258	5.560	5.354	5.591	5.220	5.562	5.461	5.469	5.154	5.060	4.817	4.515	4.295	4.165	3.734	3.616	3.390	3.356	3.507	3.394	3.351	3.057	2.960	2.558	2.564	2.302	2.316	2.164	2.320	2.290	2.437	2.306	2.293	2.463	2.414	2.338	2.266	2.409	2.192	2.190	2.133	2.178	2.212	2.057	2.249	1.826	1.878	1.815	1.615	2.006	3.080
635.0	175.0	172.3	143.3	77.39	50.53	41.36	46.25	62.00	78.82	101.0	123.0	136.0	132.8	113.0	65.71	35.80	27.55	146.9	1571	6147	473.6	12.22	8.274	7.036	6.095	5.379	4.786	5.107	5.021	5.197	4.968	5.362	5.215	4.908	5.111	4.584	4.585	4.039	3.812	3.497	3.550	3.490	3.193	3.220	3.144	3.385	3.155	2.920	2.827	2.512	2.305	2.295	2.086	2.128	2.093	2.142	2.264	2.201	2.048	2.071	2.276	2.063	2.282	2.239	2.076	2.118	2.144	2.104	1.988	1.893	1.918	1.883	1.828	1.650	1.498	1.556	1.867
640.0	175.0	167.1	138.4	84.32	50.63	41.31	46.35	61.44	76.62	99.52	124.2	134.0	124.7	111.9	72.20	35.90	23.61	46.13	391.7	4876	2925	28.45	8.885	7.537	6.005	5.747	5.087	4.636	4.710	4.919	4.587	4.879	4.925	4.832	4.555	4.298	4.370	3.623	3.533	3.358	3.282	3.854	3.182	3.276	3.061	2.918	2.966	2.849	2.793	2.473	2.215	2.246	2.097	2.171	2.146	1.962	2.275	2.095	2.049	2.064	1.976	2.149	2.226	2.104	1.969	1.956	1.906	2.152	1.994	1.690	1.736	1.711	1.795	1.599	1.617	1.370	1.528
645.0	172.1	169.9	135.5	85.76	49.02	38.20	45.31	59.12	77.03	99.80	122.1	128.5	121.3	109.3	77.67	37.86	22.95	23.84	101.0	2185	5346	231.3	10.21	7.040	6.287	5.393	4.887	4.311	4.378	4.898	4.599	4.810	4.697	4.587	4.390	4.294	4.215	3.596	3.330	3.281	3.176	3.517	3.237	2.902	3.073	2.787	2.970	2.728	2.645	2.455	2.014	2.133	2.046	2.182	1.997	2.011	2.097	1.908	1.939	1.949	1.917	1.949	2.062	2.155	2.047	1.967	1.895	1.892	1.877	1.628	1.569	1.684	1.576	1.694	1.399	1.449	1.407
650.0	185.5	160.4	139.8	83.00	47.20	40.78	44.93	57.22	72.79	94.84	117.5	128.3	119.0	104.0	80.77	40.02	22.16	17.83	33.69	624.1	5477	1388	12.62	7.110	6.451	5.488	4.666	4.448	4.101	4.751	4.391	4.862	4.516	4.455	4.304	4.041	3.951	3.573	3.361	3.128	2.960	3.088	3.178	2.955	2.943	2.743	2.694	2.564	2.382	2.314	1.992	2.018	1.943	1.937	2.050	1.946	2.007	1.814	1.743	1.827	1.712	1.999	1.880	2.028	1.970	1.741	1.843	1.835	1.767	1.857	1.625	1.515	1.457	1.574	1.314	1.250	1.379
