Sample:	'1
File name:	t2025061915ÐÂÌìºè±ÃÕ¾.FD3
Run date:	'16:17:34, 06/23/2025
Operator:	Administrator
Comment:	'

Instrument
Model:	F-2700 FL Spectrophotometer
Serial number:	23B8-004
ROM Version:	4J14000 07

Instrument parameters
Measurement type:	3-D scan
Data mode:	Fluorescence
EX  Start WL:	220.0 nm
EX  End WL:	600.0 nm
EX Sampling interval:	5.0 nm
EM  Start WL:	230.0 nm
EM  End WL:	650.0 nm
EM Sampling interval:	5.0 nm
Scan speed:	12000 nm/min
EX Slit:	5.0 nm
EM Slit:	5.0 nm
PMT Voltage:	700 V
Response:	Auto 
Corrected spectra:	Off
Contour interval:	50.000

Peak integration
Integration method:	Rectangular
Sensitivity:	1
Threshold:	1.000

Peaks
No.	ApexEX/EM(nm)	Height(Data)
1	230.0/340.0	2389
2	235.0/260.0	205.3
3	235.0/580.0	104.5
4	235.0/600.0	113.0
5	240.0/265.0	277.5
6	240.0/410.0	2502
7	245.0/270.0	321.0
8	250.0/275.0	417.0
9	255.0/285.0	481.6
10	260.0/290.0	548.5
11	260.0/575.0	143.2
12	265.0/585.0	124.2
13	270.0/600.0	122.0
14	275.0/310.0	1597
15	275.0/615.0	116.4
16	280.0/340.0	1857
17	280.0/625.0	102.0
18	285.0/640.0	77.66
19	300.0/405.0	1924
20	465.0/340.0	6.586
21	485.0/410.0	8.877
22	505.0/275.0	2.468
23	510.0/280.0	2.878
24	515.0/285.0	2.937
25	565.0/335.0	8.971

Data points
	220.0	225.0	230.0	235.0	240.0	245.0	250.0	255.0	260.0	265.0	270.0	275.0	280.0	285.0	290.0	295.0	300.0	305.0	310.0	315.0	320.0	325.0	330.0	335.0	340.0	345.0	350.0	355.0	360.0	365.0	370.0	375.0	380.0	385.0	390.0	395.0	400.0	405.0	410.0	415.0	420.0	425.0	430.0	435.0	440.0	445.0	450.0	455.0	460.0	465.0	470.0	475.0	480.0	485.0	490.0	495.0	500.0	505.0	510.0	515.0	520.0	525.0	530.0	535.0	540.0	545.0	550.0	555.0	560.0	565.0	570.0	575.0	580.0	585.0	590.0	595.0	600.0
230.0	32.60	326.5	702.5	202.3	11.72	5.816	5.335	4.202	3.976	3.468	3.363	3.207	2.755	2.541	1.906	1.893	1.666	1.644	1.395	1.191	1.127	1.083	1.094	0.994	0.927	0.916	0.743	0.738	0.679	0.669	0.669	0.568	0.517	0.479	0.451	0.464	0.410	0.418	0.436	0.353	0.367	0.355	0.351	0.359	0.292	0.305	0.690	1.692	2.447	1.611	0.691	0.321	0.277	0.252	0.229	0.248	0.246	0.262	0.266	0.269	0.262	0.261	0.240	0.281	0.230	0.239	0.256	0.237	0.279	0.267	0.275	0.245	0.283	0.258	0.249	0.254	0.294
235.0	36.06	107.5	581.8	809.9	325.1	15.49	5.674	4.514	3.530	3.372	3.183	3.298	2.714	2.842	1.913	1.777	1.500	1.506	1.335	1.338	1.244	1.003	1.166	1.043	0.927	0.705	0.802	0.793	0.671	0.676	0.683	0.582	0.655	0.454	0.461	0.422	0.373	0.459	0.394	0.384	0.315	0.340	0.327	0.338	0.375	0.299	0.392	0.608	1.332	2.368	3.271	3.297	1.319	0.416	0.269	0.242	0.203	0.236	0.245	0.275	0.241	0.209	0.210	0.283	0.309	0.239	0.238	0.224	0.326	0.256	0.305	0.268	0.250	0.227	0.275	0.232	0.297
240.0	56.22	53.00	210.9	998.6	1224	264.2	9.428	5.507	4.703	4.323	3.259	3.656	2.706	2.888	2.002	1.936	1.616	1.526	1.398	1.236	1.228	1.050	1.041	0.942	0.858	0.774	0.788	0.832	0.757	0.617	0.648	0.595	0.486	0.434	0.440	0.472	0.405	0.447	0.439	0.424	0.288	0.340	0.340	0.318	0.421	0.414	0.417	0.394	0.546	0.922	2.280	5.289	5.398	3.447	1.263	0.304	0.239	0.242	0.294	0.267	0.228	0.221	0.272	0.315	0.290	0.269	0.242	0.215	0.302	0.290	0.285	0.255	0.248	0.238	0.258	0.249	0.266
245.0	58.82	78.17	77.98	421.5	1573	1286	177.3	7.745	5.223	4.174	3.669	3.730	2.926	2.829	2.330	1.728	1.735	1.417	1.432	1.436	1.235	1.334	0.978	0.870	0.860	0.861	0.867	0.732	0.798	0.675	0.647	0.664	0.507	0.508	0.464	0.455	0.476	0.456	0.394	0.423	0.337	0.381	0.392	0.351	0.363	0.480	0.354	0.423	0.362	0.394	0.772	2.250	5.042	7.901	6.896	3.381	0.762	0.284	0.286	0.266	0.237	0.225	0.241	0.316	0.302	0.240	0.260	0.290	0.299	0.305	0.252	0.267	0.250	0.316	0.313	0.258	0.264
250.0	38.91	78.23	119.5	139.9	576.9	1573	1753	221.7	25.05	5.747	4.451	4.229	3.748	2.862	2.558	2.072	2.061	1.483	1.567	1.393	1.271	1.321	1.069	0.923	0.952	0.868	0.815	0.760	0.709	0.702	0.713	0.629	0.531	0.577	0.526	0.450	0.456	0.374	0.381	0.432	0.340	0.349	0.382	0.367	0.335	0.395	0.378	0.550	0.630	0.519	0.467	0.762	1.452	2.970	5.281	7.824	9.448	7.512	3.638	0.930	0.290	0.281	0.266	0.281	0.271	0.259	0.263	0.258	0.305	0.250	0.262	0.271	0.268	0.242	0.285	0.262	0.289
255.0	31.26	40.61	125.6	182.8	179.3	445.1	1766	2569	281.1	18.78	6.451	5.381	4.014	3.169	2.894	2.445	2.187	1.779	1.619	1.448	1.226	1.408	1.050	1.134	0.882	0.953	0.831	0.826	0.718	0.620	0.718	0.560	0.638	0.569	0.558	0.466	0.500	0.427	0.428	0.484	0.345	0.389	0.363	0.384	0.350	0.319	0.351	0.348	0.456	0.637	0.797	0.795	0.690	0.927	1.467	2.242	4.532	10.22	15.85	12.79	5.431	0.924	0.235	0.312	0.263	0.311	0.231	0.346	0.348	0.263	0.249	0.232	0.265	0.304	0.274	0.243	0.279
260.0	26.68	26.72	62.52	205.3	191.2	142.0	609.2	2705	2231	212.3	12.02	6.374	4.279	3.571	2.999	2.878	2.404	1.800	1.853	1.514	1.289	1.342	1.100	1.057	0.885	0.983	0.945	0.845	0.805	0.846	0.786	0.701	0.616	0.552	0.465	0.472	0.442	0.391	0.443	0.383	0.407	0.424	0.365	0.359	0.392	0.379	0.277	0.306	0.325	0.340	0.566	1.283	1.142	0.745	0.599	0.819	1.365	3.244	8.344	15.64	19.49	12.08	3.324	0.540	0.332	0.305	0.289	0.331	0.360	0.267	0.268	0.266	0.267	0.259	0.260	0.277	0.280
265.0	25.94	20.87	31.78	118.1	277.5	158.0	182.8	1072	3539	1876	151.8	9.446	5.293	4.074	3.115	2.932	2.243	2.046	1.719	1.398	1.420	1.235	1.148	1.117	1.041	1.021	0.867	0.814	0.835	0.861	0.853	0.609	0.616	0.517	0.542	0.495	0.451	0.434	0.512	0.324	0.355	0.396	0.380	0.419	0.448	0.327	0.253	0.327	0.303	0.282	0.373	0.828	1.360	1.326	0.894	0.580	0.641	1.099	2.218	5.383	13.01	21.52	20.38	9.538	1.798	0.404	0.302	0.328	0.349	0.238	0.256	0.277	0.278	0.247	0.329	0.310	0.348
270.0	36.74	33.15	28.99	55.05	184.2	321.0	211.7	296.7	1290	3199	3152	645.1	22.70	5.143	3.982	3.120	2.480	2.165	1.938	1.619	1.492	1.296	1.176	1.154	1.138	1.018	0.991	0.943	0.869	0.852	0.847	0.670	0.621	0.572	0.502	0.468	0.471	0.527	0.448	0.407	0.435	0.370	0.425	0.408	0.428	0.339	0.329	0.392	0.337	0.303	0.309	0.472	0.695	1.091	1.484	1.515	1.375	0.943	0.957	1.573	3.437	7.082	12.74	18.35	20.56	16.60	8.038	1.827	0.395	0.277	0.290	0.287	0.325	0.330	0.343	0.322	0.323
275.0	62.62	65.84	60.64	56.90	96.64	225.4	417.0	229.2	338.0	880.7	3290	6315	169.9	17.30	5.297	3.828	2.895	2.628	2.275	1.876	1.743	1.448	1.080	1.147	1.056	1.041	1.054	0.910	0.906	0.777	0.791	0.695	0.764	0.611	0.581	0.489	0.518	0.491	0.548	0.458	0.484	0.394	0.364	0.399	0.416	0.433	0.435	0.496	0.468	0.344	0.347	0.423	0.517	0.650	0.771	1.300	2.102	2.468	1.598	0.945	1.191	1.941	3.143	4.644	7.576	16.90	29.11	26.03	11.05	1.637	0.506	0.329	0.319	0.306	0.338	0.322	0.304
280.0	102.3	121.5	119.8	93.41	100.3	149.2	354.5	386.5	191.4	268.2	1063	6195	4199	132.3	10.67	4.566	3.354	2.740	2.601	2.075	1.885	1.711	1.129	1.249	0.999	1.049	1.002	0.987	1.011	0.877	0.895	0.787	0.764	0.641	0.643	0.505	0.529	0.553	0.535	0.555	0.512	0.442	0.401	0.457	0.515	0.533	0.566	0.636	0.571	0.485	0.483	0.555	0.568	0.561	0.683	0.774	1.254	2.231	2.878	2.252	1.058	0.870	1.241	1.604	2.277	4.842	11.91	24.70	32.63	22.36	7.104	0.773	0.358	0.334	0.312	0.292	0.339
285.0	135.5	205.9	234.4	207.0	171.1	157.8	215.5	481.6	314.3	193.1	364.3	2133	5504	3230	91.68	6.678	4.223	3.175	2.628	2.296	2.108	1.666	1.449	1.289	1.213	1.127	1.012	1.065	1.117	0.824	0.910	0.771	0.697	0.612	0.772	0.663	0.495	0.633	0.584	0.565	0.494	0.497	0.520	0.502	0.585	0.654	0.695	0.927	0.778	0.762	0.780	0.894	0.840	0.804	0.856	0.781	0.937	1.310	1.954	2.937	2.807	1.571	1.154	1.116	1.317	1.946	3.428	7.460	16.84	30.63	31.71	17.36	3.699	0.542	0.370	0.345	0.340
290.0	238.4	359.6	490.0	529.5	420.1	282.8	207.0	305.7	548.5	493.9	379.6	760.7	1937	4035	2993	382.8	17.91	4.149	3.234	2.668	2.293	1.897	1.691	1.386	1.320	1.249	1.094	1.126	1.016	0.944	0.869	0.781	0.806	0.714	0.740	0.701	0.678	0.685	0.639	0.613	0.520	0.552	0.579	0.565	0.649	0.764	0.991	1.384	1.550	1.481	1.545	1.902	1.672	1.560	1.283	1.149	1.065	1.120	1.240	1.580	2.434	3.045	3.188	2.580	1.901	1.797	2.162	3.039	5.217	9.356	15.36	22.32	25.09	22.23	12.61	3.749	0.704
295.0	313.5	532.2	805.4	887.4	762.8	464.9	289.2	295.8	448.5	850.1	838.7	688.2	853.6	1228	2967	4424	507.9	14.03	4.271	3.072	2.482	2.269	2.006	1.523	1.357	1.302	1.230	1.132	1.170	1.000	0.937	0.822	0.926	0.847	0.816	0.704	0.798	0.819	0.717	0.678	0.686	0.670	0.678	0.671	0.860	1.069	1.286	1.943	2.205	2.523	2.461	3.115	2.967	2.788	2.116	1.596	1.349	1.340	1.329	1.540	1.867	2.261	2.975	4.639	4.749	3.671	3.086	3.058	3.193	4.212	5.297	6.445	7.872	14.82	28.66	33.19	17.94
300.0	371.5	682.1	1014	1188	993.9	596.6	372.6	359.9	486.8	798.0	1274	977.1	796.7	663.8	999.0	3871	3772	82.53	8.241	3.948	3.062	2.879	2.143	1.716	1.640	1.419	1.345	1.130	1.307	1.041	0.890	0.992	0.820	0.781	0.758	0.738	0.818	0.831	0.775	0.687	0.704	0.822	0.798	0.785	0.971	1.142	1.590	2.114	2.494	3.018	3.221	4.195	3.875	3.536	2.858	2.094	1.636	1.779	1.658	1.992	2.147	2.583	2.913	4.022	5.411	6.538	5.419	4.259	3.614	4.065	3.832	3.722	3.353	4.804	9.838	21.84	34.76
305.0	400.6	773.9	1156	1346	1154	721.4	464.4	460.9	613.7	860.9	1328	1501	1033	697.6	531.0	1332	4301	2861	63.12	5.901	3.804	2.961	2.234	1.841	1.713	1.494	1.232	1.175	1.194	1.074	1.057	0.933	0.894	0.793	0.772	0.781	0.913	0.777	0.824	0.820	0.905	0.759	0.779	0.765	0.943	1.240	1.673	2.513	2.971	3.338	3.736	4.623	4.583	3.891	3.446	2.500	2.055	2.106	2.050	2.426	2.707	3.096	3.540	4.087	4.583	6.352	7.377	6.936	5.506	4.854	4.222	3.779	3.360	2.908	3.675	6.435	13.64
310.0	456.9	818.9	1247	1437	1236	806.7	543.2	560.5	713.2	948.1	1265	1597	1523	939.5	557.2	542.1	1418	3028	2848	285.7	15.65	4.023	2.586	2.213	1.864	1.665	1.488	1.265	1.241	1.113	1.108	1.032	0.975	0.793	0.779	0.837	0.951	0.874	0.895	0.804	0.865	0.783	0.844	0.861	1.000	1.339	1.837	2.645	3.159	3.320	3.979	4.944	4.837	4.464	3.661	2.809	2.407	2.299	2.427	2.578	2.947	3.469	4.027	4.566	5.069	5.908	6.539	7.467	7.746	7.469	6.128	4.672	3.833	3.130	2.843	3.109	4.306
315.0	497.8	875.2	1252	1443	1224	844.3	614.9	625.8	787.0	1010	1287	1507	1620	1318	749.7	475.0	554.5	835.0	2096	3514	418.4	12.80	3.991	2.936	2.219	1.970	1.750	1.517	1.496	1.156	1.222	0.982	0.895	0.768	0.771	0.838	1.035	0.892	0.839	0.753	0.808	0.818	0.839	0.909	1.063	1.466	1.939	2.773	3.294	3.501	4.037	4.917	4.843	4.307	3.662	3.014	2.691	2.585	2.759	2.901	3.119	3.724	4.236	4.923	5.199	5.986	6.397	6.756	6.920	7.109	8.352	7.605	5.291	4.067	3.499	2.951	3.027
320.0	543.2	1015	1362	1440	1212	843.5	663.3	693.6	865.4	1107	1386	1588	1630	1579	1069	609.7	464.2	381.9	645.8	2735	3061	64.89	7.546	3.428	2.492	1.969	1.984	1.612	1.335	1.308	1.213	1.050	1.013	0.842	0.809	1.029	0.936	0.915	0.810	0.753	0.785	0.762	0.938	0.994	1.106	1.682	2.165	3.176	3.716	3.715	3.888	4.982	4.629	4.325	3.556	3.181	2.880	2.818	2.979	3.073	3.368	3.886	4.531	5.418	5.899	6.188	6.891	7.099	7.089	7.891	7.748	8.279	7.490	5.765	4.512	3.644	3.339
325.0	667.9	1253	1710	1622	1217	884.1	714.7	750.7	938.8	1194	1475	1696	1715	1580	1384	836.4	521.0	341.5	288.8	883.5	3080	2402	53.72	5.647	3.212	2.546	1.910	1.638	1.547	1.620	1.434	1.112	0.997	0.946	0.985	0.891	1.009	0.894	0.848	0.865	0.756	0.840	0.916	1.122	1.467	2.020	2.715	3.998	4.691	4.614	4.503	5.383	4.955	4.431	3.860	3.332	3.144	3.056	3.393	3.608	3.639	4.326	5.117	5.777	6.254	6.508	7.217	7.469	8.053	8.281	7.815	7.751	7.412	7.764	6.826	5.139	4.005
330.0	790.4	1496	2094	1900	1332	941.3	767.6	830.4	1007	1269	1562	1782	1799	1632	1392	1120	716.7	422.3	284.1	350.8	975.2	2290	2347	239.4	14.87	3.418	2.431	2.081	1.727	1.607	1.319	1.181	1.160	0.964	1.033	0.865	0.955	0.934	0.923	0.870	0.830	0.860	0.938	1.184	1.573	2.207	3.084	4.688	5.613	5.373	5.269	5.888	5.324	4.557	3.845	3.360	3.373	3.354	3.522	3.765	4.259	4.653	5.279	5.818	6.379	6.993	7.465	8.083	8.230	8.599	8.407	7.807	7.669	7.348	7.310	6.992	5.935
335.0	836.1	1624	2245	2064	1478	992.4	834.8	888.9	1058	1304	1603	1810	1847	1703	1409	1150	990.2	613.2	370.5	301.8	369.4	623.9	1616	2950	375.3	14.13	3.545	2.690	2.145	1.694	1.492	1.195	1.177	1.025	1.060	0.928	1.108	0.910	0.826	0.952	0.806	0.883	0.881	1.185	1.788	2.339	3.093	5.088	5.794	5.917	5.838	6.258	5.364	4.923	4.012	3.261	3.602	3.438	3.954	4.049	4.496	5.149	5.640	6.005	6.467	6.911	7.657	8.150	8.368	8.971	8.805	8.136	8.103	7.728	7.166	6.733	6.684
340.0	866.5	1699	2389	2143	1525	1042	888.0	936.5	1102	1362	1614	1814	1857	1723	1440	1152	1007	784.4	477.6	345.9	280.0	268.8	497.8	2202	2647	282.0	7.695	3.191	2.736	2.011	1.727	1.407	1.226	1.102	1.053	1.042	0.969	0.918	0.886	0.794	0.880	0.995	0.983	1.220	1.750	2.518	3.303	5.076	6.293	6.586	6.254	6.301	5.682	4.949	4.448	3.514	3.648	3.636	4.166	4.306	4.554	5.454	5.720	6.102	6.693	6.889	7.532	8.103	8.188	8.612	8.743	8.522	8.543	7.774	7.102	6.661	6.427
345.0	803.7	1608	2351	2145	1537	1085	930.7	955.5	1127	1343	1588	1775	1817	1709	1452	1165	959.8	873.2	634.5	414.4	307.3	233.7	221.8	695.0	2541	2138	48.86	4.760	2.815	2.128	1.871	1.466	1.393	1.188	0.932	1.078	0.978	0.935	0.902	0.841	0.899	0.911	1.097	1.269	1.625	2.355	3.406	4.645	6.275	6.436	6.411	6.799	5.878	4.930	4.496	3.860	3.739	3.637	4.227	4.332	4.660	5.198	5.831	6.181	6.482	6.657	7.521	8.203	8.007	8.485	8.408	8.646	8.332	7.864	7.332	6.718	6.725
350.0	731.6	1441	2142	2051	1545	1134	975.5	985.8	1115	1302	1511	1680	1727	1631	1429	1190	984.2	843.1	774.4	582.5	402.7	298.7	230.5	277.6	793.8	1888	1970	215.4	14.26	3.139	2.226	1.689	1.434	1.216	1.176	1.034	0.895	0.938	0.921	0.830	0.839	0.898	0.944	1.196	1.562	2.199	3.048	4.374	5.656	5.730	5.902	6.623	5.720	4.939	4.442	4.040	4.045	4.076	4.235	4.516	4.741	5.165	5.381	5.854	6.411	6.706	6.998	7.677	8.001	8.224	7.971	8.241	8.194	7.894	7.219	6.726	6.574
355.0	676.1	1305	1914	1919	1560	1213	1047	1040	1140	1293	1479	1615	1669	1600	1429	1225	1041	887.3	792.9	760.2	579.0	409.6	311.3	253.1	308.9	518.2	1330	2393	336.9	13.22	3.357	2.232	1.461	1.373	1.177	1.016	0.965	0.933	0.898	0.781	0.782	0.979	0.871	1.110	1.476	2.014	2.834	3.953	5.023	4.940	5.472	5.925	5.682	5.321	4.732	4.180	4.456	4.342	4.345	4.563	4.841	5.129	5.307	5.957	6.322	6.603	6.834	7.311	7.483	7.601	7.943	7.834	7.893	7.559	6.952	7.292	6.893
360.0	643.0	1197	1784	1857	1568	1269	1106	1106	1179	1306	1453	1597	1629	1578	1438	1259	1104	962.6	846.4	807.3	750.3	534.5	397.0	308.4	248.2	235.8	413.0	1802	2236	259.6	7.103	2.994	1.993	1.435	1.376	1.167	1.213	1.027	0.877	0.790	0.821	0.961	0.931	1.150	1.533	1.885	2.536	3.640	4.806	4.841	5.499	6.013	5.614	5.188	4.756	4.551	4.853	4.740	4.445	4.678	4.985	5.282	5.738	6.081	6.494	6.443	6.761	6.994	7.299	7.671	7.852	7.759	7.600	7.756	7.418	7.428	7.738
365.0	637.2	1146	1668	1830	1610	1350	1187	1139	1209	1332	1449	1560	1603	1581	1449	1311	1169	1036	927.6	848.3	822.3	699.9	500.2	385.4	294.9	219.3	199.6	580.0	2184	1876	45.04	5.023	2.832	1.971	1.498	1.097	1.027	1.080	0.931	0.833	0.821	0.888	0.960	1.134	1.545	1.811	2.585	3.491	4.292	4.669	5.256	5.898	5.802	5.558	4.901	4.818	5.112	4.848	4.657	4.772	5.061	5.426	5.790	6.273	6.308	6.237	6.774	7.080	7.476	7.461	7.950	7.655	7.656	7.868	7.826	7.980	7.798
370.0	601.9	1085	1608	1816	1691	1474	1294	1229	1282	1383	1469	1565	1605	1588	1504	1387	1283	1170	1068	966.3	893.1	842.3	714.1	530.5	404.8	299.6	219.7	244.7	689.8	1695	1765	194.2	12.89	2.939	1.866	1.376	1.230	1.066	1.017	0.960	0.850	0.898	0.959	1.093	1.412	1.755	2.383	3.207	4.043	4.402	5.022	6.053	5.995	5.991	5.425	5.361	5.599	5.289	5.244	5.102	5.341	5.771	6.041	6.304	6.431	6.638	6.702	6.754	7.337	7.362	7.992	7.948	8.154	8.098	8.043	8.126	8.316
375.0	640.5	1083	1581	1833	1801	1648	1439	1358	1380	1425	1513	1589	1641	1641	1586	1498	1415	1326	1217	1119	1016	930.2	887.3	744.0	549.4	416.4	305.5	235.3	275.0	472.2	1222	2091	289.2	11.05	3.080	1.725	1.679	1.177	0.951	0.984	0.991	1.087	1.110	1.071	1.434	1.892	2.372	3.250	4.171	4.221	4.815	6.452	6.672	6.271	6.043	5.911	5.820	5.650	5.612	5.898	5.833	6.132	6.398	6.285	6.886	6.950	7.249	6.899	7.522	7.261	8.158	8.058	8.310	8.861	8.639	8.806	8.994
380.0	646.5	1090	1596	1907	1924	1734	1543	1437	1461	1484	1529	1624	1664	1684	1658	1589	1527	1446	1347	1234	1128	1021	951.1	895.6	688.5	504.8	389.5	284.9	226.1	216.8	387.0	1609	1797	44.18	6.415	2.801	1.920	1.353	1.099	1.037	1.056	1.000	1.205	1.134	1.500	1.973	2.377	3.138	4.183	4.388	5.237	6.644	6.581	6.838	6.813	6.271	6.349	6.167	6.074	6.340	6.121	6.531	6.650	6.433	6.854	7.130	7.276	7.172	7.484	7.506	8.007	8.207	8.345	9.449	8.515	9.427	9.548
385.0	666.1	1140	1663	1976	2034	1872	1660	1529	1519	1526	1560	1633	1695	1731	1722	1673	1631	1558	1461	1334	1223	1116	1022	970.0	843.9	627.1	476.5	356.1	264.5	196.1	185.0	523.8	1752	1371	36.12	4.793	2.651	1.607	1.341	1.261	1.108	1.169	1.208	1.266	1.614	1.985	2.517	3.599	4.119	4.581	5.318	6.766	6.786	7.474	7.135	6.973	6.493	6.556	6.840	6.539	6.433	6.649	6.685	6.806	6.706	6.942	6.816	7.287	7.709	7.828	8.325	8.831	8.507	9.693	9.654	9.795	10.21
390.0	722.5	1188	1738	2071	2185	2026	1786	1656	1613	1598	1599	1656	1739	1786	1801	1779	1756	1691	1580	1459	1341	1240	1136	1052	961.6	806.4	613.5	471.9	360.8	266.7	192.8	213.0	557.2	1284	1253	151.3	10.67	2.705	1.748	1.521	1.314	1.327	1.364	1.449	1.629	1.969	2.688	3.686	4.349	4.677	5.478	7.101	7.417	8.024	7.664	7.562	7.513	7.168	7.096	6.833	6.863	7.145	6.999	7.221	7.014	6.877	7.029	7.315	7.805	8.156	8.393	8.862	9.159	9.953	9.922	10.44	10.76
395.0	718.5	1291	1835	2192	2303	2196	1934	1756	1710	1661	1621	1693	1775	1840	1868	1867	1857	1808	1693	1566	1443	1345	1253	1150	1039	943.8	795.6	607.4	471.9	368.7	263.4	194.8	219.9	361.5	930.4	1477	228.6	8.699	2.900	2.037	1.536	1.342	1.311	1.641	1.907	2.258	2.824	3.911	4.497	4.992	5.649	7.746	8.101	8.354	8.409	8.150	8.380	7.698	7.784	7.376	7.349	7.095	7.387	7.239	6.921	7.050	7.286	7.659	8.081	8.265	8.314	9.119	9.433	9.506	10.47	11.36	11.24
400.0	772.9	1337	1929	2276	2401	2282	2010	1834	1757	1701	1663	1711	1785	1855	1897	1892	1912	1859	1747	1631	1503	1409	1323	1227	1117	1007	913.2	733.9	577.9	453.1	335.3	235.9	178.2	165.5	301.0	1180	1255	37.22	4.953	2.487	1.832	1.423	1.481	1.663	1.912	2.345	2.902	3.986	4.542	4.902	5.986	7.734	8.162	8.379	8.566	8.464	8.187	7.955	7.884	7.594	7.548	7.605	7.590	7.634	7.341	7.372	7.461	7.605	7.846	8.391	8.617	9.154	9.423	10.18	10.45	11.32	11.57
405.0	791.9	1355	1999	2346	2476	2329	2043	1899	1804	1735	1673	1713	1782	1854	1905	1923	1924	1880	1791	1666	1541	1452	1371	1285	1186	1064	974.5	858.3	681.2	540.6	407.4	293.2	202.5	146.4	137.7	391.2	1269	947.4	30.55	3.919	2.313	1.653	1.556	1.763	2.026	2.350	3.211	4.006	4.838	5.191	6.124	8.096	8.376	8.833	8.547	8.568	8.262	8.492	7.947	7.979	7.710	7.781	7.422	7.564	7.456	7.095	7.420	7.245	8.023	8.320	8.964	9.282	9.654	10.18	10.43	11.23	11.43
410.0	817.4	1368	2024	2416	2502	2355	2114	1960	1856	1754	1698	1692	1757	1819	1878	1899	1904	1870	1780	1668	1553	1473	1403	1336	1252	1139	1036	947.9	826.2	661.5	506.0	372.7	263.2	182.2	128.9	152.0	407.4	927.1	698.5	134.8	8.217	2.277	1.999	1.812	1.990	2.491	3.229	4.093	5.155	5.318	6.197	7.906	8.513	8.877	8.720	8.263	8.659	8.569	8.291	8.022	8.172	7.815	7.951	7.754	7.580	7.272	7.418	7.646	7.818	8.226	8.736	9.031	9.643	10.13	10.30	10.98	11.42
415.0	789.5	1385	2053	2413	2500	2359	2132	1969	1880	1752	1670	1650	1706	1752	1809	1823	1843	1811	1733	1633	1527	1458	1411	1360	1287	1191	1102	998.2	918.9	794.2	609.0	454.7	328.4	230.8	158.4	119.8	146.3	253.4	616.1	1032	190.0	6.461	2.592	2.093	2.210	2.517	3.002	4.386	5.076	5.456	6.423	7.894	8.536	8.858	8.761	8.388	8.615	8.387	8.102	8.536	8.075	8.144	7.938	7.653	7.649	7.340	7.215	7.425	7.966	8.030	8.671	8.444	8.971	9.569	10.04	10.79	11.07
420.0	799.9	1371	2053	2361	2463	2350	2105	1969	1872	1759	1643	1617	1654	1693	1737	1764	1775	1753	1677	1584	1495	1431	1386	1357	1290	1214	1132	1031	947.4	863.5	687.4	508.3	371.6	264.5	186.3	129.1	99.87	99.93	194.5	820.6	894.1	33.79	4.104	2.628	2.283	2.659	3.067	4.366	4.961	5.374	5.971	7.886	8.228	8.450	8.311	8.162	8.355	8.455	8.189	8.083	8.172	7.865	7.942	7.810	7.356	7.276	6.927	7.015	7.617	7.837	8.499	8.406	8.979	9.224	9.616	10.47	10.58
425.0	776.5	1359	1996	2319	2410	2271	2110	1950	1864	1728	1628	1587	1603	1632	1672	1680	1696	1685	1624	1523	1447	1395	1360	1335	1284	1216	1142	1052	960.9	882.4	746.2	553.5	407.5	293.2	210.4	146.4	101.6	74.69	76.95	266.0	891.0	685.5	27.25	3.440	2.604	2.897	3.121	4.233	4.891	5.465	5.880	7.835	8.292	8.306	8.213	8.147	8.530	8.421	8.228	8.012	8.043	7.811	7.554	7.558	7.156	6.917	7.073	7.101	7.403	7.429	7.829	8.141	8.798	9.013	9.177	9.698	10.32
430.0	764.6	1282	1919	2259	2339	2219	2069	1929	1833	1700	1579	1532	1534	1554	1565	1577	1593	1567	1528	1442	1373	1335	1313	1293	1259	1204	1136	1057	978.4	884.5	772.2	619.0	454.9	331.4	243.1	173.2	123.7	87.18	64.86	91.52	277.3	650.1	544.0	120.5	8.093	3.364	3.398	4.264	4.792	5.114	5.877	7.553	7.921	8.149	8.013	7.894	8.304	8.131	7.907	7.975	8.083	7.709	7.564	7.695	7.175	7.113	6.941	6.566	7.105	7.216	7.442	7.777	8.081	8.612	8.624	8.978	9.551
435.0	842.1	1225	1838	2171	2232	2134	2012	1886	1782	1660	1529	1469	1457	1465	1468	1471	1480	1461	1429	1353	1298	1267	1253	1240	1217	1169	1113	1055	978.7	889.3	768.8	646.4	509.9	371.0	275.9	202.3	149.4	106.2	77.06	65.25	93.32	172.9	449.3	826.5	177.6	7.738	4.035	4.285	4.774	4.904	5.778	7.115	7.699	7.924	7.734	7.775	8.055	7.960	7.875	7.980	8.098	7.599	7.467	7.146	7.239	6.932	6.829	6.491	6.712	6.872	7.222	7.224	7.380	7.970	8.236	8.569	8.913
440.0	922.8	1190	1690	2075	2140	2089	1962	1861	1755	1615	1496	1429	1411	1394	1396	1386	1399	1373	1352	1281	1234	1203	1188	1194	1174	1136	1091	1034	971.6	890.5	766.8	642.7	533.0	408.2	299.6	223.7	168.9	125.4	92.05	68.98	59.78	66.05	139.9	642.4	770.0	31.52	5.545	4.916	4.943	4.994	5.822	7.031	7.448	7.508	7.602	7.747	7.978	7.849	7.764	7.459	7.608	7.874	7.336	6.970	6.945	6.617	6.625	6.111	6.320	6.684	6.734	6.902	6.994	7.514	7.828	7.837	8.857
445.0	897.5	1219	1623	1970	2077	2006	1906	1824	1710	1569	1443	1372	1351	1335	1317	1311	1317	1302	1270	1209	1165	1144	1134	1138	1126	1090	1052	1002	948.1	873.5	760.7	637.2	533.6	435.1	323.7	244.0	186.9	141.3	105.5	80.13	61.80	47.42	55.41	206.8	741.0	611.4	24.94	5.396	4.939	5.079	5.553	6.858	6.792	7.415	7.308	7.461	7.666	7.700	7.646	7.172	7.927	7.697	7.085	7.220	6.343	6.251	6.565	6.174	6.022	6.398	6.710	6.851	6.649	7.541	7.170	7.799	8.226
450.0	720.9	1293	1561	1853	1929	1886	1813	1726	1622	1490	1381	1294	1251	1232	1208	1195	1199	1183	1156	1111	1071	1054	1051	1053	1043	1019	986.9	948.6	901.9	837.5	740.1	623.3	517.9	439.9	356.2	269.9	209.0	161.7	125.7	97.54	74.08	55.42	44.68	69.96	226.4	550.3	466.3	112.7	9.262	5.114	5.284	6.510	6.576	6.838	6.847	7.021	7.267	7.283	7.383	7.137	7.205	6.949	6.866	6.648	6.381	6.171	5.840	6.054	5.714	5.754	6.098	6.108	6.286	6.766	6.629	7.002	7.302
455.0	550.2	1238	1569	1693	1758	1746	1709	1618	1534	1397	1283	1207	1150	1127	1093	1063	1066	1058	1037	994.5	962.1	945.1	950.7	958.6	954.1	934.8	910.0	878.5	841.9	789.4	703.2	607.0	508.6	424.0	364.6	300.1	230.8	180.8	143.4	114.7	89.16	68.24	50.94	45.36	71.62	143.5	338.2	678.3	151.6	8.590	5.113	6.122	6.276	6.383	6.451	6.491	6.433	6.827	6.695	6.647	6.702	6.809	6.350	5.932	5.683	5.636	5.604	5.465	5.242	5.323	5.831	5.574	5.854	5.721	6.251	6.436	6.533
460.0	485.7	1025	1680	1619	1643	1618	1598	1549	1450	1330	1212	1127	1071	1032	1006	977.0	971.2	964.1	943.5	916.1	884.8	866.6	871.8	889.9	882.5	863.7	845.0	821.5	786.0	743.2	672.3	581.9	496.6	418.1	353.6	309.5	247.8	193.4	156.9	125.4	98.23	77.06	57.86	44.26	41.85	50.65	100.5	473.9	601.7	24.59	6.498	6.014	6.038	6.105	6.143	6.177	6.522	6.428	6.508	6.389	6.384	6.271	5.951	5.767	5.342	5.397	5.030	5.060	5.135	5.148	5.227	5.138	5.143	5.306	5.728	5.662	5.960
465.0	443.7	836.9	1713	1682	1557	1532	1498	1449	1363	1242	1138	1054	1004	951.1	921.4	898.6	883.2	882.5	862.8	832.4	809.5	798.8	799.1	817.1	811.1	799.0	780.2	761.3	735.6	699.1	643.4	562.0	480.4	408.6	345.8	305.9	261.2	205.2	163.6	133.9	105.1	82.56	64.01	48.25	38.27	32.68	37.93	144.2	537.3	474.5	22.20	6.693	5.811	5.723	5.676	5.889	5.961	6.409	6.281	6.109	5.968	6.022	5.712	5.483	5.333	5.042	4.764	4.981	4.863	4.596	4.713	4.868	4.749	5.156	4.886	5.171	5.602
470.0	390.0	689.4	1403	1913	1455	1379	1354	1311	1241	1139	1046	957.1	903.8	858.8	821.3	793.9	771.5	771.0	754.2	730.9	708.8	704.8	707.8	721.5	718.4	710.1	695.5	682.6	664.6	634.2	586.9	520.8	453.6	391.5	333.0	290.7	256.9	215.8	172.8	139.5	112.1	89.94	70.73	54.56	41.63	32.13	27.09	46.62	157.5	375.1	417.4	109.6	10.50	5.664	5.403	5.489	5.536	5.835	5.484	5.557	5.663	5.546	5.394	5.160	4.984	4.741	4.357	4.551	4.419	4.111	4.402	4.287	4.271	4.599	4.558	4.699	5.096
475.0	331.4	598.3	1035	1846	1624	1223	1218	1176	1120	1020	930.9	868.9	810.5	762.2	722.2	684.9	667.1	666.6	648.9	631.9	617.8	616.0	616.7	626.6	624.8	625.6	615.5	602.5	590.0	566.9	529.9	478.1	422.2	370.1	317.9	278.5	241.4	215.2	181.6	144.0	116.6	94.45	77.37	59.93	45.54	35.52	27.83	26.82	47.57	94.73	210.9	453.7	150.1	10.56	5.051	5.036	5.375	5.067	5.258	5.013	4.950	4.854	4.712	4.618	4.676	4.161	3.906	3.921	3.883	4.027	3.863	4.179	3.989	4.143	4.171	4.048	4.008
480.0	290.4	551.2	872.8	1482	1927	1190	1133	1067	1039	953.1	873.4	797.0	741.8	698.3	653.8	623.6	606.7	599.6	581.5	572.7	559.8	553.3	555.0	571.1	565.0	566.2	555.1	551.8	538.0	524.5	492.3	449.1	399.5	352.4	307.1	271.8	234.7	206.5	184.9	151.0	121.4	97.59	79.52	63.06	49.22	37.39	29.57	24.00	24.03	31.97	59.41	256.9	441.1	124.4	6.674	4.988	4.892	4.955	4.572	4.913	4.617	4.479	4.451	4.232	4.323	3.888	3.790	3.736	3.596	3.631	3.534	3.698	4.078	3.863	3.644	3.709	3.843
485.0	274.8	494.1	792.4	1144	1972	1332	1037	1013	963.7	897.7	815.3	753.1	684.9	641.9	603.8	568.0	554.3	548.0	531.0	520.1	509.9	508.1	509.6	520.1	520.6	518.4	510.2	506.6	498.6	487.7	461.9	423.9	379.8	340.1	299.6	262.8	230.6	200.1	181.8	157.4	126.9	101.4	81.78	65.95	51.92	40.54	32.50	25.04	20.52	18.88	22.63	74.65	325.4	408.9	26.94	5.690	5.121	4.536	4.229	4.666	4.155	4.328	4.168	3.875	4.089	3.831	3.617	3.528	3.369	3.258	3.333	3.460	3.627	3.475	3.421	3.589	3.804
490.0	250.1	465.0	726.1	929.5	1492	1721	1033	929.1	883.5	823.4	754.5	693.8	635.3	586.6	541.8	512.3	494.9	485.9	475.5	464.6	456.2	450.3	456.6	464.2	462.9	463.6	457.4	457.9	453.9	446.1	425.1	393.1	353.6	319.1	285.4	252.5	223.2	194.5	172.7	155.1	132.9	105.9	84.80	68.84	56.21	44.06	35.25	27.39	21.96	17.67	16.34	26.07	90.86	248.0	286.9	115.9	12.21	4.786	4.121	4.273	3.899	4.042	3.864	3.716	3.626	3.361	3.384	3.285	3.073	3.185	3.103	3.248	3.195	3.365	3.248	3.198	3.276
495.0	224.5	410.8	677.1	805.4	1014	1735	1311	848.4	796.2	751.6	684.9	623.6	563.6	529.1	479.6	452.5	434.4	426.8	419.0	403.9	395.5	400.0	402.3	409.1	411.2	408.1	404.6	405.3	408.0	398.3	384.0	357.6	326.9	295.0	264.0	239.2	212.1	186.7	164.2	145.8	132.1	112.4	89.17	70.82	58.11	47.35	38.30	30.32	24.02	19.34	16.02	16.36	29.15	63.58	145.4	395.9	188.6	13.62	4.137	4.005	3.857	3.574	3.540	3.527	3.088	3.091	3.014	2.709	3.043	2.877	2.816	2.820	2.840	2.847	2.962	3.027	3.000
500.0	187.2	365.3	604.9	733.5	811.2	1335	1657	823.7	730.7	689.5	635.9	576.5	519.2	477.7	436.0	407.9	387.8	381.4	374.2	362.4	354.8	355.2	359.4	364.9	365.3	364.1	364.9	368.1	366.4	366.7	352.5	329.3	301.8	274.9	248.4	223.9	200.7	177.5	157.8	137.7	123.6	112.7	91.04	71.82	58.38	47.59	38.59	32.02	25.68	20.78	17.06	15.10	16.26	22.96	41.41	196.3	423.5	150.9	7.626	3.778	3.557	3.237	3.220	3.252	2.921	3.045	2.766	2.712	2.867	2.523	2.509	2.599	2.422	2.691	2.451	2.454	2.625
505.0	172.8	342.0	560.8	676.1	723.7	934.2	1768	986.9	674.2	625.5	586.8	522.4	475.0	432.1	396.7	369.5	350.8	341.3	334.2	325.3	319.5	320.9	326.2	328.8	328.6	330.2	329.8	330.7	332.2	331.1	320.4	301.0	279.0	254.7	230.4	209.9	189.3	168.5	151.8	133.0	115.8	105.0	91.24	72.46	58.44	47.44	39.03	32.04	26.76	21.22	17.33	14.98	13.44	14.14	17.18	54.04	246.4	391.4	30.85	4.894	3.543	3.104	3.152	3.002	2.912	2.903	2.709	2.436	2.596	2.488	2.348	2.328	2.500	2.341	2.399	2.353	2.336
510.0	156.5	280.2	481.6	609.9	622.7	671.8	1247	1443	662.5	559.4	515.0	464.4	418.2	379.6	347.6	323.5	305.2	295.8	287.8	282.7	277.4	276.1	281.8	282.7	283.7	285.5	284.2	287.7	289.4	287.1	281.3	264.2	245.8	226.5	207.3	188.5	171.0	154.1	138.1	122.0	107.3	94.32	85.47	72.06	58.38	46.88	38.16	31.93	26.38	21.99	18.30	15.53	13.41	12.38	11.88	19.16	65.47	195.9	241.1	122.2	12.17	3.240	2.812	2.903	2.646	2.659	2.499	2.239	2.176	2.118	2.032	2.089	2.215	2.110	2.058	2.116	2.218
515.0	135.7	239.9	402.7	550.7	547.2	555.2	705.2	1501	936.1	483.7	447.8	401.6	363.5	327.9	301.7	276.4	263.2	253.1	247.0	240.6	232.7	237.1	237.4	239.7	244.0	242.2	244.9	243.7	249.1	246.3	242.3	229.7	216.0	198.2	180.9	166.2	152.5	138.0	123.3	110.4	96.92	84.20	74.40	68.34	58.68	46.61	36.78	30.87	25.77	21.60	18.46	16.28	14.03	11.94	10.91	11.69	20.89	48.71	92.71	284.5	183.3	13.91	2.946	2.728	2.383	2.187	2.251	2.041	1.926	1.861	1.845	1.864	1.885	1.926	1.855	1.900	1.852
520.0	117.4	213.2	350.2	485.2	514.2	475.9	511.3	1099	1357	483.6	401.2	366.7	324.7	296.6	270.5	248.2	233.0	223.3	217.4	215.0	205.5	206.5	207.7	208.9	215.3	213.0	215.3	215.1	219.7	220.7	214.9	204.9	192.3	179.4	165.1	150.1	137.5	124.7	112.8	100.2	89.09	77.84	68.08	61.59	56.75	45.31	35.70	29.59	24.70	21.03	18.34	16.27	14.17	11.59	10.99	9.775	10.57	15.86	25.67	120.6	303.9	135.0	7.426	2.534	2.338	2.015	2.048	1.809	1.761	1.862	1.534	1.663	1.804	1.856	1.691	1.546	1.458
525.0	101.3	188.9	299.8	424.3	479.1	428.9	432.4	671.4	1570	640.0	363.3	331.6	295.2	266.9	241.3	219.7	207.1	196.8	194.2	189.1	181.7	181.9	184.6	187.1	188.2	190.1	189.9	190.1	196.9	198.2	195.3	183.2	172.9	161.1	148.2	136.1	126.0	113.6	103.2	91.75	81.11	70.60	62.79	55.18	52.10	45.26	36.14	28.96	23.96	20.68	17.85	15.77	13.97	11.62	10.64	8.929	8.422	8.894	9.796	32.02	151.1	280.5	31.97	4.059	2.466	2.030	1.922	1.608	1.714	1.667	1.500	1.545	1.633	1.502	1.604	1.463	1.532
530.0	94.67	163.3	257.4	340.8	421.0	395.8	368.1	426.2	1069	1183	379.3	286.4	257.5	230.1	206.4	188.5	177.2	171.6	166.1	160.8	158.6	156.5	158.3	160.5	162.4	162.0	162.7	164.2	168.0	169.1	166.3	158.5	148.0	139.4	129.8	119.9	109.8	99.79	90.23	81.21	72.26	63.46	55.93	49.20	44.14	41.49	36.38	27.85	22.49	19.02	16.68	14.76	13.04	11.32	10.34	8.694	7.855	7.045	6.379	10.78	38.66	122.2	190.9	109.0	11.47	1.889	1.677	1.741	1.566	1.537	1.435	1.346	1.402	1.393	1.370	1.281	1.344
535.0	90.07	130.3	213.9	283.0	326.3	367.4	316.9	321.1	502.1	1364	683.1	246.7	223.3	197.5	174.4	159.2	148.6	145.8	138.3	137.8	133.9	131.9	133.0	134.6	136.5	138.5	136.6	138.1	140.6	141.1	140.6	134.0	127.1	119.2	109.0	101.8	92.78	86.15	77.88	70.55	63.16	55.83	49.15	42.99	37.37	35.49	32.72	28.06	22.30	17.74	15.55	13.46	12.36	10.65	9.950	8.594	7.653	6.331	5.547	5.696	11.77	29.75	60.97	190.3	148.6	12.71	1.593	1.525	1.323	1.332	1.252	1.311	1.137	1.209	1.252	1.204	1.207
540.0	77.01	119.1	197.6	237.7	273.9	337.2	289.6	269.6	308.1	938.2	1146	256.1	192.0	170.8	152.7	139.6	130.9	125.9	122.7	119.5	115.6	114.1	114.4	116.4	117.9	118.2	120.3	119.6	124.0	122.7	123.4	115.6	111.4	104.6	96.01	89.81	81.34	75.74	68.58	61.84	55.48	50.47	44.06	38.62	34.60	30.71	28.07	26.59	21.83	16.92	14.86	13.01	11.78	10.21	9.366	8.466	7.332	5.971	5.150	4.788	5.545	9.374	16.37	73.63	208.2	106.6	6.316	1.443	1.278	1.298	1.133	1.132	1.020	1.119	1.070	1.128	1.096
545.0	67.94	107.6	167.8	210.1	241.2	285.5	277.0	233.2	245.7	488.3	1374	382.4	171.8	153.6	134.6	120.7	115.7	110.5	106.4	104.6	100.3	99.95	100.5	100.2	102.3	102.7	104.1	105.1	107.0	108.0	106.7	102.8	97.59	91.65	84.74	80.46	72.61	66.21	61.30	54.47	48.93	44.34	38.83	34.64	30.97	27.40	25.09	24.00	21.48	16.65	13.78	12.08	11.04	9.939	8.730	8.176	7.365	5.872	5.002	4.410	4.218	4.598	5.679	19.03	94.74	198.9	32.12	3.023	1.362	1.183	1.050	1.177	1.010	0.981	0.869	1.009	0.980
550.0	62.94	90.89	133.4	175.8	199.3	219.6	256.5	202.9	197.2	258.4	878.7	892.4	175.9	126.7	112.8	101.3	96.41	91.62	87.56	85.85	82.92	82.05	82.37	84.08	84.74	84.36	84.43	86.98	87.77	87.59	87.79	84.85	80.44	75.49	70.68	65.42	60.68	55.02	51.08	46.33	41.67	37.18	33.25	29.76	26.32	23.49	21.33	19.44	18.64	16.08	13.24	11.09	9.798	8.789	7.969	7.288	6.566	5.920	4.660	4.051	3.735	3.417	3.522	6.004	23.68	81.66	131.3	77.56	9.803	1.207	0.944	0.984	0.888	0.896	0.796	0.870	0.909
555.0	54.86	81.92	112.9	139.9	156.9	165.1	211.6	193.9	162.0	172.5	341.1	1114	384.6	106.3	92.84	83.66	75.62	75.19	69.71	69.25	66.05	66.19	65.94	67.62	67.62	68.06	67.95	69.75	70.24	70.77	71.06	69.07	63.76	59.64	55.93	53.26	48.61	44.09	41.23	37.76	33.67	30.24	27.10	24.87	22.23	19.97	17.67	15.38	14.32	14.18	12.70	9.787	8.677	7.638	6.927	6.316	5.800	5.315	4.814	4.008	3.186	2.937	2.827	3.109	6.930	19.68	40.95	122.5	97.72	9.277	1.015	0.955	0.878	0.734	0.689	0.850	0.766
560.0	50.44	76.47	104.2	122.6	134.2	142.7	169.5	192.9	137.9	139.9	176.4	755.9	779.7	106.9	77.97	71.87	64.20	62.83	59.67	55.41	56.80	54.87	55.03	55.79	57.74	56.94	56.57	57.57	58.53	59.89	59.81	56.91	53.35	50.66	47.03	43.74	40.88	37.10	34.76	31.64	28.54	26.06	22.61	20.77	18.83	17.63	15.36	13.33	12.14	11.92	11.35	9.860	7.440	6.798	6.009	5.684	5.092	4.621	4.418	3.666	3.144	2.729	2.527	2.340	3.269	5.789	10.43	46.25	131.8	34.44	4.047	0.962	0.850	0.628	0.679	0.736	0.755
565.0	46.52	62.90	91.83	111.9	120.6	117.2	127.4	181.2	134.1	121.0	122.7	336.5	1025	155.7	67.67	59.06	57.08	52.97	51.04	47.46	46.92	47.95	46.62	47.21	47.84	47.91	47.83	47.42	49.22	50.43	50.74	48.60	46.07	43.67	39.59	37.24	34.48	32.04	29.76	26.64	25.08	22.67	19.74	18.41	16.13	15.12	13.51	11.91	10.49	9.760	9.908	9.488	6.965	5.854	5.501	5.241	4.815	4.233	3.926	3.480	3.134	2.634	2.370	2.260	2.272	2.688	3.685	11.87	58.61	114.4	29.69	1.949	0.824	0.695	0.751	0.646	0.607
570.0	47.73	65.16	87.80	104.7	103.9	103.3	97.02	147.9	141.2	104.2	100.0	145.7	673.3	584.1	74.99	48.95	45.33	42.24	41.26	38.72	38.10	38.38	37.42	37.72	38.02	38.37	38.47	38.75	40.17	40.70	39.93	38.49	36.74	34.68	32.23	30.29	28.23	26.02	24.21	21.79	20.36	18.17	16.49	15.09	13.55	12.20	11.13	9.835	8.906	7.922	7.926	8.058	6.774	5.385	4.783	4.581	4.129	3.589	3.233	3.164	2.952	2.460	2.149	2.009	2.011	1.907	2.137	3.828	14.73	47.76	82.32	51.65	7.092	0.764	0.674	0.614	0.545
575.0	49.82	66.86	93.30	100.5	102.0	88.79	80.14	100.1	143.2	100.5	92.69	98.62	234.2	804.8	136.4	39.15	35.85	33.36	33.25	31.42	29.75	30.13	30.09	29.53	30.48	29.11	30.42	30.21	31.41	31.60	31.23	30.36	29.56	27.18	25.87	23.82	22.61	20.66	18.88	17.67	15.86	14.40	13.00	12.17	11.26	10.05	9.458	8.005	7.168	6.591	6.129	6.427	5.965	5.530	4.171	3.993	3.606	3.294	2.921	2.771	2.606	2.569	2.092	1.854	1.832	1.882	1.699	2.137	4.474	11.71	24.90	74.94	63.88	6.579	0.605	0.595	0.581
580.0	43.53	64.74	85.03	104.5	95.32	81.10	71.64	78.45	130.0	111.7	85.67	86.82	107.4	544.6	485.2	41.66	30.83	28.56	28.08	25.47	25.54	25.40	25.61	24.84	25.59	24.79	25.25	25.60	26.84	27.20	26.10	25.77	24.37	22.85	21.44	19.83	18.50	17.24	15.87	14.86	13.18	12.21	11.64	10.27	9.316	8.482	7.783	6.970	6.237	5.746	5.182	5.001	5.306	5.163	4.340	3.660	3.145	3.025	2.786	2.513	2.211	2.302	2.333	1.810	1.611	1.823	1.697	1.560	2.076	3.600	6.473	28.41	85.96	32.79	2.888	0.544	0.642
585.0	54.04	74.36	98.72	101.9	101.9	76.80	68.04	66.94	99.67	124.2	83.25	79.40	77.75	229.8	694.2	85.02	26.70	24.08	24.36	22.44	21.27	20.85	22.02	21.02	21.55	21.22	21.40	22.24	22.14	22.75	22.23	21.67	20.49	19.11	18.27	16.83	15.76	14.70	13.36	12.60	11.34	10.56	9.850	8.458	7.897	7.335	6.805	6.191	5.463	5.010	4.643	4.256	4.573	4.575	4.143	3.332	2.877	2.725	2.537	2.286	1.971	2.100	2.226	1.891	1.704	1.576	1.426	1.491	1.722	1.850	2.385	7.395	37.37	79.90	26.20	1.407	0.606
590.0	48.83	73.71	99.03	110.8	99.91	72.52	61.07	58.72	74.27	124.0	95.99	77.98	71.40	93.66	455.5	343.0	30.33	20.22	19.46	17.93	17.32	17.41	17.60	17.07	17.29	17.54	17.11	17.70	18.11	18.20	18.36	17.46	16.28	15.68	14.40	13.56	13.14	11.77	10.90	10.22	9.262	8.543	7.824	7.225	6.990	6.237	5.749	5.147	4.759	4.247	4.006	3.608	3.530	3.698	3.706	3.365	2.652	2.520	2.200	2.073	1.998	1.768	1.953	1.853	1.790	1.448	1.388	1.405	1.575	1.392	1.387	2.577	9.399	32.73	56.92	36.58	4.896
595.0	46.79	66.72	98.52	109.3	99.67	72.26	56.47	54.82	65.25	100.5	113.1	78.56	67.33	57.83	147.2	500.1	87.24	17.00	15.70	14.63	14.27	13.88	13.84	13.51	13.70	13.72	13.51	13.87	14.29	14.07	14.37	13.97	12.69	12.00	11.48	11.04	10.54	9.197	8.544	8.040	7.610	6.759	6.575	5.806	5.513	4.931	4.397	4.245	3.925	3.447	3.174	3.067	2.873	2.893	2.864	3.022	2.522	2.185	1.767	1.829	1.824	1.527	1.633	1.589	1.690	1.474	1.403	1.479	1.462	1.362	1.185	1.417	2.695	7.945	17.00	50.86	34.45
600.0	49.95	73.16	98.79	113.0	97.26	69.73	52.94	51.92	57.82	82.69	122.0	84.58	69.78	52.14	58.10	350.2	269.6	18.24	12.41	12.52	11.75	11.60	11.42	11.49	11.22	11.48	11.61	11.50	12.19	12.36	12.08	11.64	10.45	10.13	9.554	9.130	8.602	7.832	7.390	6.864	6.279	5.729	5.307	4.835	4.377	4.159	3.869	3.663	3.344	3.143	2.894	2.652	2.635	2.407	2.385	2.611	2.636	2.052	1.769	1.690	1.594	1.429	1.522	1.476	1.643	1.667	1.422	1.385	1.250	1.171	1.109	1.113	1.258	2.375	4.347	19.21	56.53
605.0	43.79	64.41	91.40	107.1	93.35	67.87	47.66	50.29	55.83	69.83	118.1	96.71	70.36	51.32	37.50	148.4	407.9	40.77	11.03	10.39	10.23	10.01	9.331	9.832	9.600	9.480	10.24	9.689	9.657	10.27	10.24	9.684	9.330	8.568	8.138	7.354	7.166	6.620	6.494	5.898	5.439	4.817	4.870	4.159	3.857	3.391	3.626	3.128	2.927	2.724	2.423	2.408	2.204	2.097	1.835	2.163	2.476	1.884	1.687	1.451	1.397	1.303	1.380	1.246	1.332	1.473	1.405	1.289	1.281	1.002	1.074	0.930	0.850	1.139	1.398	4.844	25.39
610.0	45.89	65.51	89.90	102.5	88.84	62.92	48.02	50.41	55.74	69.82	101.5	113.8	77.32	53.45	35.34	54.85	297.1	177.4	13.45	8.767	8.396	8.163	7.958	7.722	7.815	7.621	8.154	7.933	8.023	8.094	7.985	7.609	7.456	7.059	6.415	6.117	5.757	5.387	4.906	4.732	4.260	3.985	3.706	3.485	3.282	2.935	2.896	2.704	2.499	2.278	2.101	2.080	1.900	1.769	1.622	1.666	1.952	1.729	1.557	1.326	1.261	1.295	1.208	1.213	1.157	1.295	1.324	1.378	1.230	1.054	0.914	0.879	0.803	0.897	0.802	1.469	6.296
615.0	40.94	57.67	81.94	96.53	85.90	58.23	44.61	48.09	52.89	68.54	85.89	116.4	83.95	55.86	36.10	29.83	100.5	320.2	53.54	6.551	6.524	6.232	6.545	6.251	6.084	6.181	6.349	6.347	6.510	6.340	6.351	6.205	6.065	5.578	5.001	4.736	4.517	4.371	4.007	3.644	3.262	3.192	2.689	2.693	2.617	2.462	2.228	2.227	2.141	1.979	1.864	1.691	1.527	1.539	1.283	1.331	1.460	1.454	1.505	1.220	1.062	1.125	1.201	1.028	1.085	1.093	1.212	1.301	1.245	0.975	0.920	0.872	0.780	0.743	0.636	0.673	1.752
620.0	36.81	62.34	78.76	89.01	80.12	52.48	42.69	41.75	52.27	67.08	77.65	102.7	94.26	56.77	34.80	24.01	37.00	246.8	157.1	7.893	6.246	5.549	5.635	5.203	5.258	5.149	5.277	5.030	5.365	5.515	5.310	5.286	4.806	4.798	3.981	4.123	3.795	3.505	3.400	3.056	2.950	2.569	2.522	2.492	2.223	2.057	1.799	1.951	1.669	1.608	1.528	1.334	1.414	1.336	1.269	1.194	1.156	1.242	1.512	1.343	1.059	0.883	1.097	0.899	1.022	0.869	1.003	1.038	1.084	0.990	0.876	0.793	0.721	0.617	0.581	0.635	0.731
625.0	41.75	60.42	77.19	84.64	79.70	52.10	38.29	41.40	48.26	60.88	72.76	88.72	102.0	57.65	36.05	23.05	21.58	111.2	267.5	17.93	5.263	5.402	4.480	4.770	4.504	4.307	4.284	4.461	4.687	4.363	4.619	4.125	4.060	3.687	3.530	3.421	3.199	2.780	2.651	2.599	2.535	2.129	2.052	1.938	1.711	1.712	1.629	1.559	1.543	1.446	1.416	1.347	1.271	1.228	1.089	1.021	1.015	1.074	1.242	1.332	0.973	0.808	0.891	0.783	0.937	0.945	0.957	0.884	0.967	1.119	0.840	0.824	0.661	0.722	0.535	0.508	0.487
630.0	39.24	51.61	70.68	82.05	71.54	49.40	36.39	39.19	46.34	56.27	66.00	77.05	92.92	64.50	35.50	22.70	17.48	35.64	213.0	114.2	5.757	4.276	3.861	3.781	3.716	3.525	3.332	3.716	3.680	3.831	3.613	3.485	3.352	2.964	2.910	2.644	2.444	2.269	2.304	2.123	1.967	1.762	1.601	1.621	1.496	1.381	1.343	1.415	1.288	1.140	1.127	1.139	1.081	1.052	0.948	0.938	0.847	0.892	0.985	1.008	0.947	0.862	0.824	0.767	0.816	0.779	0.784	0.895	0.789	0.921	0.887	0.710	0.609	0.668	0.532	0.480	0.458
635.0	40.98	55.08	65.13	73.07	61.64	47.18	37.80	37.90	42.93	52.67	63.68	71.06	79.02	73.90	38.84	23.53	18.04	15.77	72.55	225.4	28.11	3.403	3.119	2.914	3.093	2.671	2.744	3.104	2.887	2.873	2.951	2.808	2.603	2.436	2.281	2.057	1.854	1.744	1.783	1.713	1.541	1.376	1.403	1.289	1.172	1.080	1.225	1.035	1.033	0.976	0.884	0.973	0.919	0.930	0.870	0.749	0.756	0.712	0.723	0.920	0.855	0.817	0.752	0.637	0.795	0.754	0.753	0.687	0.771	0.750	0.802	0.685	0.566	0.627	0.461	0.581	0.513
640.0	43.16	58.65	61.43	69.70	56.80	42.62	33.19	36.43	42.07	51.97	63.18	70.71	72.28	77.66	46.16	26.24	19.53	13.76	23.67	189.0	70.79	3.506	2.906	2.836	2.553	2.487	2.337	2.669	2.506	2.328	2.519	2.230	2.181	2.118	2.054	1.661	1.547	1.375	1.432	1.428	1.311	1.355	1.161	1.071	0.980	0.986	0.887	0.845	0.945	0.870	0.756	0.839	0.754	0.745	0.686	0.675	0.704	0.611	0.595	0.692	0.800	0.756	0.814	0.659	0.694	0.725	0.602	0.708	0.723	0.677	0.676	0.692	0.747	0.517	0.525	0.517	0.446
645.0	38.72	53.99	69.67	68.04	59.23	42.78	35.44	35.82	41.46	51.73	62.15	71.83	71.63	74.37	53.00	29.30	22.29	13.30	11.68	93.06	176.0	9.321	2.594	2.375	2.234	2.200	2.258	1.948	2.118	2.175	2.177	1.892	1.833	1.785	1.650	1.605	1.454	1.258	1.174	1.102	1.101	1.129	1.104	1.009	0.798	0.828	0.895	0.884	0.865	0.763	0.702	0.731	0.669	0.658	0.656	0.690	0.694	0.575	0.512	0.646	0.705	0.802	0.724	0.570	0.542	0.663	0.677	0.684	0.789	0.748	0.726	0.656	0.754	0.559	0.559	0.501	0.448
650.0	40.89	53.99	68.40	64.25	53.62	36.57	32.45	36.18	41.61	51.64	64.10	70.24	67.65	67.83	59.52	32.70	21.10	14.02	9.083	31.29	194.6	41.13	2.645	2.024	2.007	1.827	1.905	1.961	1.777	1.990	1.688	1.599	1.569	1.531	1.364	1.337	1.255	1.183	1.025	0.914	1.021	0.986	0.900	0.815	0.778	0.735	0.765	0.813	0.768	0.682	0.638	0.629	0.623	0.691	0.672	0.491	0.604	0.488	0.456	0.604	0.554	0.728	0.737	0.602	0.571	0.704	0.614	0.674	0.762	0.734	0.729	0.684	0.640	0.662	0.515	0.475	0.451
