Sample:	'1
File name:	t2025042107докндоге╠╠.FD3
Run date:	'11:12:45, 04/22/2025
Operator:	Administrator
Comment:	'

Instrument
Model:	F-2700 FL Spectrophotometer
Serial number:	23B8-004
ROM Version:	4J14000 07

Instrument parameters
Measurement type:	3-D scan
Data mode:	Fluorescence
EX  Start WL:	220.0 nm
EX  End WL:	600.0 nm
EX Sampling interval:	5.0 nm
EM  Start WL:	230.0 nm
EM  End WL:	650.0 nm
EM Sampling interval:	5.0 nm
Scan speed:	12000 nm/min
EX Slit:	5.0 nm
EM Slit:	5.0 nm
PMT Voltage:	700 V
Response:	Auto 
Corrected spectra:	Off
Contour interval:	50.000

Peak integration
Integration method:	Rectangular
Sensitivity:	1
Threshold:	1.000

Peaks
No.	ApexEX/EM(nm)	Height(Data)
1	225.0/560.0	87.88
2	225.0/580.0	82.04
3	225.0/630.0	108.4
4	230.0/340.0	3655
5	230.0/500.0	349.6
6	230.0/585.0	72.93
7	230.0/625.0	103.1
8	245.0/535.0	211.9
9	250.0/545.0	176.2
10	255.0/280.0	608.8
11	255.0/560.0	146.7
12	260.0/285.0	650.7
13	260.0/570.0	115.3
14	265.0/585.0	115.2
15	275.0/615.0	182.5
16	280.0/320.0	3337
17	280.0/620.0	180.6
18	330.0/375.0	390.3
19	335.0/380.0	374.7
20	350.0/400.0	313.5
21	430.0/505.0	36.45
22	460.0/335.0	11.08
23	520.0/285.0	4.560
24	560.0/320.0	16.41
25	570.0/315.0	16.53

Data points
	220.0	225.0	230.0	235.0	240.0	245.0	250.0	255.0	260.0	265.0	270.0	275.0	280.0	285.0	290.0	295.0	300.0	305.0	310.0	315.0	320.0	325.0	330.0	335.0	340.0	345.0	350.0	355.0	360.0	365.0	370.0	375.0	380.0	385.0	390.0	395.0	400.0	405.0	410.0	415.0	420.0	425.0	430.0	435.0	440.0	445.0	450.0	455.0	460.0	465.0	470.0	475.0	480.0	485.0	490.0	495.0	500.0	505.0	510.0	515.0	520.0	525.0	530.0	535.0	540.0	545.0	550.0	555.0	560.0	565.0	570.0	575.0	580.0	585.0	590.0	595.0	600.0
230.0	63.68	2318	9682	4706	221.1	15.45	11.23	9.368	8.798	8.741	8.526	9.043	7.632	6.886	6.292	5.582	4.975	4.703	4.332	3.876	3.550	3.407	2.993	3.173	2.812	2.628	2.404	2.121	2.240	2.112	2.029	1.940	1.920	1.805	1.599	1.522	1.286	1.218	1.209	1.078	1.002	1.167	1.158	1.022	0.909	0.887	1.988	12.15	30.18	30.24	14.44	3.677	0.921	0.705	0.626	0.601	0.608	0.550	0.470	0.467	0.455	0.413	0.399	0.375	0.377	0.335	0.333	0.334	0.306	0.309	0.263	0.256	0.301	0.227	0.244	0.247	0.206
235.0	117.8	612.0	4762	9999.9	4410	319.7	17.39	13.42	11.51	10.91	9.614	10.49	8.258	7.428	6.819	6.047	5.772	4.947	4.446	4.412	3.725	3.779	3.447	3.326	3.266	2.860	2.531	2.443	2.108	2.251	2.043	2.212	1.799	1.843	1.677	1.522	1.224	1.281	1.106	1.144	1.010	1.067	1.122	1.246	1.212	1.003	1.183	3.470	9.522	18.93	33.16	45.54	21.15	8.201	1.153	0.649	0.543	0.607	0.485	0.507	0.422	0.409	0.426	0.381	0.396	0.349	0.371	0.348	0.289	0.284	0.319	0.267	0.295	0.251	0.262	0.254	0.247
240.0	169.7	263.7	1261	7436	9999.9	3604	217.5	18.13	15.43	12.77	11.24	11.59	9.407	7.888	7.084	5.983	5.621	5.604	4.532	4.751	3.778	3.850	3.414	3.565	3.225	2.673	2.790	2.431	2.147	2.294	2.175	1.998	1.780	1.805	1.816	1.539	1.429	1.400	1.298	1.058	1.118	1.086	0.990	1.061	1.198	1.249	1.159	1.586	2.796	5.190	13.44	39.40	64.53	28.21	19.79	5.793	0.866	0.623	0.562	0.499	0.561	0.518	0.472	0.443	0.494	0.390	0.398	0.303	0.340	0.301	0.303	0.247	0.267	0.285	0.264	0.241	0.258
245.0	117.7	244.4	388.3	2184	9999.9	9999.9	2810	126.8	20.98	17.72	13.76	14.27	10.87	9.844	8.084	6.417	6.480	5.767	5.007	4.732	4.124	3.940	3.535	3.233	3.477	2.883	3.077	2.703	2.574	2.331	2.429	2.067	1.979	1.976	1.787	1.595	1.574	1.452	1.189	1.116	1.186	1.074	0.993	1.161	1.061	1.165	1.278	1.439	1.491	1.721	3.658	10.94	31.68	61.09	89.94	27.85	17.93	3.166	0.775	0.650	0.636	0.529	0.439	0.500	0.552	0.439	0.439	0.385	0.339	0.308	0.294	0.248	0.250	0.305	0.235	0.250	0.247
250.0	73.33	156.8	305.5	629.2	2926	9999.9	9999.9	9238	177.9	28.62	20.57	18.10	13.45	12.03	9.705	7.690	7.325	6.529	5.526	5.046	4.667	3.993	3.901	3.686	3.585	3.118	2.963	2.731	2.814	2.795	2.401	2.084	1.947	1.957	1.805	1.727	1.619	1.523	1.423	1.188	1.203	1.109	1.124	1.169	1.084	1.133	1.170	1.368	1.534	1.546	1.697	3.166	7.854	16.95	39.48	58.41	98.15	85.54	69.63	12.77	3.528	0.644	0.576	0.526	0.552	0.504	0.509	0.472	0.412	0.389	0.321	0.295	0.292	0.357	0.296	0.278	0.284
255.0	67.67	77.83	176.9	401.5	800.4	2376	8305	9999.9	9999.9	232.2	35.35	27.31	19.57	14.19	11.37	9.259	8.920	7.196	6.301	5.536	5.289	4.467	4.530	3.803	3.746	3.789	3.117	3.142	3.091	2.949	2.395	2.276	2.234	1.935	1.860	1.938	1.593	1.591	1.604	1.260	1.336	1.270	1.215	1.203	1.067	1.049	0.958	1.113	1.164	1.397	1.706	2.240	2.836	4.465	9.470	13.91	27.63	59.86	141.8	181.8	118.7	19.15	2.839	0.830	0.730	0.606	0.499	0.467	0.512	0.487	0.419	0.418	0.418	0.438	0.337	0.353	0.360
260.0	66.64	65.66	86.05	260.8	473.0	642.1	2258	9999.9	9999.9	9999.9	176.0	40.79	27.37	18.87	14.95	10.73	10.10	9.165	6.871	6.181	5.842	5.041	4.788	4.542	3.471	3.608	3.593	3.266	3.162	3.194	2.694	2.702	2.189	2.191	1.816	1.770	1.627	1.671	1.436	1.615	1.347	1.357	1.311	1.158	1.144	1.167	1.155	1.079	1.014	1.003	1.173	1.949	2.554	2.425	3.096	3.914	7.101	15.05	46.20	120.2	212.1	208.9	29.69	13.62	1.408	0.968	0.639	0.615	0.505	0.533	0.422	0.505	0.436	0.464	0.376	0.406	0.389
265.0	77.99	74.43	63.59	123.1	373.2	413.7	594.2	3222	9999.9	9999.9	8348	130.8	37.75	26.30	18.90	14.74	11.43	9.658	7.540	7.385	6.581	5.196	5.086	4.499	3.956	4.106	3.728	3.222	3.598	3.254	3.034	3.064	2.381	2.498	1.931	1.781	1.912	1.698	1.650	1.645	1.556	1.399	1.449	1.391	1.286	1.361	1.164	1.130	0.998	0.953	0.907	1.298	1.889	2.629	2.585	1.955	2.513	4.291	11.10	30.60	83.33	190.2	266.5	196.6	25.27	7.759	0.879	0.885	0.792	0.622	0.624	0.571	0.495	0.637	0.549	0.513	0.427
270.0	113.7	99.29	85.03	80.15	174.2	381.9	430.7	832.6	3585	9999.9	9999.9	9999.9	550.5	47.11	29.62	21.92	16.78	12.82	9.666	8.976	7.676	6.567	5.856	5.212	4.689	4.453	4.040	3.666	3.756	3.463	3.300	3.194	2.750	2.619	2.273	2.053	2.061	1.793	1.732	1.688	1.690	1.593	1.519	1.549	1.400	1.647	1.211	1.275	1.071	0.969	0.974	1.018	1.144	1.578	2.218	2.603	2.873	2.505	3.401	7.803	19.78	48.24	100.3	175.0	204.7	252.4	128.2	16.35	6.627	1.223	0.920	0.720	0.639	0.681	0.579	0.515	0.576
275.0	196.0	196.4	154.7	108.3	102.3	171.4	459.5	513.2	913.6	2478	9999.9	9999.9	9999.9	150.2	50.65	33.05	23.41	18.11	13.00	10.92	9.088	7.675	7.095	6.195	5.618	5.657	4.471	4.248	3.895	3.918	3.782	3.437	3.337	3.038	2.748	2.408	2.339	2.029	1.840	1.853	1.639	1.777	1.651	1.685	1.669	1.857	1.532	1.483	1.277	1.124	1.082	1.189	1.098	1.215	1.352	1.554	2.511	3.699	3.442	3.340	5.547	11.77	23.37	40.42	52.42	116.8	275.5	407.3	219.9	25.40	5.572	1.356	1.066	0.876	0.674	0.802	0.724
280.0	272.0	297.9	237.6	150.8	104.0	114.2	264.7	608.8	456.4	697.3	2795	9999.9	9999.9	8158	119.0	48.06	32.18	23.34	16.37	13.43	10.65	8.867	7.613	6.911	7.035	5.813	5.153	4.888	4.214	4.427	3.979	3.800	3.535	3.361	3.268	2.758	2.458	2.189	2.269	1.963	1.922	1.949	1.972	2.045	1.828	1.871	1.754	1.791	1.620	1.427	1.165	1.292	1.129	1.162	1.206	1.407	1.698	2.307	3.635	4.193	3.545	3.960	6.512	10.32	13.07	28.08	78.21	205.1	398.4	441.2	33.81	19.78	2.475	1.223	1.060	0.996	0.903
285.0	380.7	426.6	342.3	212.6	126.7	110.9	153.6	434.8	650.7	377.4	832.2	3546	9999.9	9999.9	5725	91.54	44.62	30.19	20.51	15.58	12.65	10.40	8.820	8.151	7.152	6.530	5.722	4.803	4.873	4.645	4.022	4.028	3.851	3.459	3.185	3.143	2.995	2.568	2.552	2.172	2.161	2.013	2.149	2.074	2.011	2.188	2.138	2.134	2.061	1.843	1.377	1.499	1.507	1.269	1.307	1.196	1.532	1.530	2.126	3.602	4.560	3.847	3.330	3.731	4.404	7.766	19.24	49.41	127.2	299.0	438.3	256.0	30.51	13.32	1.784	1.305	1.023
290.0	511.9	611.0	513.7	317.7	181.4	147.7	160.1	259.8	564.4	730.3	589.0	1123	3815	9999.9	9999.9	9999.9	329.2	49.90	32.11	21.64	17.57	13.87	11.04	9.329	8.312	7.221	6.625	5.775	5.472	5.487	4.419	4.288	4.105	3.803	3.798	3.442	3.337	3.229	2.785	2.440	2.226	2.358	2.310	2.343	2.416	2.599	2.560	2.671	2.683	2.189	1.835	1.873	1.698	1.529	1.530	1.459	1.616	1.630	1.681	2.225	2.921	4.155	4.492	4.461	3.587	3.743	6.398	13.09	30.57	71.70	138.2	220.7	323.2	326.7	264.7	101.2	10.43
295.0	655.4	807.8	734.8	472.2	274.4	225.2	239.3	307.8	448.9	791.9	1089	849.2	1339	2711	9999.9	9999.9	9999.9	93.76	52.05	33.86	24.13	17.55	13.98	11.11	10.83	8.953	7.573	7.003	6.240	6.267	5.203	4.652	4.816	4.150	4.137	4.023	3.722	3.297	3.053	2.781	2.539	2.724	2.482	2.613	2.615	3.270	3.211	3.479	2.980	2.677	2.287	2.192	2.172	1.845	1.850	1.779	1.971	2.037	2.271	2.263	2.753	3.118	3.702	5.103	6.500	5.576	4.975	5.927	9.707	18.76	33.56	51.81	77.15	117.9	297.9	529.2	275.2
300.0	861.4	1055	978.3	648.9	419.7	384.9	415.9	546.5	722.4	1008	1572	1494	1270	1347	3155	9999.9	9999.9	5064	83.84	47.75	32.00	23.73	18.23	14.23	12.36	10.14	8.549	7.835	7.071	7.010	5.714	5.489	4.898	4.508	4.618	4.280	4.262	3.479	3.664	3.121	2.764	3.052	2.920	2.990	3.479	3.709	3.648	4.070	3.660	3.267	2.765	2.835	2.681	2.416	2.372	2.343	2.727	3.010	3.385	3.322	3.752	4.357	4.811	5.562	6.989	9.039	8.720	7.233	7.688	9.398	12.18	15.82	21.07	30.32	78.24	211.9	421.5
305.0	1154	1422	1307	884.3	633.8	578.0	746.0	970.7	1274	1673	2087	2729	2214	1673	1644	4115	9999.9	9999.9	3814	72.20	43.23	29.90	21.99	17.37	14.15	11.85	9.894	8.362	8.100	7.512	6.415	5.974	5.313	4.928	5.106	4.277	4.459	4.186	4.102	3.650	3.407	3.568	3.288	3.688	3.731	4.120	4.117	5.069	4.680	3.974	3.208	3.450	3.208	3.166	3.396	3.465	3.986	4.254	5.094	5.255	5.805	6.654	7.892	8.812	9.626	11.65	13.08	13.10	12.41	10.55	10.88	10.48	11.47	13.58	22.99	53.22	122.1
310.0	1401	1771	1672	1191	859.2	820.8	1014	1299	1618	2080	2541	3060	3088	2307	1817	1928	4740	9999.9	9999.9	9999.9	228.0	45.83	30.46	22.95	17.93	14.40	12.36	9.887	9.205	8.759	7.038	6.154	5.847	5.387	5.082	4.889	4.654	4.405	4.315	4.134	3.903	4.019	3.805	4.077	4.338	5.217	5.176	6.055	5.673	4.909	4.271	4.347	4.184	4.043	4.258	4.391	5.087	5.494	6.219	6.832	7.350	8.348	9.617	10.91	11.39	12.41	13.51	14.25	15.54	14.90	14.07	11.73	11.41	11.16	12.33	18.09	32.99
315.0	1626	2095	2096	1502	1061	1013	1222	1498	1801	2276	2789	3215	3273	2959	2191	1584	2012	2985	9999.9	9999.9	9999.9	253.5	48.67	32.92	23.98	17.56	14.28	12.21	10.96	9.731	8.414	7.285	6.404	5.847	5.291	5.520	5.099	4.738	4.651	4.491	4.118	4.072	4.039	4.559	5.081	5.733	5.981	7.228	6.863	5.952	5.186	5.160	4.935	4.717	4.869	5.167	6.020	6.409	7.358	7.701	8.124	9.262	10.19	11.49	12.19	13.32	14.46	15.11	15.66	15.47	16.53	15.41	13.78	11.89	11.07	10.93	13.66
320.0	1875	2419	2456	1687	1173	1094	1307	1596	1865	2365	2904	3291	3337	3060	2565	1615	1453	1300	2970	9999.9	9999.9	3809	68.25	43.91	31.35	21.09	16.81	14.05	12.44	10.67	9.041	7.968	6.939	6.326	6.261	5.955	5.324	5.226	4.772	4.669	4.661	4.503	4.335	5.059	5.630	6.334	6.973	8.032	7.993	6.802	5.665	5.686	5.427	5.055	5.470	5.274	6.351	7.020	7.893	7.938	8.621	9.309	10.81	11.96	12.71	14.15	15.16	15.46	16.41	16.04	15.89	15.65	15.28	14.25	11.63	9.982	9.323
325.0	1957	2769	2860	1945	1266	1123	1317	1584	1832	2278	2805	3219	3258	2911	2621	1747	1287	900.2	899.8	4008	9999.9	9999.9	2915	61.74	40.59	28.03	20.90	16.92	13.34	11.59	10.31	9.059	7.586	6.565	6.283	5.799	5.686	5.316	4.851	4.634	4.538	4.789	4.611	5.281	5.931	6.665	7.742	8.973	8.767	7.598	6.476	6.640	5.916	5.088	5.547	5.256	6.362	6.780	7.770	7.839	8.586	8.988	10.34	12.18	12.99	13.87	14.57	15.04	15.85	15.81	15.08	14.56	14.54	14.71	12.85	10.26	8.892
330.0	2049	3013	3263	2459	1608	1231	1276	1506	1701	2092	2596	2981	3053	2724	2357	1799	1318	790.2	464.4	1074	4698	9999.9	9999.9	9999.9	180.1	41.63	29.15	21.46	17.01	14.06	12.03	9.866	8.695	7.317	6.773	6.288	5.782	5.330	5.380	5.011	4.763	4.952	4.952	5.413	5.946	7.374	8.120	9.606	9.910	8.941	7.622	8.262	7.096	6.108	5.912	5.583	6.180	6.635	7.265	7.879	8.123	8.859	9.748	11.03	11.82	12.77	13.51	14.09	14.83	14.73	14.54	13.74	13.30	12.97	11.82	10.89	10.07
335.0	2158	3258	3614	2948	2068	1422	1258	1416	1609	1933	2396	2747	2840	2579	2188	1624	1403	892.2	425.6	453.9	1216	2607	9999.9	9999.9	9999.9	210.4	41.95	30.10	22.48	18.01	14.37	11.93	9.771	8.647	7.642	6.374	6.312	5.730	5.560	5.178	4.879	4.945	5.378	5.518	6.214	7.675	8.471	10.31	11.08	10.42	8.604	9.660	8.930	7.615	6.783	5.772	6.550	6.847	6.920	7.933	7.710	8.401	9.305	10.13	11.05	11.87	12.76	13.15	14.59	13.86	13.68	13.19	12.75	11.97	10.90	10.13	9.237
340.0	2092	3132	3655	3064	2149	1448	1190	1313	1483	1774	2179	2491	2600	2366	2024	1482	1245	970.2	467.4	327.9	447.5	731.9	3136	9999.9	9999.9	3209	58.42	37.84	28.37	21.89	16.75	13.14	11.06	9.530	8.303	7.024	6.291	6.120	5.311	5.241	5.132	4.881	5.451	5.757	6.378	7.421	8.703	10.31	11.03	10.33	9.218	10.06	9.148	8.039	6.791	5.907	6.334	6.436	6.760	7.190	7.405	7.832	8.753	9.375	10.10	10.68	11.60	11.80	12.90	12.88	12.43	12.12	11.66	11.15	9.877	8.869	8.143
345.0	1928	2936	3472	2944	2086	1393	1119	1211	1340	1590	1956	2233	2329	2140	1839	1342	1058	890.1	569.6	323.0	281.3	314.3	838.1	4646	9999.9	9999.9	2497	52.91	34.91	27.34	19.99	15.14	11.82	9.744	8.720	7.534	6.408	6.043	5.412	5.259	5.223	4.940	5.179	5.615	6.044	7.075	8.152	9.845	10.23	10.05	8.879	9.427	9.219	7.779	6.907	5.634	5.858	6.227	6.227	6.526	6.700	7.190	7.535	8.166	8.728	9.460	10.31	10.80	11.87	11.44	11.60	11.06	10.58	10.78	8.862	8.089	7.749
350.0	1757	2586	3121	2796	2047	1384	1060	1118	1205	1381	1687	1923	2009	1866	1616	1208	943.3	742.0	595.5	439.6	279.8	237.0	326.2	1162	5368	9999.9	9999.9	9999.9	158.7	37.78	25.62	19.03	14.04	11.26	9.142	7.971	6.954	6.300	5.844	5.358	5.047	4.736	4.950	5.228	5.699	6.494	7.481	8.958	9.577	9.124	8.328	9.319	8.815	7.664	6.667	5.432	5.470	5.374	5.624	5.995	6.021	6.297	6.900	7.201	7.761	8.292	8.846	9.483	9.817	10.06	10.23	10.05	9.494	9.168	8.213	7.466	6.799
355.0	1508	2255	2707	2500	1921	1334	1015	1030	1096	1222	1449	1631	1702	1610	1414	1081	856.5	660.0	516.8	506.0	380.6	246.7	227.5	379.7	1289	2590	9999.9	9999.9	9999.9	57.32	37.22	25.33	17.84	13.35	10.77	9.012	7.723	6.754	6.390	5.376	5.219	4.776	4.837	5.322	5.351	6.068	6.786	8.232	8.294	8.123	7.721	8.586	8.245	7.202	6.521	5.187	5.240	5.352	5.250	5.673	5.464	5.879	6.415	6.556	6.726	7.386	7.903	8.356	8.334	8.587	8.892	8.683	8.203	8.048	7.299	6.790	6.371
360.0	1326	1970	2430	2235	1757	1250	958.6	956.7	1021	1107	1290	1427	1493	1420	1259	982.7	788.9	627.6	487.6	456.3	451.5	304.7	220.1	214.1	386.6	665.9	3184	9999.9	9999.9	2993	53.56	33.10	22.93	16.32	13.07	10.20	8.630	7.501	6.772	5.503	5.387	5.172	5.272	4.908	5.184	5.574	6.123	7.413	7.620	7.385	7.153	7.964	7.727	6.870	6.260	5.006	5.368	5.075	5.396	5.494	5.200	5.271	5.938	6.042	6.160	6.740	7.182	7.393	7.289	7.588	8.185	7.794	7.370	7.367	6.848	6.004	5.931
365.0	1199	1774	2148	1998	1628	1194	920.2	896.3	956.0	1032	1185	1284	1346	1267	1138	908.1	749.1	610.2	481.5	423.6	436.9	393.5	249.5	190.6	197.3	238.6	798.9	4828	9999.9	9999.9	2355	48.08	28.57	20.36	15.31	11.54	9.346	8.290	7.211	6.194	5.324	5.119	4.952	5.221	4.957	5.669	5.989	7.075	7.219	6.815	6.817	7.608	7.030	6.661	6.040	5.027	5.208	4.930	5.009	5.002	5.122	5.419	5.707	5.727	5.914	5.962	6.312	6.324	6.471	6.777	7.023	6.877	6.949	6.900	6.057	5.905	5.142
370.0	1040	1526	1839	1741	1495	1128	882.2	846.4	884.6	961.2	1056	1138	1177	1117	1009	837.1	709.2	595.8	493.5	426.8	396.8	411.5	351.7	228.8	175.0	156.8	264.7	1168	5531	9999.9	9999.9	9946	143.2	30.02	20.01	15.00	11.40	9.499	7.775	6.785	6.042	5.518	5.116	5.052	5.291	5.435	5.485	6.449	6.643	6.240	6.142	6.763	6.634	6.290	5.721	4.891	4.898	4.814	4.847	4.889	4.956	5.097	5.071	5.245	5.361	5.537	5.768	6.076	5.992	5.967	6.436	6.050	6.061	6.004	5.316	5.460	5.212
375.0	935.7	1334	1557	1530	1341	1066	860.3	812.0	843.1	895.9	957.5	1011	1034	980.8	899.1	768.5	665.3	590.5	499.7	442.0	395.4	370.3	390.3	321.0	205.2	158.0	160.3	344.6	1309	2661	9999.9	9999.9	9999.9	170.3	29.14	19.42	14.80	11.42	8.899	7.614	6.626	5.774	5.281	5.213	5.132	5.549	5.098	6.024	5.887	5.410	5.295	6.457	6.346	5.948	5.278	4.628	4.543	4.544	4.532	4.776	4.762	4.930	4.917	4.898	4.720	5.260	5.236	5.319	5.583	5.329	5.265	5.402	5.316	5.677	4.773	4.871	4.997
380.0	829.8	1195	1378	1381	1232	1017	817.7	792.9	804.1	844.7	902.1	931.7	947.3	897.8	826.1	721.1	639.3	571.8	506.3	454.8	406.6	367.1	361.5	374.7	260.8	177.6	149.3	170.9	371.3	672.3	3362	9999.9	9999.9	2536	43.52	25.83	17.60	13.46	10.20	8.368	7.193	6.086	5.761	5.200	5.095	5.162	5.149	5.832	5.450	5.008	5.033	5.963	6.185	5.650	5.183	4.677	4.535	4.513	4.557	4.583	4.692	4.647	4.665	4.655	4.611	4.716	4.754	4.924	4.961	5.074	5.068	5.003	4.797	5.103	4.635	4.861	4.667
385.0	767.9	1087	1228	1267	1161	955.7	804.7	770.3	779.4	797.0	838.8	872.7	873.7	841.4	769.5	684.7	611.9	560.8	507.8	460.5	417.2	377.9	347.7	361.9	328.0	215.2	163.0	142.3	169.8	225.3	828.6	4815	9999.9	9999.9	1961	37.42	22.69	16.78	12.08	10.01	8.058	6.764	5.802	5.995	5.403	5.329	5.069	5.325	5.334	5.061	4.849	5.721	6.014	5.338	4.933	4.579	4.750	4.367	4.529	4.304	4.425	4.349	4.513	4.550	4.462	4.886	4.526	4.834	4.835	4.787	4.955	4.804	4.643	4.640	4.424	4.805	4.365
390.0	751.1	979.6	1127	1147	1078	919.0	790.7	762.2	748.2	759.3	793.0	813.2	809.2	773.8	717.0	646.6	589.4	546.5	503.2	464.8	429.1	392.9	358.8	334.1	333.2	294.8	206.4	157.4	141.0	135.5	257.5	1149	4853	9999.9	9999.9	8229	127.0	23.75	16.52	12.46	9.406	7.871	6.657	6.190	5.648	5.523	5.038	5.321	5.102	4.792	4.672	5.326	5.516	5.218	4.947	4.377	4.504	4.580	4.521	4.294	4.414	4.390	4.417	4.515	4.376	4.514	4.367	4.377	4.485	4.336	4.425	4.514	4.567	4.520	4.631	4.225	4.195
395.0	690.4	886.4	1051	1036	984.4	896.2	788.8	746.4	737.8	733.0	751.8	754.9	745.9	718.7	667.7	608.1	566.3	530.5	496.7	467.5	433.3	399.6	376.8	337.1	313.3	313.0	282.0	194.3	153.7	131.6	140.1	323.3	1138	2526	9999.9	9999.9	9999.9	40.40	23.52	16.66	11.92	9.750	7.570	7.113	6.073	6.044	5.219	5.458	5.056	4.821	4.534	5.023	5.206	5.002	4.861	4.565	4.377	4.528	4.681	4.306	4.305	4.292	4.221	4.338	4.187	4.009	4.156	3.917	4.192	4.286	4.143	4.462	4.206	4.380	4.343	4.200	4.412
400.0	635.0	844.2	914.8	989.5	935.7	844.8	761.9	734.4	719.8	705.8	720.7	718.5	715.3	674.6	638.1	583.0	545.0	516.7	489.0	465.3	431.9	404.1	380.4	347.1	316.1	299.0	313.5	244.5	173.7	143.0	121.6	145.3	311.3	617.4	2933	9999.9	9999.9	2233	37.07	21.41	14.76	10.99	8.802	7.748	6.837	6.270	5.146	5.547	4.923	4.912	4.315	4.800	4.930	4.773	4.660	4.385	4.609	4.369	4.353	4.172	4.133	4.228	4.006	4.098	4.249	4.008	3.864	3.919	4.082	4.037	4.074	4.143	4.030	4.058	4.068	3.849	3.917
405.0	639.2	772.6	875.7	948.2	906.7	820.2	752.8	732.9	698.5	695.9	701.7	698.6	683.2	643.6	607.7	558.5	528.1	500.8	478.2	454.2	430.6	406.4	380.5	355.3	322.3	294.2	300.1	290.7	207.6	159.4	129.3	112.5	132.4	188.0	706.0	3713	9999.9	9999.9	1905	34.32	17.98	13.72	10.11	8.496	6.903	6.592	5.291	5.470	5.082	4.562	4.265	4.656	5.048	4.463	4.812	4.400	4.523	4.523	4.306	4.493	4.285	3.957	4.197	3.960	3.986	3.820	3.646	3.821	3.810	3.878	3.766	4.072	3.879	4.104	3.738	3.875	3.820
410.0	595.7	722.5	832.5	881.4	853.6	789.5	737.1	718.8	684.7	679.5	677.9	667.0	645.7	611.0	575.8	530.3	503.7	483.0	461.5	443.4	422.2	403.0	382.7	358.3	329.5	301.2	284.7	286.1	262.4	195.2	145.3	115.4	98.64	96.33	203.9	874.1	3730	9999.9	9999.9	8034	126.3	18.81	13.38	10.65	7.972	7.303	5.999	6.053	5.448	4.704	4.420	4.772	4.727	4.638	4.723	4.299	4.456	4.493	4.251	4.160	4.129	3.904	3.906	3.841	3.859	3.951	3.629	3.596	3.730	3.709	3.664	3.846	3.661	3.812	3.726	3.816	3.772
415.0	574.5	706.1	766.9	815.3	818.9	759.1	711.7	701.2	669.7	652.0	647.5	639.1	610.1	578.5	542.8	504.8	473.7	456.1	437.5	427.1	405.5	392.1	375.5	356.7	332.1	308.4	284.6	266.5	266.3	247.0	171.8	129.0	98.66	82.40	94.59	235.2	867.2	2383	9999.9	9999.9	9999.9	36.92	19.38	13.94	10.30	7.981	6.682	6.259	5.609	4.975	4.537	4.764	4.678	4.621	4.426	3.948	4.248	4.308	4.133	4.147	3.953	3.984	3.833	3.967	3.947	3.743	3.617	3.686	3.602	3.685	3.538	3.664	3.563	3.497	3.630	3.442	3.478
420.0	539.8	663.8	739.9	774.0	781.3	748.9	702.7	693.7	661.2	643.8	630.6	612.7	590.9	558.2	516.5	478.1	452.2	439.2	419.6	407.1	391.8	379.4	369.8	354.8	332.1	310.2	285.5	263.6	251.9	259.1	207.5	140.6	105.6	84.49	72.66	94.02	229.4	566.6	2561	9999.9	9999.9	2099	34.98	18.31	12.41	9.555	7.621	7.103	5.865	5.042	4.668	4.820	4.842	4.676	4.560	3.998	4.510	4.399	4.148	4.333	4.142	3.939	3.851	3.891	3.581	3.788	3.530	3.488	3.519	3.578	3.438	3.352	3.547	3.619	3.316	3.289	3.443
425.0	524.2	635.0	725.7	754.0	756.1	716.5	691.8	681.8	648.7	631.0	619.2	595.1	576.1	539.5	498.5	456.8	433.7	420.0	406.2	391.4	378.2	366.8	360.4	342.7	327.3	309.8	291.1	264.5	246.4	243.2	230.9	163.1	115.4	89.37	71.65	65.76	87.80	159.2	605.2	2950	9999.9	9999.9	1932	31.19	15.66	11.80	8.607	8.060	6.052	5.315	4.855	4.935	5.030	4.723	4.623	4.112	4.381	4.258	4.259	4.144	4.026	4.080	3.704	4.005	3.592	3.606	3.470	3.368	3.482	3.361	3.441	3.292	3.484	3.423	3.403	3.168	3.517
430.0	758.7	612.1	683.4	711.5	715.3	691.8	672.6	659.2	642.0	621.7	603.6	581.8	553.7	511.0	475.2	435.9	414.0	395.9	386.7	372.4	358.7	352.6	345.8	335.9	322.4	305.5	289.0	265.9	247.2	230.5	220.2	194.3	139.8	101.0	78.56	64.63	60.35	68.28	165.0	688.5	2966	9999.9	9999.9	8561	131.5	18.44	11.26	9.370	7.235	5.988	4.954	5.261	5.138	4.953	4.638	4.523	4.476	4.461	4.350	4.078	4.175	4.082	3.700	3.871	3.663	3.568	3.567	3.239	3.314	3.131	3.281	3.296	3.432	3.339	3.138	3.112	3.302
435.0	1645	681.4	655.4	675.2	691.4	664.3	658.1	642.7	632.6	614.5	596.1	569.1	534.2	491.6	452.5	410.9	388.9	376.4	364.5	353.4	342.0	336.3	331.1	324.3	313.2	297.8	284.6	266.4	248.5	229.5	208.8	192.0	171.4	120.3	87.12	70.45	57.95	51.74	67.50	180.7	686.2	2289	7229	9999.9	9999.9	202.5	18.45	13.01	8.964	6.971	5.589	5.743	5.503	5.081	4.959	4.709	4.829	4.648	4.171	4.093	4.165	4.409	3.682	3.940	3.729	3.555	3.633	3.344	3.246	3.072	2.986	3.154	3.208	3.208	3.010	2.865	3.132
440.0	2619	1049	630.5	655.6	669.7	641.7	648.2	640.0	629.3	602.2	581.9	550.1	514.9	471.1	432.4	393.9	371.5	361.5	346.8	337.3	327.9	317.3	317.1	314.1	302.7	293.2	277.0	266.2	248.9	230.7	204.8	182.6	176.2	143.6	96.34	76.26	61.44	51.73	47.70	68.17	178.5	535.8	1750	9999.9	9999.9	9999.9	31.46	17.70	11.08	8.161	6.296	6.246	5.825	5.120	5.027	4.690	4.880	4.734	4.398	4.482	3.968	4.187	3.780	3.713	3.802	3.631	3.570	3.271	3.235	3.114	2.818	3.111	2.981	3.115	2.801	2.925	3.211
445.0	2679	1885	649.0	626.8	634.6	625.7	625.2	627.1	610.3	592.8	570.5	538.8	492.3	449.1	412.4	378.4	355.3	343.5	334.1	319.9	313.3	305.3	303.6	302.0	291.8	282.8	271.3	261.0	246.6	229.6	203.7	179.1	164.2	154.8	114.7	82.28	66.24	54.82	45.33	44.30	65.58	142.8	416.1	2566	9999.9	9999.9	1744	30.56	14.35	9.758	7.204	7.073	6.288	5.467	5.223	4.841	4.936	4.923	4.889	4.574	3.958	4.024	3.717	3.706	3.705	3.445	3.372	3.334	3.116	3.139	3.003	3.087	3.093	3.001	3.009	2.777	3.036
450.0	1553	4074	1542	605.6	606.5	599.8	604.3	602.1	586.8	569.4	546.7	508.9	470.9	427.2	389.7	352.2	330.2	319.8	306.1	295.8	291.7	286.6	285.5	281.9	276.1	266.5	259.0	248.7	238.1	223.8	202.9	175.9	153.0	144.4	129.5	97.24	72.15	57.85	47.54	41.63	41.01	55.64	115.1	596.6	2607	9559	9999.9	7939	116.6	15.84	9.580	8.522	7.205	6.101	5.519	5.298	5.117	5.005	4.779	4.450	4.098	3.932	3.767	3.772	3.665	3.353	3.548	3.264	3.117	3.219	3.029	2.794	2.880	2.960	2.904	2.910	2.724
455.0	664.0	3871	4464	749.5	566.2	555.6	562.8	564.3	549.3	552.2	516.7	484.5	437.1	400.3	358.1	328.2	306.0	291.7	278.1	271.9	263.5	261.0	260.3	258.3	253.5	247.0	242.6	234.2	224.8	212.8	196.3	170.7	147.3	130.5	121.0	111.6	82.78	62.00	51.29	43.56	37.15	36.94	46.95	153.3	600.3	2168	5106	9999.9	9999.9	172.3	16.13	11.09	8.643	6.891	6.292	5.552	5.309	4.959	4.552	4.381	4.297	4.162	4.110	3.727	3.685	3.462	3.433	2.857	2.993	2.872	2.901	2.776	2.853	2.574	2.613	2.629	2.784
460.0	415.2	2179	6593	1819	526.5	523.9	528.1	535.9	520.7	517.0	489.4	460.2	414.4	377.2	334.4	301.7	283.2	270.7	262.9	254.2	244.5	243.9	238.0	240.1	234.6	233.2	226.0	219.9	215.2	203.5	188.5	165.0	143.9	125.4	110.5	110.1	93.52	67.18	53.06	43.47	36.21	32.56	32.25	54.37	152.8	502.9	1200	7239	9999.9	9999.9	136.6	15.39	10.50	8.086	6.868	5.749	5.549	5.304	4.780	4.560	4.358	4.238	3.996	3.784	3.383	3.293	3.182	2.952	3.018	2.612	2.897	2.742	2.774	2.557	2.565	2.651	2.569
465.0	362.9	981.9	6406	4435	577.8	494.4	503.1	504.8	499.4	487.1	466.3	432.3	396.0	350.7	315.1	282.8	264.4	252.0	243.8	232.6	229.4	226.6	223.7	222.0	220.9	214.3	211.9	206.9	203.1	193.3	180.2	161.4	140.2	119.9	105.1	100.3	97.43	74.72	54.64	45.50	37.57	32.74	28.99	32.23	52.07	130.3	287.7	1756	9721	9999.9	7892	28.05	14.48	9.895	8.180	6.643	6.454	5.493	5.142	4.593	4.577	3.936	3.946	3.786	3.599	3.475	3.420	3.109	2.891	2.637	2.795	2.675	2.627	2.616	2.370	2.467	2.475
470.0	347.7	506.1	3254	7672	2060	467.4	464.2	463.9	459.8	450.7	424.5	400.1	368.4	325.0	287.5	257.8	237.8	227.7	218.9	210.0	206.3	201.7	201.9	198.5	197.1	195.1	191.9	188.1	185.3	177.7	166.5	150.2	131.5	114.7	99.48	88.85	84.63	79.61	61.85	46.56	38.23	32.58	28.39	26.68	29.54	45.47	80.54	409.8	2358	7107	9999.9	7211	659.3	16.44	9.862	7.635	7.135	5.749	5.296	4.626	4.401	4.033	3.783	3.715	3.470	3.271	3.190	3.077	2.770	2.674	2.474	2.445	2.408	2.421	2.254	2.302	2.281
475.0	356.6	385.5	1072	6505	5358	586.2	413.5	424.7	416.1	412.2	393.3	366.8	329.5	298.4	261.2	233.1	216.6	202.9	193.1	189.2	184.1	179.2	177.9	177.9	177.0	174.7	172.0	168.4	165.7	162.0	151.9	139.6	122.8	107.2	93.47	81.89	73.91	71.27	67.18	50.69	38.85	32.13	28.08	24.57	23.31	25.13	31.97	105.0	538.0	1603	3575	9999.9	9999.9	202.8	16.11	9.162	7.635	5.981	5.314	4.615	4.381	4.132	3.595	3.524	3.330	2.898	2.949	2.718	2.639	2.489	2.221	2.273	2.357	2.229	2.077	2.113	2.072
480.0	330.9	378.9	509.5	3404	9148	1960	388.5	386.6	397.5	383.7	369.9	349.6	306.4	274.1	243.8	217.6	201.7	190.5	180.1	175.8	171.5	166.7	163.7	162.7	162.0	160.7	158.8	155.9	153.3	149.8	140.9	130.5	115.4	102.4	89.61	79.63	68.98	64.26	65.60	57.00	40.89	32.48	27.91	24.54	21.84	20.77	20.78	36.36	132.0	369.4	826.4	4485	9999.9	9999.9	171.1	13.06	9.339	7.087	5.831	5.291	4.227	4.192	3.698	3.422	3.335	3.070	2.869	2.549	2.505	2.520	2.458	2.206	2.085	2.227	2.172	2.064	2.115
485.0	275.1	372.4	376.6	1301	8780	4296	449.0	373.7	377.1	364.4	353.2	325.5	292.7	259.7	229.3	200.7	188.7	176.5	170.0	162.5	157.5	154.0	151.0	152.0	150.6	150.4	149.3	146.6	144.5	142.2	134.3	123.4	109.6	98.77	86.26	77.32	68.22	59.37	58.57	58.03	44.70	34.55	28.72	24.33	22.02	19.54	18.11	20.82	40.98	93.70	196.6	1061	7021	9999.9	7655	27.99	11.80	8.319	6.219	5.668	4.795	4.174	3.776	3.363	3.225	3.088	3.003	2.520	2.617	2.548	2.115	2.323	2.100	2.112	2.007	1.943	2.099
490.0	238.1	352.2	345.1	547.3	4335	9069	1936	353.3	345.9	336.4	330.8	300.7	268.0	242.0	213.0	186.8	173.3	162.7	155.3	149.0	143.7	138.8	136.7	139.6	137.3	136.1	136.6	134.3	132.9	130.9	124.6	114.4	103.1	92.35	81.88	73.26	64.65	56.71	51.50	50.95	48.61	38.47	29.54	25.10	22.32	20.01	17.83	16.99	19.96	31.12	53.48	247.9	1665	5861	9999.9	7599	747.1	16.09	8.432	6.551	5.514	4.608	3.967	3.686	3.501	3.135	2.929	2.661	2.598	2.509	2.265	2.203	2.075	1.925	2.034	1.832	1.802
495.0	208.6	295.3	344.6	343.4	1277	7747	6998	424.8	318.1	305.2	294.0	276.2	249.6	218.5	195.6	167.5	155.1	146.9	137.4	131.8	128.9	123.6	123.7	123.3	123.2	122.6	121.6	120.8	122.6	119.5	113.6	103.5	95.73	84.98	75.82	68.09	61.07	53.87	46.84	43.54	43.91	42.35	32.77	25.31	22.47	20.46	17.39	16.30	15.38	16.42	20.96	64.36	380.3	1319	3465	9999.9	9999.9	228.3	16.37	8.218	6.161	5.144	4.633	3.935	3.318	3.119	2.837	2.602	2.439	2.388	2.272	2.054	2.223	1.871	1.854	1.628	1.760
500.0	173.9	262.1	349.6	301.1	496.8	3989	9999.9	1703	298.7	287.7	277.4	252.5	231.2	202.6	178.6	156.2	141.8	135.2	126.5	121.2	118.4	113.1	112.7	112.6	111.7	112.0	109.6	109.8	109.9	110.7	104.7	97.16	89.14	79.66	70.72	64.72	57.52	50.81	45.01	41.07	38.00	40.57	35.78	26.72	21.91	19.44	18.00	15.92	13.85	13.06	12.91	22.73	92.87	303.4	796.3	4266	9999.9	9999.9	189.4	11.64	7.263	5.634	4.698	3.963	3.356	3.253	2.982	2.453	2.409	2.316	2.146	2.025	2.051	1.888	1.842	1.610	1.593
505.0	165.0	217.7	304.6	302.2	305.7	1431	9999.9	4993	326.3	268.3	258.4	237.4	213.9	190.5	164.0	145.9	129.5	122.9	116.7	110.5	108.2	105.8	103.4	102.0	102.6	101.5	102.0	100.4	100.9	99.81	96.35	89.97	81.78	73.37	66.24	60.03	54.01	48.45	43.26	38.43	35.12	36.09	36.45	28.77	21.85	18.77	17.60	15.56	13.14	12.04	11.22	12.96	28.66	75.98	187.7	999.4	6144	9999.9	7598	29.94	9.893	5.976	5.233	4.063	3.526	3.134	2.947	2.591	2.268	2.197	2.162	2.007	1.792	1.753	1.683	1.570	1.585
510.0	155.6	183.6	247.0	297.5	253.3	502.3	5027	9999.9	1505	251.6	235.7	212.2	190.7	169.2	146.6	131.7	117.4	110.1	102.8	97.15	94.46	92.53	90.76	90.35	89.95	89.59	89.56	88.54	88.61	88.91	84.86	79.76	73.48	66.91	60.90	55.02	48.85	44.09	40.63	35.73	32.31	30.52	31.03	30.51	24.02	18.80	16.80	14.89	12.85	11.40	10.56	10.30	13.61	23.89	49.70	231.7	1444	5300	9999.9	7797	713.9	13.19	6.497	4.600	4.082	3.466	2.832	2.771	2.384	2.204	1.885	1.941	1.760	1.560	1.636	1.479	1.564
515.0	140.7	164.9	194.4	268.8	248.9	266.7	1387	9126	7027	304.2	208.3	189.6	171.0	149.8	129.3	115.1	104.7	98.31	90.88	86.33	83.38	78.86	80.00	78.80	79.74	78.41	78.45	77.88	78.41	78.35	74.79	69.95	65.42	59.61	54.58	48.47	44.11	40.27	36.57	32.64	29.51	26.96	25.70	26.63	26.04	20.55	15.96	14.17	12.66	10.97	9.938	9.587	9.950	11.62	17.81	58.67	329.4	1191	3025	9999.9	9999.9	227.4	12.10	5.928	4.464	3.697	3.094	2.495	2.471	2.128	1.888	1.911	1.679	1.680	1.479	1.294	1.443
520.0	118.1	145.5	163.1	226.4	248.1	205.3	460.8	4780	9999.9	1441	196.2	177.1	159.3	139.0	120.7	105.0	93.15	88.19	82.51	77.58	75.62	72.75	71.16	71.00	69.98	69.39	69.23	70.42	70.95	69.97	66.61	62.28	58.06	52.64	49.53	44.48	40.19	36.47	33.23	30.80	27.58	24.40	23.27	22.94	24.76	22.52	16.20	13.71	12.00	10.70	9.533	9.106	8.736	8.646	10.06	19.36	79.73	273.0	691.2	3780	9999.9	8451	33.17	8.835	5.504	3.879	3.269	2.881	2.514	2.251	1.927	1.815	1.736	1.573	1.468	1.357	1.158
525.0	106.3	142.4	145.0	180.4	246.5	194.1	242.4	1647	9999.9	5037	219.8	165.6	149.0	127.9	109.5	95.89	84.58	80.40	74.87	70.72	69.91	65.30	64.20	63.77	63.88	61.78	62.85	63.43	62.38	64.33	60.69	57.99	53.05	48.08	44.60	40.53	37.18	34.19	30.69	28.29	25.41	22.65	21.44	20.47	21.24	22.47	17.06	13.59	11.69	10.04	9.273	8.744	8.244	7.803	7.716	9.860	23.72	67.19	162.3	876.4	5004	9999.9	1932	28.77	7.186	4.608	3.463	2.895	2.415	2.159	1.908	1.650	1.716	1.591	1.369	1.466	1.175
530.0	103.9	116.1	131.1	142.8	216.1	207.0	176.3	502.4	5660	9999.9	1183	154.6	131.1	112.9	97.50	86.19	77.63	70.51	66.32	62.33	61.03	58.17	57.20	55.58	56.06	54.66	54.57	55.20	54.88	55.70	53.24	50.59	46.47	43.21	39.39	36.58	32.72	30.35	27.63	25.36	23.22	20.90	19.24	17.82	17.53	19.25	18.26	14.41	11.00	9.398	8.394	8.274	7.531	7.233	6.891	7.237	10.51	20.30	41.88	202.1	1170	4566	9372	5983	133.8	10.64	4.482	3.400	2.719	2.293	2.037	1.867	1.659	1.502	1.402	1.352	1.242
535.0	86.51	104.9	117.5	120.3	154.1	211.9	155.1	220.3	1511	9999.9	7447	205.3	119.2	100.4	85.70	75.67	67.64	62.06	57.81	53.53	51.79	50.74	49.49	48.23	48.07	46.30	46.33	47.63	46.05	47.68	47.31	44.48	39.65	37.82	34.31	31.99	28.84	26.74	24.53	22.40	20.49	18.92	17.09	15.98	14.79	15.01	16.00	15.26	10.98	9.028	7.801	7.390	6.539	6.665	6.796	6.497	6.905	9.197	13.97	49.73	266.0	1025	2669	9071	8073	214.1	8.477	4.261	3.363	2.561	2.181	1.987	1.619	1.543	1.365	1.264	1.232
540.0	92.49	94.20	103.7	111.0	124.7	185.5	157.5	144.4	442.1	5293	9999.9	1034	109.5	93.23	78.19	68.38	59.42	55.25	52.37	48.06	47.69	45.30	44.33	42.95	41.38	42.23	42.24	42.09	41.72	42.23	41.29	39.54	35.26	33.82	30.66	28.33	25.80	24.15	22.11	20.28	18.73	17.23	16.03	14.81	13.69	12.63	13.27	14.91	11.78	8.887	7.426	6.819	6.044	5.975	5.982	5.977	6.028	6.375	7.105	15.27	64.00	233.9	606.4	3194	9999.9	5809	32.51	6.220	3.802	2.917	2.296	2.006	1.640	1.585	1.239	1.218	1.270
545.0	94.89	94.12	93.91	95.68	101.8	151.8	176.2	118.0	192.3	1742	9999.9	4464	117.3	86.79	71.71	60.80	54.64	48.85	47.22	43.00	42.68	39.40	39.29	37.99	37.73	37.48	38.13	38.14	36.43	37.39	36.00	35.42	32.02	30.06	27.57	25.19	23.40	21.91	20.01	18.58	16.84	15.66	14.21	12.98	12.46	11.72	11.07	12.37	12.31	9.048	6.878	6.489	5.964	5.765	5.232	5.696	5.777	5.143	5.395	7.181	18.45	56.33	140.3	736.6	4233	9999.9	1901	26.71	5.024	3.456	2.542	1.875	1.651	1.653	1.379	1.134	1.292
550.0	81.22	86.20	87.26	85.99	84.05	106.2	162.5	120.3	119.2	482.3	5689	9999.9	693.4	78.72	63.10	52.80	48.00	43.03	39.19	36.65	35.75	34.14	33.41	31.98	31.49	32.18	31.50	31.32	31.12	31.40	29.98	29.55	26.96	25.06	23.25	21.43	19.79	18.38	16.95	15.78	14.50	13.27	12.37	11.57	10.53	10.11	9.358	9.707	10.33	9.374	7.350	5.845	5.171	5.092	4.775	4.880	4.899	4.976	4.562	4.792	7.407	16.10	35.08	168.6	980.1	3787	6523	4201	133.5	7.795	3.148	2.301	1.814	1.665	1.324	1.117	1.189
555.0	78.04	79.55	80.03	70.50	69.85	78.25	122.3	138.8	93.73	176.2	1465	9999.9	6036	119.4	55.21	45.83	41.07	36.11	32.49	30.20	30.09	27.94	27.18	27.20	26.17	26.81	25.62	24.90	24.96	25.57	24.64	22.99	22.45	20.92	19.24	17.85	16.15	15.08	14.33	13.53	12.23	10.77	10.81	9.586	9.203	8.550	8.254	7.909	7.809	8.196	7.538	5.673	4.573	4.410	3.949	4.325	4.056	4.251	4.268	3.991	4.128	6.407	10.52	40.62	221.7	847.8	1848	5914	5216	203.2	5.905	2.850	2.092	1.747	1.463	1.183	1.093
560.0	72.86	87.88	74.27	66.28	65.40	63.46	85.31	146.7	87.03	100.3	395.2	5317	9999.9	625.5	51.65	41.56	36.46	31.86	29.04	26.97	26.66	24.07	23.85	22.96	22.50	22.53	22.18	21.31	22.01	22.04	21.54	19.99	18.82	17.74	16.60	15.49	13.52	13.05	12.28	11.60	10.69	9.523	9.673	8.463	8.084	7.576	7.124	6.628	6.142	6.854	7.290	6.027	4.386	3.826	3.821	3.692	3.782	3.624	3.807	3.531	3.342	3.807	4.663	11.75	52.43	192.2	419.6	2033	6502	2059	31.28	3.905	2.538	1.936	1.681	1.238	1.068
565.0	76.73	80.94	75.70	64.36	58.77	57.41	65.69	130.4	101.0	78.83	146.8	1694	9999.9	3182	56.98	38.79	32.66	27.71	25.72	23.89	22.30	21.21	21.31	19.75	19.66	18.87	18.55	19.26	19.50	19.39	18.44	17.45	16.79	14.98	14.13	13.29	12.47	11.01	10.44	9.536	9.092	8.352	8.131	7.824	7.250	6.494	6.188	6.051	5.375	5.469	6.104	5.970	4.756	3.514	3.508	3.468	3.373	3.269	3.396	3.529	3.148	3.043	3.404	4.987	14.32	45.47	97.06	467.4	2596	5762	1772	24.28	3.281	2.163	1.756	1.304	1.041
570.0	71.93	81.46	68.91	56.29	48.78	47.85	52.10	90.21	115.3	74.38	86.73	445.6	5577	9878	468.9	36.40	28.60	25.38	21.94	20.13	18.67	18.00	17.29	16.58	16.15	15.81	15.53	15.58	16.15	15.71	15.54	14.66	13.46	12.59	11.77	10.82	10.40	9.630	8.692	8.443	7.725	7.063	6.835	6.331	6.015	5.535	5.272	5.283	4.510	4.342	4.572	5.107	4.716	3.553	3.215	3.075	2.981	2.938	2.884	2.978	3.052	2.818	2.694	3.219	5.231	12.33	24.03	107.1	597.1	2151	3935	2695	128.4	5.876	2.086	1.520	1.259
575.0	72.82	78.04	72.02	52.54	44.75	41.94	42.73	56.81	115.0	86.07	68.78	151.9	1417	9972	4733	57.15	26.04	21.87	19.02	17.29	15.53	15.92	14.03	14.24	13.17	13.22	12.27	13.03	13.37	12.45	12.25	12.21	11.13	10.21	9.517	9.193	8.470	8.010	7.384	7.053	6.274	5.955	5.737	5.204	5.468	4.907	4.532	4.575	4.006	3.663	3.585	3.814	4.270	3.749	2.924	2.813	2.697	2.641	2.587	2.502	2.620	2.787	2.524	2.485	2.684	4.709	7.303	25.97	135.4	481.9	1066	3327	2092	193.2	4.192	1.868	1.289
580.0	70.48	82.04	71.32	52.77	41.69	41.86	40.49	47.24	93.77	104.8	65.73	81.97	367.2	4907	9969	333.8	25.49	21.34	17.13	16.18	14.41	14.08	13.62	12.67	11.90	11.48	11.04	11.32	11.14	11.26	10.37	10.50	9.657	9.139	8.339	8.097	7.186	7.094	6.210	6.215	5.486	5.310	5.138	4.902	4.682	4.328	4.108	3.831	3.709	3.255	3.152	2.978	3.588	3.616	3.082	2.648	2.361	2.341	2.310	2.196	2.145	2.397	2.763	2.180	2.171	2.809	3.448	7.781	32.17	109.5	241.7	1094	3495	1941	31.05	2.771	1.607
585.0	66.22	70.09	72.93	48.98	36.68	37.65	35.05	43.04	64.49	115.2	70.00	68.37	126.9	1514	9999.9	894.1	28.40	20.35	16.36	14.70	12.63	12.54	11.82	11.36	10.23	9.882	10.07	10.11	9.715	10.11	9.655	8.997	8.359	7.853	7.125	7.089	6.425	6.252	5.843	5.240	4.901	4.819	4.452	4.427	4.010	4.034	3.837	3.525	3.294	2.963	2.580	2.497	2.864	3.234	3.121	2.551	2.306	2.051	2.142	2.110	1.910	2.000	2.489	2.175	1.950	2.099	2.257	3.522	8.860	26.17	56.17	250.4	1363	3514	1512	23.85	2.046
590.0	73.40	75.49	67.43	54.63	39.69	35.82	32.87	40.59	49.21	99.23	90.93	65.26	75.29	389.0	5031	6887	300.2	20.33	15.30	13.34	11.10	11.09	10.30	9.491	8.827	8.698	8.282	8.726	8.204	8.481	7.898	7.620	7.104	6.774	6.374	5.995	5.714	5.333	5.009	4.589	4.207	3.953	3.894	3.659	3.605	3.368	3.286	3.009	2.939	2.618	2.402	2.195	2.231	2.588	2.771	2.512	2.228	1.832	1.984	1.776	1.801	1.699	1.990	2.145	2.032	1.905	1.872	2.083	3.547	7.366	14.13	57.69	311.9	1228	2379	1561	131.3
595.0	80.85	73.25	73.04	53.21	38.75	33.42	33.41	41.08	46.70	74.38	109.2	73.84	66.09	126.3	1253	7523	3035	30.29	14.49	12.40	10.38	9.289	8.923	8.690	8.023	7.499	6.905	7.330	7.242	6.572	6.548	6.256	6.252	5.643	5.288	4.999	4.797	4.105	4.133	3.960	3.555	3.484	3.467	3.167	3.084	2.930	2.772	2.483	2.507	2.122	1.947	1.821	1.861	1.931	2.179	2.355	2.266	1.765	1.824	1.550	1.502	1.458	1.628	1.699	2.110	1.891	1.670	1.578	1.948	2.858	4.542	14.32	71.05	275.1	613.0	1810	2017
600.0	76.19	79.11	76.71	55.73	38.07	33.60	36.18	42.01	50.13	66.80	114.8	90.56	70.98	72.29	318.6	3886	6308	84.56	15.06	11.78	10.18	8.393	7.727	7.487	7.254	7.231	6.323	6.323	6.187	6.159	5.863	5.811	5.071	5.026	4.620	4.358	4.165	3.927	3.627	3.473	3.234	2.816	2.923	2.725	2.680	2.649	2.367	2.357	2.323	1.919	1.892	1.796	1.764	1.673	1.818	2.033	2.390	1.817	1.664	1.459	1.527	1.555	1.623	1.502	1.905	1.889	1.674	1.513	1.508	1.715	2.294	4.385	17.05	62.59	138.7	558.7	2132
605.0	76.72	82.98	77.28	54.50	40.95	36.42	41.49	51.25	61.03	80.51	125.3	131.5	89.09	74.07	116.6	1226	8017	642.5	17.28	11.06	9.944	7.649	7.234	7.323	6.838	6.422	5.942	6.007	5.589	5.698	5.239	5.170	4.686	4.531	4.142	3.983	3.740	3.658	3.369	3.149	2.943	2.742	2.513	2.587	2.565	2.426	2.255	2.186	2.173	1.760	1.704	1.735	1.600	1.452	1.655	1.607	2.160	1.955	1.672	1.346	1.589	1.455	1.473	1.394	1.467	1.770	1.877	1.684	1.541	1.487	1.718	2.060	4.955	15.04	32.34	127.6	742.8
610.0	85.61	84.68	85.63	61.35	45.82	45.14	56.25	67.61	87.61	114.5	145.5	181.3	140.8	103.6	98.05	338.2	4146	5007	192.3	11.81	9.133	7.511	6.524	6.477	5.851	5.280	5.338	5.240	4.949	5.057	4.570	4.467	4.132	4.033	3.725	3.484	3.224	3.225	2.758	2.765	2.529	2.463	2.237	2.178	2.199	2.167	2.055	1.952	1.841	1.697	1.548	1.476	1.467	1.322	1.524	1.457	1.819	1.957	1.902	1.515	1.504	1.532	1.513	1.551	1.537	1.725	1.944	1.946	1.658	1.616	1.607	1.577	2.246	4.587	8.444	29.68	168.9
615.0	85.62	91.47	89.66	60.46	50.54	48.35	59.66	76.44	95.94	124.2	152.9	182.5	172.2	119.6	101.6	131.5	1075	5866	1925	16.74	9.764	7.625	6.348	6.356	5.363	4.611	4.737	4.498	4.511	4.448	4.079	4.019	3.784	3.367	3.137	3.025	3.011	2.771	2.753	2.378	2.206	2.004	1.948	1.803	1.987	1.889	1.746	1.714	1.676	1.559	1.412	1.375	1.268	1.323	1.387	1.237	1.542	1.718	1.775	1.522	1.335	1.274	1.337	1.427	1.538	1.638	1.733	1.803	1.671	1.635	1.440	1.381	1.571	2.101	2.775	7.644	38.82
620.0	75.63	104.3	96.70	64.23	52.51	50.12	59.86	76.21	90.84	121.6	143.9	170.1	180.6	124.9	97.82	83.15	294.8	3274	4626	59.24	10.41	7.454	5.681	5.554	4.805	4.638	4.012	4.296	4.339	4.056	3.687	3.519	3.266	3.040	2.953	2.896	2.628	2.642	2.474	2.138	1.994	1.857	1.925	1.796	1.835	1.717	1.542	1.710	1.601	1.374	1.258	1.235	1.141	1.333	1.165	1.133	1.287	1.380	1.611	1.579	1.265	1.297	1.289	1.378	1.483	1.442	1.607	1.650	1.620	1.495	1.394	1.410	1.387	1.442	1.610	2.593	9.561
625.0	71.44	100.6	103.1	69.40	50.89	50.46	62.61	73.94	89.14	115.8	138.1	161.5	175.8	130.9	97.73	72.71	114.9	1078	5951	486.5	11.20	7.798	6.117	5.652	4.584	4.612	3.749	3.998	3.764	3.649	3.423	3.340	3.429	2.661	2.831	2.587	2.403	2.379	2.284	2.001	1.820	1.851	1.710	1.746	1.664	1.744	1.555	1.571	1.600	1.315	1.218	1.191	1.148	1.149	1.099	1.148	1.293	1.256	1.438	1.491	1.469	1.339	1.284	1.239	1.373	1.246	1.358	1.484	1.699	1.712	1.443	1.390	1.260	1.260	1.165	1.368	2.888
630.0	77.11	108.4	101.3	67.32	51.18	50.13	60.62	74.19	87.93	113.6	133.9	151.0	164.3	144.0	99.86	70.55	72.09	284.3	3296	3539	46.04	8.256	6.156	5.332	4.664	4.089	3.536	3.652	3.454	3.534	3.285	2.902	3.016	2.564	2.620	2.316	2.364	2.245	2.046	1.906	1.752	1.600	1.524	1.620	1.560	1.605	1.479	1.429	1.432	1.276	1.113	1.069	1.154	1.099	1.040	1.098	1.110	1.074	1.279	1.369	1.328	1.385	1.260	1.237	1.379	1.290	1.304	1.349	1.524	1.463	1.475	1.340	1.160	1.148	1.037	1.103	1.403
635.0	79.51	106.1	94.99	71.94	51.78	50.45	63.72	72.91	87.63	109.5	132.1	148.6	150.9	150.2	105.0	70.82	62.29	92.88	842.4	4679	1296	11.08	6.421	5.383	4.270	3.918	3.653	3.370	3.236	2.936	2.998	2.602	2.579	2.589	2.487	2.161	2.118	1.910	1.821	1.895	1.636	1.437	1.411	1.441	1.441	1.393	1.390	1.210	1.275	1.177	1.064	1.039	1.072	1.051	1.013	1.026	1.016	1.111	1.140	1.216	1.179	1.334	1.332	1.374	1.188	1.209	1.370	1.278	1.230	1.277	1.399	1.411	1.155	1.058	1.037	0.967	1.046
640.0	88.47	94.56	101.4	73.24	53.76	51.36	62.74	72.32	83.28	104.4	130.7	147.3	144.6	141.5	109.0	69.14	59.76	50.74	206.3	2876	3540	42.38	7.220	5.886	4.394	3.789	3.244	3.223	2.825	2.819	2.859	2.565	2.488	2.581	2.169	2.098	1.948	1.783	1.920	1.601	1.499	1.565	1.354	1.427	1.453	1.317	1.206	1.297	1.274	1.150	1.011	1.033	0.961	0.959	0.936	0.980	1.004	1.002	0.994	1.120	1.115	1.183	1.247	1.192	1.090	1.164	1.336	1.208	1.227	1.315	1.353	1.309	1.225	1.027	1.059	1.017	0.870
645.0	87.09	101.1	105.5	73.49	55.16	47.66	57.12	68.67	81.96	100.9	122.2	139.4	138.6	131.3	116.0	70.78	55.82	40.14	59.11	1005	4955	360.0	8.208	5.817	4.417	4.073	3.404	3.246	3.002	2.935	2.890	2.303	2.451	2.409	2.074	2.061	1.951	1.891	1.680	1.531	1.484	1.453	1.405	1.357	1.345	1.469	1.341	1.294	1.218	1.133	0.970	1.028	0.886	0.949	1.026	1.079	0.968	0.989	0.948	1.093	1.091	0.917	1.190	1.203	1.158	1.198	1.249	1.294	1.159	1.224	1.201	1.141	1.322	1.236	0.995	1.000	0.801
650.0	89.24	101.4	109.7	74.33	54.74	45.13	54.38	63.78	75.11	93.44	115.2	129.4	132.8	118.5	111.5	70.35	53.75	35.90	25.09	260.0	4005	1881	14.47	5.949	4.578	4.027	3.615	2.966	3.015	2.771	2.900	2.489	2.423	2.391	2.092	2.034	2.020	1.898	1.613	1.522	1.437	1.464	1.413	1.408	1.343	1.352	1.348	1.215	1.192	1.090	1.002	0.932	0.877	0.937	0.914	1.028	1.030	0.932	0.943	0.973	0.934	1.018	1.098	1.021	1.084	1.165	1.163	1.228	1.120	1.188	1.121	1.119	1.191	1.190	1.022	0.961	0.859
