Sample:	'1
File name:	Default_20231009_131253.FD3
Run date:	'13:06:32, 10/09/2023
Operator:	dsjg
Comment:	'

Instrument
Model:	F-2700 FL Spectrophotometer
Serial number:	2198-001
ROM Version:	4J14000 07

Instrument parameters
Measurement type:	3-D scan
Data mode:	Fluorescence
EX  Start WL:	220.0 nm
EX  End WL:	600.0 nm
EX Sampling interval:	5.0 nm
EM  Start WL:	230.0 nm
EM  End WL:	650.0 nm
EM Sampling interval:	5.0 nm
Scan speed:	12000 nm/min
EX Slit:	5.0 nm
EM Slit:	5.0 nm
PMT Voltage:	700 V
Response:	Auto 
Corrected spectra:	Off
Contour interval:	50.000

Peak integration
Integration method:	Rectangular
Sensitivity:	1
Threshold:	1.000

Peaks
No.	ApexEX/EM(nm)	Height(Data)
1	225.0/340.0	 1115
2	245.0/420.0	564.1
3	250.0/440.0	541.4
4	265.0/440.0	538.6
5	265.0/585.0	68.43
6	270.0/595.0	66.72
7	275.0/335.0	 1160
8	275.0/610.0	61.27
9	460.0/335.0	4.041
10	560.0/335.0	6.827

Data points
	220.0	225.0	230.0	235.0	240.0	245.0	250.0	255.0	260.0	265.0	270.0	275.0	280.0	285.0	290.0	295.0	300.0	305.0	310.0	315.0	320.0	325.0	330.0	335.0	340.0	345.0	350.0	355.0	360.0	365.0	370.0	375.0	380.0	385.0	390.0	395.0	400.0	405.0	410.0	415.0	420.0	425.0	430.0	435.0	440.0	445.0	450.0	455.0	460.0	465.0	470.0	475.0	480.0	485.0	490.0	495.0	500.0	505.0	510.0	515.0	520.0	525.0	530.0	535.0	540.0	545.0	550.0	555.0	560.0	565.0	570.0	575.0	580.0	585.0	590.0	595.0	600.0
230.0	266.3	 3179	 4294	615.2	25.01	12.42	9.810	8.634	7.756	6.250	6.008	5.327	4.598	4.001	3.341	2.912	2.619	2.433	2.192	2.010	1.947	1.878	1.816	1.721	1.633	1.600	1.584	1.546	1.562	1.461	1.498	1.455	1.311	1.275	1.247	1.267	1.182	1.227	1.093	1.078	0.994	1.126	1.098	1.004	0.928	0.911	2.116	9.600	19.84	17.74	7.462	1.684	0.750	0.728	0.718	0.723	0.700	0.700	0.698	0.680	0.682	0.698	0.633	0.652	0.674	0.691	0.650	0.660	0.668	0.656	0.678	0.666	0.704	0.651	0.671	0.682	0.695
235.0	122.3	998.5	 3593	 4034	406.8	28.18	11.52	9.325	7.676	6.591	6.614	5.833	4.565	4.153	3.483	2.986	2.580	2.513	2.235	2.213	2.013	1.880	1.938	1.764	1.579	1.697	1.598	1.528	1.454	1.542	1.449	1.443	1.441	1.483	1.278	1.256	1.282	1.144	1.144	1.026	0.987	1.028	1.006	1.062	1.127	1.052	1.139	2.846	6.864	12.06	19.22	20.61	10.88	2.477	0.738	0.688	0.736	0.754	0.736	0.617	0.749	0.687	0.688	0.649	0.676	0.707	0.629	0.664	0.688	0.706	0.732	0.745	0.636	0.666	0.640	0.711	0.705
240.0	122.5	273.0	 1354	 4523	 3344	304.3	16.12	11.38	9.182	7.616	6.979	6.186	4.828	4.274	3.672	3.021	2.694	2.437	2.366	2.251	1.998	1.870	1.833	1.831	1.806	1.775	1.446	1.587	1.656	1.713	1.543	1.525	1.341	1.364	1.346	1.168	1.145	1.169	1.156	1.086	1.026	0.960	0.939	0.960	1.129	1.186	1.044	1.274	2.169	3.707	9.158	21.55	29.35	19.53	7.386	1.315	0.745	0.740	0.687	0.707	0.726	0.652	0.647	0.704	0.690	0.659	0.603	0.683	0.637	0.706	0.697	0.697	0.662	0.631	0.667	0.677	0.752
245.0	116.7	149.3	347.2	 2061	 5436	 2726	205.9	14.02	9.961	8.856	7.380	6.570	5.287	4.680	3.994	3.157	3.008	2.598	2.432	2.059	1.965	1.890	1.855	1.804	1.750	1.773	1.655	1.706	1.592	1.563	1.499	1.449	1.410	1.297	1.201	1.118	1.200	1.220	1.183	1.115	1.074	1.117	0.952	0.990	1.021	1.239	1.103	1.153	1.179	1.395	2.746	7.349	18.35	31.10	25.70	16.88	4.411	0.864	0.664	0.698	0.710	0.690	0.665	0.659	0.728	0.668	0.677	0.711	0.723	0.699	0.653	0.706	0.662	0.654	0.651	0.732	0.749
250.0	71.63	121.8	160.4	524.3	 2254	 4863	 4170	908.7	44.17	10.47	9.042	7.616	5.997	5.256	4.084	3.383	2.959	2.824	2.497	2.204	2.126	1.992	1.842	1.876	1.826	1.767	1.655	1.642	1.582	1.619	1.562	1.430	1.397	1.314	1.154	1.170	1.175	1.132	1.094	1.073	1.093	1.104	1.008	0.979	0.919	1.050	0.958	1.090	1.213	1.073	1.316	2.277	4.964	10.44	17.53	27.89	30.00	28.35	12.27	4.472	0.955	0.707	0.698	0.717	0.670	0.680	0.732	0.675	0.701	0.683	0.661	0.664	0.655	0.685	0.670	0.679	0.721
255.0	56.75	62.03	123.0	207.5	534.1	 1522	 5190	 6992	 1286	40.05	10.93	9.380	7.281	5.803	4.671	3.876	3.256	2.964	2.580	2.549	2.184	2.207	1.975	1.867	1.930	1.752	1.794	1.863	1.732	1.834	1.561	1.480	1.271	1.362	1.250	1.146	1.132	1.157	1.025	1.067	1.056	1.110	1.032	1.004	0.975	0.939	0.911	0.971	1.025	1.032	1.222	1.644	1.803	2.996	4.565	7.287	13.13	29.76	48.39	27.84	18.94	4.683	0.811	0.767	0.704	0.681	0.771	0.687	0.654	0.686	0.680	0.762	0.666	0.672	0.627	0.706	0.695
260.0	45.60	41.77	68.21	151.6	191.4	370.3	 2014	 7593	 6818	203.7	24.63	10.40	9.057	6.398	5.298	4.175	3.572	3.251	2.846	2.593	2.214	2.169	2.143	1.885	1.860	1.909	1.815	1.864	1.762	1.669	1.562	1.595	1.440	1.329	1.190	1.138	1.132	1.185	1.119	0.988	1.075	1.119	1.115	0.908	1.001	0.942	0.877	0.921	0.878	0.779	0.957	1.332	1.517	1.534	1.660	2.302	3.597	9.077	23.68	43.29	60.37	27.29	14.09	2.219	0.811	0.789	0.754	0.671	0.700	0.670	0.749	0.697	0.704	0.729	0.696	0.747	0.744
265.0	49.15	35.87	39.33	96.55	159.2	132.0	496.8	 3319	 9130	 6126	165.3	15.63	10.27	8.054	6.137	4.805	4.135	3.447	3.110	2.906	2.379	2.315	2.283	2.000	1.945	1.961	1.772	1.730	1.627	1.775	1.633	1.680	1.549	1.386	1.202	1.092	1.168	1.182	1.088	1.074	1.023	1.078	1.202	0.946	1.086	0.935	0.894	0.912	0.796	0.783	0.885	0.949	1.411	1.589	1.290	1.279	1.388	2.669	6.222	14.49	36.77	58.48	65.65	24.61	8.205	1.005	0.735	0.812	0.678	0.680	0.688	0.770	0.712	0.783	0.687	0.773	0.771
270.0	55.33	39.32	31.79	44.47	97.16	145.1	175.4	806.7	 3466	 7975	 7818	 2419	50.00	10.37	7.719	6.094	4.927	3.988	3.561	3.081	2.699	2.560	2.386	2.210	2.122	1.974	1.701	1.894	1.811	1.905	1.753	1.620	1.492	1.421	1.306	1.245	1.139	1.140	1.076	1.093	1.002	1.092	1.149	0.996	1.064	0.992	0.920	0.903	0.829	0.780	0.746	0.840	0.970	1.161	1.297	1.404	1.485	1.481	2.119	3.941	9.302	19.02	35.36	50.06	59.43	47.44	16.14	7.499	1.272	0.792	0.734	0.785	0.763	0.731	0.728	0.738	0.759
275.0	77.27	63.31	51.81	53.28	63.76	115.4	190.1	269.6	830.2	 2283	 7201	 9936	 1024	59.54	11.62	7.926	5.764	5.020	4.194	3.515	3.164	2.800	2.569	2.327	2.338	2.150	2.171	1.983	1.884	1.827	1.833	1.671	1.516	1.467	1.405	1.265	1.282	1.453	1.242	1.176	1.021	1.156	1.109	1.082	1.232	0.998	0.987	1.016	0.859	0.879	0.836	0.903	0.866	1.023	1.079	1.159	1.505	1.867	1.888	1.867	2.946	5.016	8.750	12.69	21.32	43.67	72.27	77.05	24.47	7.425	0.912	0.836	0.808	0.740	0.729	0.701	0.795
280.0	107.6	97.42	85.25	80.36	90.32	111.3	184.6	239.3	298.7	624.3	 2507	 9308	 8296	837.7	38.25	9.697	7.518	5.727	4.663	4.051	3.385	3.224	2.825	2.479	2.483	2.284	2.197	1.960	1.931	1.961	1.956	1.718	1.599	1.459	1.524	1.504	1.375	1.358	1.278	1.271	1.116	1.180	1.212	1.126	1.157	1.089	1.104	1.136	1.045	0.976	0.993	1.111	1.006	1.113	1.136	1.176	1.321	1.601	2.036	2.037	2.065	2.103	3.054	4.103	6.138	12.74	31.17	64.51	84.47	31.29	18.50	2.952	0.941	0.820	0.827	0.814	0.768
285.0	164.1	151.0	134.4	119.3	125.2	127.0	163.5	253.1	268.5	307.8	754.5	 3584	 9957	 7031	642.5	17.97	9.268	6.458	5.762	4.706	3.646	3.389	2.913	2.677	2.664	2.605	2.315	2.176	2.031	2.040	1.904	1.778	1.741	1.543	1.581	1.705	1.651	1.505	1.481	1.316	1.260	1.270	1.253	1.192	1.249	1.312	1.280	1.349	1.229	1.068	1.102	1.201	1.187	1.243	1.244	1.216	1.459	1.481	1.758	2.224	2.488	2.224	2.053	2.251	2.863	4.383	8.637	20.24	44.63	72.43	88.34	28.55	11.52	1.111	0.808	0.894	0.872
290.0	272.8	276.6	229.0	195.8	195.4	198.6	201.8	251.0	356.7	421.6	496.6	 1129	 3498	 7449	 7782	 2436	38.17	9.797	7.401	5.507	4.348	3.942	3.540	3.125	2.787	2.634	2.550	2.284	2.205	2.073	1.980	1.891	1.775	1.719	1.795	1.996	1.941	1.869	1.790	1.649	1.531	1.554	1.493	1.441	1.494	1.583	1.574	1.731	1.519	1.426	1.354	1.458	1.467	1.460	1.597	1.668	1.709	1.649	1.767	1.932	2.326	2.691	3.045	2.913	2.956	3.163	4.064	6.760	12.44	22.71	41.90	56.10	71.05	55.01	17.66	7.979	1.251
295.0	411.0	396.4	338.7	281.3	265.6	265.5	262.2	291.2	375.8	555.9	656.3	710.7	 1125	 2085	 5351	9999.9	 3825	45.97	10.14	7.298	5.802	4.775	4.273	3.580	3.057	3.036	2.621	2.378	2.389	2.271	2.282	2.041	1.993	1.834	2.011	2.210	2.214	2.309	2.024	1.756	1.682	1.783	1.639	1.744	1.696	1.976	1.856	1.967	1.962	1.784	1.606	1.718	1.764	1.821	1.848	1.922	1.973	2.012	1.978	2.109	2.220	2.650	3.208	3.811	4.347	3.964	3.850	4.421	5.525	7.395	11.45	14.80	23.94	43.69	78.60	91.55	26.65
300.0	531.1	505.5	428.0	334.4	311.7	316.2	302.0	340.8	418.2	593.2	782.4	776.6	692.7	754.6	 1729	 6794	9999.9	 2829	32.28	9.695	7.323	5.531	4.739	3.884	3.703	2.800	2.835	2.698	2.517	2.312	2.186	2.204	1.952	1.912	2.070	2.341	2.267	2.373	2.210	2.030	1.870	1.903	1.862	1.853	1.966	2.220	2.069	2.285	2.201	2.031	1.840	1.953	1.820	1.996	2.030	2.084	2.266	2.204	2.121	2.530	2.555	2.836	3.332	3.752	4.466	5.053	5.018	4.617	4.398	4.589	4.972	5.374	7.029	12.63	32.00	70.65	95.96
305.0	590.8	604.1	489.5	375.4	343.4	352.1	349.7	381.8	474.0	621.5	823.6	920.8	721.9	526.4	594.3	 2246	 7908	9999.9	467.4	19.37	8.554	6.684	5.386	4.713	3.795	3.124	2.971	2.709	2.729	2.634	2.338	2.297	2.102	1.957	2.259	2.368	2.424	2.536	2.308	2.052	2.174	2.065	1.926	2.053	1.953	2.243	2.298	2.537	2.509	2.186	2.145	2.161	2.099	2.124	2.269	2.387	2.356	2.449	2.417	2.646	2.936	3.012	3.558	3.863	4.513	4.883	5.559	5.733	4.919	4.256	4.071	3.746	3.667	4.482	8.772	21.19	46.12
310.0	676.8	712.7	568.9	406.8	349.8	362.6	381.3	429.2	532.5	681.6	853.4	970.4	891.5	614.7	415.7	648.9	 2359	 6625	 9382	 4156	31.06	9.220	6.997	5.491	4.477	3.944	3.377	3.064	3.126	2.762	2.453	2.306	2.106	2.128	2.246	2.407	2.539	2.528	2.349	2.348	2.277	2.198	2.102	2.226	2.249	2.585	2.602	2.853	2.716	2.302	2.120	2.306	2.141	2.242	2.214	2.411	2.508	2.595	2.660	2.855	3.144	3.350	3.963	4.275	4.784	5.081	5.550	5.818	5.894	5.496	4.693	3.796	3.265	3.033	3.544	6.016	11.88
315.0	784.5	798.2	632.6	431.8	365.6	373.6	400.2	476.5	596.1	746.6	903.0	 1000	966.7	793.2	489.2	340.1	626.8	 1615	 4221	9999.9	 3203	38.71	9.767	7.632	5.831	4.652	4.048	3.520	3.436	3.145	2.647	2.583	2.255	2.296	2.470	2.466	2.617	2.707	2.539	2.460	2.226	2.272	2.306	2.457	2.506	2.964	3.018	3.074	2.947	2.372	2.284	2.283	2.111	2.300	2.411	2.458	2.580	2.621	3.175	3.377	3.516	3.717	4.369	4.590	5.018	5.324	5.790	5.867	5.948	5.892	5.720	5.016	3.938	3.078	2.805	2.994	4.071
320.0	862.4	893.6	672.4	445.9	364.7	379.6	419.7	499.3	624.0	792.9	958.7	 1036	985.4	854.8	608.7	325.0	265.9	430.8	 1152	 5363	9999.9	 2504	29.14	9.030	7.183	5.465	4.506	3.987	3.600	3.325	2.708	2.649	2.349	2.231	2.423	2.478	2.643	2.747	2.570	2.289	2.334	2.457	2.458	2.576	2.649	2.982	3.006	3.447	3.081	2.731	2.292	2.395	2.258	2.390	2.308	2.437	2.582	2.624	2.990	3.280	3.672	3.847	4.346	4.750	5.235	5.500	5.778	5.973	6.148	5.875	5.694	5.485	5.026	4.018	3.100	2.596	2.428
325.0	927.9	958.7	726.5	469.4	368.5	383.4	428.9	516.9	658.2	836.4	 1004	 1085	 1023	864.1	686.4	403.4	215.3	184.3	313.6	 1532	 6766	9999.9	387.5	20.10	8.461	6.519	5.210	4.386	3.795	3.452	3.158	2.722	2.406	2.410	2.522	2.319	2.538	2.677	2.539	2.641	2.415	2.573	2.615	2.698	2.911	3.203	3.212	3.567	3.398	2.865	2.447	2.423	2.231	2.261	2.384	2.406	2.566	2.796	3.180	3.360	3.721	4.038	4.385	4.895	5.514	5.581	6.122	6.390	6.470	5.918	5.723	5.213	5.372	4.922	3.840	2.671	2.276
330.0	998.3	 1031	794.6	507.5	390.4	398.3	440.1	539.1	691.9	869.2	 1043	 1131	 1080	897.9	694.4	497.2	293.3	162.8	146.4	394.0	 1824	 5986	 9362	 4452	28.52	8.701	6.863	5.382	4.484	4.002	3.449	3.098	2.801	2.598	2.597	2.603	2.607	2.690	2.548	2.555	2.383	2.559	2.661	2.768	3.129	3.333	3.531	3.907	3.690	3.060	2.644	2.575	2.324	2.296	2.348	2.518	2.660	2.967	3.166	3.480	3.911	4.218	4.713	5.327	5.740	6.094	6.350	6.364	6.555	6.390	5.972	5.407	5.154	4.832	4.431	3.677	2.959
335.0	987.3	 1076	827.6	546.8	407.5	416.3	457.7	567.6	718.9	893.8	 1063	 1160	 1115	941.1	721.0	501.8	383.3	235.7	136.5	158.4	455.9	 1407	 3714	9999.9	 2793	36.31	9.244	7.140	5.734	4.481	3.796	3.315	2.928	2.905	2.729	2.714	2.653	2.796	2.519	2.525	2.513	2.544	2.668	2.923	3.145	3.400	3.600	4.002	4.041	3.097	2.668	2.685	2.566	2.395	2.529	2.612	2.865	3.078	3.258	3.569	4.085	4.356	4.980	5.329	5.947	6.331	6.279	6.813	6.827	6.545	6.118	5.763	5.426	4.811	4.149	3.557	3.706
340.0	987.2	 1115	855.3	557.7	431.7	421.4	478.0	576.3	722.6	905.3	 1067	 1154	 1123	957.3	736.4	508.3	381.9	311.5	174.2	122.3	165.5	360.6	946.7	 5062	9999.9	 2327	27.97	9.026	6.610	5.336	4.320	3.733	3.160	3.177	2.697	2.866	2.689	2.786	2.622	2.427	2.536	2.431	2.587	2.822	3.035	3.535	3.615	3.993	3.998	3.194	2.721	2.908	2.533	2.453	2.578	2.755	2.929	3.144	3.576	3.569	4.049	4.635	4.913	5.163	5.887	6.084	6.248	6.727	6.761	6.591	6.106	5.796	5.377	4.897	3.944	3.523	3.447
345.0	988.1	 1070	876.4	583.4	450.7	441.7	489.1	583.2	721.7	894.1	 1050	 1131	 1105	954.6	745.5	519.6	367.1	325.1	244.3	137.4	115.4	139.5	255.7	 1356	 6970	9999.9	344.2	19.31	8.022	6.502	5.108	4.194	3.369	3.330	2.823	2.752	2.503	2.747	2.616	2.539	2.578	2.473	2.581	2.786	3.047	3.514	3.549	3.934	3.798	3.223	2.861	2.930	2.585	2.724	2.628	2.850	2.930	3.167	3.587	3.792	3.952	4.430	4.932	5.575	5.654	5.987	6.183	6.570	6.563	6.434	6.276	5.791	5.704	4.821	4.449	3.655	3.499
350.0	942.4	 1027	833.0	592.9	472.5	458.7	500.7	581.8	711.2	859.4	 1008	 1083	 1050	926.6	742.8	529.6	378.5	303.3	284.8	220.9	138.2	113.9	120.6	350.9	 1799	 6054	 9393	 4190	27.09	8.660	6.495	4.874	3.954	3.385	3.136	2.962	2.784	2.870	2.615	2.583	2.400	2.460	2.526	2.699	2.993	3.297	3.490	3.800	3.742	3.164	2.826	3.041	2.650	2.657	2.615	2.820	2.873	3.219	3.431	3.776	3.983	4.395	4.820	5.305	5.366	5.868	6.157	6.454	6.321	6.365	6.151	5.779	5.585	4.878	4.312	3.674	3.572
355.0	883.9	943.9	791.8	593.4	492.0	472.4	501.2	576.9	691.9	822.5	951.6	 1007	992.2	888.1	723.3	539.2	403.2	317.9	270.2	270.7	219.5	139.1	113.0	145.2	449.8	 1406	 3579	9999.9	 2617	35.49	9.013	6.395	4.958	3.992	3.463	3.022	3.011	2.892	2.774	2.394	2.395	2.505	2.567	2.659	2.764	3.192	3.305	3.663	3.525	3.134	2.819	3.056	2.938	2.786	2.695	2.853	2.882	3.145	3.524	3.675	4.059	4.424	4.630	4.964	5.401	5.633	5.698	5.945	5.853	6.103	5.730	5.602	5.442	4.978	4.351	3.901	3.559
360.0	811.8	895.0	769.4	600.1	509.4	482.9	502.4	570.6	668.5	784.8	896.0	964.8	944.3	848.7	704.8	538.6	418.3	336.6	279.5	262.4	272.8	188.2	130.9	115.2	163.1	359.1	883.6	 4880	9999.9	 2254	26.78	7.711	5.891	4.426	3.624	3.228	3.211	2.838	2.732	2.535	2.427	2.506	2.462	2.590	2.951	3.069	3.094	3.477	3.476	3.201	2.684	2.808	2.881	2.784	2.688	2.853	3.230	3.117	3.368	3.782	4.067	4.196	4.464	4.809	5.193	5.497	5.510	5.657	5.735	5.974	5.684	5.582	5.380	4.701	4.416	3.982	3.597
365.0	789.3	844.3	739.3	595.0	517.9	497.0	513.4	570.9	651.0	752.9	858.0	914.9	896.4	810.1	690.2	536.6	429.0	352.4	301.4	265.2	273.2	251.6	163.6	123.7	112.9	136.7	239.5	 1261	 6908	9999.9	327.8	17.09	6.957	5.158	4.409	3.573	3.127	2.965	2.699	2.612	2.427	2.625	2.516	2.458	2.882	3.014	3.037	3.476	3.275	2.909	2.741	2.913	2.770	2.865	2.808	2.991	3.230	3.195	3.397	3.657	3.793	4.147	4.323	4.593	5.077	5.274	5.459	5.317	5.620	5.426	5.785	5.361	5.213	4.578	4.143	4.093	3.855
370.0	735.3	792.7	707.8	585.4	527.4	500.4	518.5	563.9	627.6	717.6	804.6	845.1	835.1	763.7	660.6	534.3	441.3	375.2	330.9	292.0	271.1	271.8	238.3	164.0	124.5	106.4	110.0	321.9	 1764	 6194	 9400	 3839	23.49	7.132	5.422	4.250	3.473	3.192	2.811	2.719	2.621	2.619	2.518	2.640	2.685	2.855	2.956	3.244	3.226	2.935	2.746	2.893	2.951	2.946	2.885	2.899	3.206	3.301	3.434	3.607	3.718	4.037	4.187	4.541	4.886	4.899	5.100	5.015	5.379	5.309	5.322	5.182	5.005	4.534	4.164	4.139	3.862
375.0	692.5	743.2	671.0	577.7	536.0	515.3	520.5	547.2	606.2	682.0	747.8	784.2	775.7	715.4	632.7	527.6	450.3	397.7	358.7	323.4	292.6	269.4	270.8	238.7	159.9	120.3	99.54	126.1	431.5	 1425	 3780	9999.9	 2306	29.51	7.082	5.344	4.132	3.525	2.966	2.662	2.729	2.664	2.508	2.631	2.756	2.813	2.945	3.217	3.072	2.875	2.723	3.017	2.980	3.149	2.955	3.046	3.331	3.254	3.213	3.574	3.678	3.929	4.057	4.081	4.525	4.774	4.648	4.927	5.121	4.905	4.995	4.847	4.704	4.387	4.067	4.035	3.968
380.0	649.5	717.4	665.0	594.3	540.7	517.1	528.5	544.6	588.2	642.4	708.5	741.7	737.2	685.6	612.6	521.3	454.5	411.3	373.2	343.6	310.4	279.8	267.0	274.0	206.0	141.3	109.1	93.08	143.1	351.8	916.9	 5153	9999.9	 1874	21.07	6.276	4.854	3.963	3.335	2.908	2.737	2.620	2.629	2.551	2.781	2.903	2.770	3.083	3.122	2.829	2.654	3.165	2.937	3.208	2.899	3.070	3.317	3.240	3.163	3.490	3.553	3.777	4.115	4.054	4.458	4.484	4.469	4.751	4.656	4.734	4.650	4.535	4.696	4.361	4.045	4.032	3.946
385.0	627.3	691.1	644.6	587.5	544.4	522.9	534.0	538.5	573.1	623.9	678.4	703.8	703.7	657.6	590.6	513.7	457.3	416.3	387.2	357.9	327.1	295.4	269.7	268.1	250.6	169.9	124.4	97.39	89.05	119.1	236.2	 1330	 6965	 9714	268.3	11.96	5.463	4.478	3.781	3.116	2.837	2.646	2.549	2.525	2.773	2.615	2.750	3.002	3.053	2.705	2.678	3.124	2.929	3.131	3.121	3.038	3.478	3.217	3.513	3.554	3.550	3.685	3.836	4.072	4.074	4.457	4.459	4.382	4.545	4.718	4.628	4.457	4.452	4.367	4.164	3.935	3.949
390.0	604.6	651.3	638.2	588.7	551.6	529.3	533.3	539.4	555.9	595.7	636.1	659.0	659.0	620.8	564.1	503.0	454.4	421.1	396.2	369.7	343.0	314.4	287.2	265.3	254.0	224.4	160.6	116.8	93.83	82.89	94.82	326.6	 1783	 5858	 7583	 2937	18.59	5.811	4.405	3.778	3.151	2.869	2.805	2.710	2.723	2.720	2.696	2.990	2.988	2.693	2.649	2.999	3.117	3.222	3.184	3.255	3.346	3.455	3.443	3.371	3.561	3.647	3.571	3.833	4.026	4.090	4.186	4.139	4.328	4.363	4.475	4.402	4.281	4.187	3.962	4.001	3.786
395.0	581.0	625.5	611.3	584.3	555.9	544.0	541.1	532.6	545.2	571.3	599.2	628.0	619.2	587.4	541.4	485.5	450.9	420.7	400.9	378.9	355.9	327.5	300.5	275.9	250.0	240.6	216.0	150.8	112.9	92.74	77.43	113.2	424.4	 1341	 3273	 9236	 1870	23.55	6.169	4.413	3.694	3.083	2.940	2.882	2.715	2.880	2.779	2.924	2.983	2.745	2.661	3.231	3.154	3.310	3.216	3.184	3.481	3.272	3.471	3.412	3.720	3.639	3.591	3.719	3.899	3.762	3.950	4.115	3.933	4.376	4.279	4.198	4.233	3.867	4.067	3.780	3.895
400.0	537.1	603.2	596.0	579.1	566.6	549.8	537.1	530.0	541.3	557.7	579.8	596.9	590.4	567.5	525.7	474.9	443.4	420.3	399.2	381.2	359.9	335.6	312.1	286.8	254.9	237.3	237.0	190.5	134.5	106.3	83.05	73.85	128.9	323.8	793.3	 4814	 8587	 1494	16.64	5.316	4.166	3.541	3.200	2.955	2.832	2.914	2.723	2.850	3.020	2.539	2.738	2.988	3.067	3.211	3.253	3.200	3.476	3.292	3.494	3.370	3.683	3.553	3.532	3.699	3.688	3.741	3.863	3.654	4.011	4.029	4.096	4.027	4.023	3.910	3.773	3.967	3.913
405.0	546.0	595.2	599.2	579.7	556.5	556.1	548.6	532.7	532.9	537.8	564.5	574.9	566.8	547.9	509.8	456.9	437.8	414.6	398.9	380.9	362.2	341.4	319.4	293.2	266.1	238.2	230.0	222.3	162.1	120.3	95.21	73.43	70.53	102.1	199.4	 1236	 5801	 7554	232.0	9.934	4.724	4.010	3.455	3.158	2.979	2.857	2.875	2.920	3.109	2.712	2.638	3.185	3.106	3.230	3.125	3.318	3.514	3.493	3.495	3.440	3.617	3.437	3.530	3.464	3.693	3.540	3.636	3.660	3.908	4.006	4.055	3.906	3.977	3.858	3.639	3.619	4.008
410.0	528.3	579.0	586.7	572.8	562.9	554.9	544.2	534.1	525.7	534.5	552.8	559.1	546.4	524.3	486.4	446.2	422.4	405.0	393.3	376.0	361.0	342.8	322.4	300.9	276.8	251.8	228.4	222.8	205.1	153.7	114.0	87.93	68.90	61.27	73.10	297.0	 1487	 4844	 6234	947.0	16.15	5.046	4.018	3.582	3.121	2.953	2.846	3.018	2.910	2.726	2.684	3.107	3.134	3.279	3.206	3.334	3.556	3.501	3.604	3.435	3.507	3.496	3.472	3.460	3.492	3.474	3.597	3.566	3.611	3.790	3.779	3.811	3.821	3.684	3.575	3.584	3.900
415.0	491.6	551.4	571.4	567.7	553.2	553.3	549.8	531.8	520.9	527.8	539.5	539.7	525.4	497.9	463.7	426.1	401.3	388.2	375.1	365.1	348.9	338.4	322.5	302.6	283.1	261.3	238.6	219.1	213.6	197.6	142.5	105.6	80.34	62.03	52.06	92.48	350.7	 1109	 2943	 6755	 1588	20.34	5.085	4.029	3.419	3.084	2.720	3.063	2.753	2.770	2.711	3.169	3.158	3.210	3.394	3.431	3.584	3.537	3.563	3.631	3.455	3.431	3.567	3.435	3.516	3.525	3.388	3.519	3.471	3.666	3.709	3.686	3.672	3.634	3.498	3.532	3.468
420.0	499.7	541.4	550.2	556.0	554.7	564.1	548.0	530.3	519.0	525.4	538.0	525.8	508.7	481.0	444.8	410.3	387.0	372.6	364.7	354.2	344.2	331.0	318.1	303.4	284.2	263.9	244.9	225.2	208.1	211.0	174.0	120.7	89.43	68.14	52.57	51.20	101.4	264.3	717.5	 3816	 6729	 1234	14.32	4.558	3.835	3.442	2.956	3.031	2.877	2.765	2.694	3.092	3.153	3.240	3.333	3.509	3.569	3.458	3.511	3.615	3.519	3.530	3.616	3.446	3.551	3.497	3.500	3.533	3.293	3.445	3.630	3.742	3.444	3.403	3.333	3.559	3.412
425.0	475.5	525.0	548.0	555.4	553.5	551.7	546.2	532.8	533.0	523.9	531.4	519.0	496.7	468.9	430.9	398.9	375.9	361.7	355.1	345.2	335.7	326.4	314.8	304.0	286.5	270.0	249.7	230.6	210.6	203.2	193.1	142.3	99.61	75.59	56.86	46.37	49.21	78.43	175.0	 1004	 4936	 5740	210.3	7.575	4.387	3.774	3.410	3.071	3.032	2.783	2.671	3.194	2.944	3.207	3.318	3.482	3.515	3.535	3.420	3.685	3.571	3.542	3.401	3.544	3.444	3.465	3.445	3.353	3.242	3.492	3.485	3.492	3.400	3.219	3.377	3.224	3.337
430.0	484.0	497.2	530.2	545.9	546.7	548.4	540.2	542.9	532.1	527.1	528.6	511.9	484.9	454.5	412.8	380.7	360.9	348.6	339.6	330.9	324.7	315.3	307.0	299.9	285.4	272.0	254.5	238.0	219.8	202.6	191.5	170.6	123.0	87.49	67.29	51.63	43.22	41.56	56.98	237.9	 1303	 3946	 4842	857.7	14.44	4.525	3.816	3.385	3.141	2.786	2.782	3.162	3.163	3.199	3.259	3.347	3.604	3.580	3.555	3.601	3.512	3.471	3.413	3.591	3.335	3.641	3.421	3.340	3.334	3.333	3.258	3.335	3.254	3.136	3.297	3.169	3.180
435.0	765.2	462.2	518.5	529.2	542.2	550.5	539.4	544.9	532.6	531.9	530.3	508.2	472.6	434.3	396.4	363.9	343.2	333.7	322.8	316.6	308.5	303.3	296.2	292.6	283.4	269.2	255.9	244.0	226.6	210.3	187.6	172.6	151.2	106.8	78.35	61.38	48.28	38.09	35.39	69.67	302.9	904.3	 2449	 5866	 1444	17.49	4.621	3.842	3.441	3.066	2.834	3.253	3.278	3.370	3.178	3.244	3.610	3.617	3.641	3.626	3.682	3.590	3.529	3.434	3.392	3.574	3.327	3.370	3.391	3.299	3.222	3.061	3.031	3.157	3.175	3.174	3.085
440.0	 1453	476.6	495.6	521.0	539.7	538.5	541.4	537.1	535.6	538.6	520.1	506.3	458.6	423.4	381.3	349.9	328.1	320.5	311.9	305.9	299.0	294.0	288.4	285.4	276.6	267.4	257.1	242.5	229.8	212.5	191.4	167.9	157.8	125.3	87.66	67.23	52.76	41.01	33.18	34.54	82.00	213.0	608.6	 3712	 6119	215.0	10.10	4.480	3.771	3.240	3.127	3.389	3.271	3.507	3.240	3.388	3.732	3.703	3.663	3.504	3.656	3.685	3.618	3.315	3.516	3.495	3.432	3.372	3.417	3.245	3.287	3.224	3.131	3.103	3.076	3.191	3.116
445.0	 2377	589.0	487.6	505.5	520.2	524.6	530.5	529.6	532.7	533.2	517.2	495.4	450.6	409.3	367.1	335.9	314.3	306.3	297.9	295.3	285.0	283.6	280.2	277.9	268.5	261.8	252.4	241.5	228.7	213.3	191.6	166.1	149.6	137.5	99.30	72.89	57.20	45.12	35.51	28.71	34.71	60.56	146.7	 1030	 5061	 4659	162.1	6.389	4.092	3.500	3.145	3.391	3.220	3.183	3.252	3.552	3.651	3.623	3.781	3.690	3.715	3.693	3.507	3.484	3.498	3.530	3.231	3.246	3.439	3.174	3.178	3.056	3.069	3.008	3.102	3.023	2.899
450.0	 2645	 1394	509.7	482.3	494.8	509.0	522.6	520.7	522.2	515.7	502.9	476.8	430.7	389.0	349.3	314.5	297.1	286.6	278.5	274.0	268.4	268.5	266.1	263.0	258.0	249.8	242.9	233.0	224.3	211.3	190.8	166.9	144.5	130.0	113.9	84.69	62.90	49.24	39.88	31.29	27.08	28.46	44.65	240.4	 1364	 3783	 4443	746.8	11.85	4.131	3.352	3.615	3.438	3.246	3.266	3.350	3.469	3.718	3.589	3.516	3.576	3.496	3.607	3.554	3.467	3.429	3.225	3.184	3.271	3.129	2.999	3.065	2.861	2.945	2.952	2.783	2.933
455.0	 1547	 2581	782.1	449.7	473.3	489.1	497.8	494.7	500.3	495.2	479.9	450.3	403.7	364.8	326.1	296.9	277.1	266.3	257.9	253.0	250.9	249.3	246.2	245.1	240.9	236.1	228.5	222.1	215.9	203.5	186.7	166.2	141.1	120.9	110.8	97.69	72.21	53.76	42.94	34.99	27.89	24.16	23.93	64.38	312.8	872.4	 2359	 5216	 1170	13.59	4.038	3.894	3.619	3.204	3.317	3.359	3.386	3.421	3.603	3.379	3.498	3.426	3.462	3.285	3.230	3.246	3.156	3.114	3.235	3.019	2.785	2.875	2.805	2.561	2.737	2.559	2.891
460.0	736.0	 2739	 1590	459.4	444.1	457.5	462.1	477.6	485.2	469.2	459.8	435.5	384.4	343.8	304.7	276.4	257.3	250.0	240.5	236.3	235.2	233.8	231.1	231.1	227.9	222.3	215.9	212.5	207.0	195.9	181.6	162.3	138.7	117.3	102.9	98.49	81.02	57.44	45.13	36.50	30.09	24.07	20.36	26.34	79.54	202.6	582.8	 3302	 4924	166.7	9.566	4.270	3.785	3.352	3.422	3.321	3.436	3.307	3.353	3.307	3.558	3.309	3.287	3.118	3.083	3.138	3.121	3.004	3.001	2.772	2.700	2.796	2.791	2.516	2.669	2.542	2.615
465.0	420.0	 1977	 2596	582.7	418.7	432.1	448.9	455.0	466.0	448.5	439.4	405.7	364.7	326.1	286.1	260.6	244.2	235.1	224.7	222.5	219.7	219.8	214.6	217.8	213.8	211.3	206.6	200.7	197.3	189.0	173.7	156.2	133.8	116.7	98.41	91.29	85.55	63.10	47.46	38.72	31.46	24.93	20.70	18.47	28.40	54.02	138.2	906.7	 4161	 3732	139.3	5.577	3.722	3.626	3.480	3.233	3.345	3.341	3.350	3.302	3.400	3.180	3.433	3.017	3.001	3.096	2.927	2.854	2.933	2.778	2.586	2.661	2.547	2.485	2.448	2.584	2.490
470.0	331.9	856.1	 2701	 1602	432.2	398.4	418.0	421.7	421.9	421.7	407.1	381.5	337.3	300.4	263.0	238.6	220.4	212.4	203.0	202.7	198.7	197.6	196.8	196.6	193.9	191.3	188.0	186.0	180.2	175.2	161.1	145.5	127.0	110.4	94.21	82.99	78.09	69.39	53.31	40.13	32.71	26.50	21.50	18.32	18.12	21.53	38.89	209.9	 1131	 2993	 3393	693.2	11.72	4.225	3.578	3.448	3.444	3.211	3.044	3.085	3.287	3.114	3.271	3.053	2.847	2.896	2.851	2.645	2.675	2.589	2.486	2.459	2.449	2.438	2.373	2.459	2.252
475.0	287.5	417.0	 1419	 2814	803.4	365.9	380.5	388.4	393.3	392.8	374.9	355.1	309.3	272.7	237.5	215.5	199.5	192.3	183.7	181.9	179.5	178.5	177.1	178.3	172.9	172.0	170.1	167.8	163.9	159.4	148.2	133.7	117.3	103.7	89.32	78.30	69.19	65.62	58.99	43.68	34.12	27.92	22.51	19.24	16.32	15.02	17.28	53.70	258.0	685.4	 1680	 3770	 1044	14.53	3.914	3.490	3.297	3.009	3.112	2.897	2.977	2.877	2.832	2.822	2.750	2.619	2.728	2.628	2.488	2.555	2.257	2.405	2.279	2.264	2.275	2.223	2.153
480.0	269.5	296.8	639.4	 2740	 1661	364.9	355.8	367.9	371.2	363.7	354.4	328.3	290.3	256.8	219.5	198.2	185.5	177.6	172.9	167.7	166.1	162.8	164.5	163.8	159.9	158.7	156.8	153.5	153.3	148.7	139.5	126.9	112.0	98.82	86.34	75.57	65.24	59.42	58.06	48.03	35.63	28.21	23.62	19.50	16.59	14.27	12.96	19.73	63.92	158.3	411.6	 2178	 3632	192.6	9.631	3.740	3.335	3.121	3.025	2.850	2.932	2.876	2.878	2.796	2.668	2.423	2.613	2.460	2.462	2.383	2.178	2.398	2.212	2.296	2.116	1.981	1.864
485.0	272.1	266.6	369.3	 1774	 2666	555.9	330.9	338.0	348.4	345.0	331.5	308.1	273.9	239.5	207.4	186.5	171.4	165.0	158.8	156.8	154.0	151.9	150.8	151.7	149.3	148.2	145.2	143.4	143.0	139.4	132.0	121.0	105.0	94.65	83.67	72.34	63.84	55.62	52.72	50.44	38.86	29.35	23.81	20.22	17.17	14.92	12.62	12.49	21.06	41.05	97.12	573.2	 2880	 3124	161.9	5.718	3.577	3.255	2.930	2.943	2.854	2.667	2.852	2.780	2.580	2.530	2.450	2.463	2.444	2.536	2.164	2.193	2.056	2.029	1.935	1.870	1.957
490.0	241.0	254.8	277.2	723.3	 2614	 1618	341.2	314.4	319.3	316.2	304.7	282.4	248.9	219.9	190.0	170.0	158.7	151.7	144.2	141.2	139.0	138.1	137.1	136.4	134.4	133.4	130.2	130.2	129.5	126.8	120.7	110.6	98.10	87.02	77.84	68.34	60.34	52.36	47.23	45.82	42.54	32.19	24.62	20.58	17.72	15.26	12.90	11.42	11.84	15.14	26.96	132.7	755.6	 2202	 2363	726.1	12.59	3.716	3.248	2.966	2.886	2.729	2.734	2.555	2.485	2.397	2.364	2.279	2.321	2.260	2.166	2.098	1.976	1.921	1.985	1.902	1.889
495.0	205.4	236.9	233.1	345.1	 1300	 2783	765.5	287.8	293.3	286.2	275.2	258.0	227.5	197.0	172.9	154.1	142.4	135.2	128.1	126.4	125.6	121.9	121.6	121.1	118.2	119.3	117.1	115.7	115.2	112.1	108.1	99.11	89.48	79.87	71.11	63.55	56.41	49.78	43.93	40.04	39.40	35.77	26.68	21.08	17.89	15.71	13.22	11.64	10.17	9.897	11.67	34.41	172.6	503.9	 1383	 3589	 1140	15.43	3.611	3.332	2.701	2.754	2.444	2.547	2.367	2.247	2.074	2.005	2.137	2.033	1.916	1.955	1.954	1.857	1.739	1.760	1.706
500.0	182.2	215.3	227.7	247.4	541.4	 2596	 1693	293.1	271.6	267.4	253.9	237.4	210.6	181.5	157.5	140.7	130.8	122.2	116.8	114.2	113.9	110.6	110.1	110.3	108.6	107.1	106.5	105.2	104.4	101.9	97.47	91.00	82.82	74.06	65.58	59.51	53.21	47.01	41.45	37.00	35.02	35.46	29.38	21.81	17.96	15.46	13.43	11.75	9.970	8.948	8.331	12.61	42.71	116.5	339.7	 2023	 3499	209.0	10.43	3.198	2.795	2.654	2.544	2.585	2.330	2.169	2.013	2.052	2.092	2.078	1.748	1.866	1.988	1.732	1.627	1.765	1.638
505.0	170.1	191.8	220.0	208.9	285.6	 1593	 2633	511.0	244.6	248.1	234.3	216.0	191.3	167.1	144.8	128.8	119.3	112.1	107.8	104.5	103.6	102.5	99.65	99.55	100.1	96.04	95.55	94.76	94.72	93.74	89.43	83.47	75.93	68.10	61.17	55.71	49.15	43.54	39.19	34.94	31.26	31.67	30.61	23.68	18.45	15.70	13.42	12.06	9.980	8.916	7.647	7.626	13.95	30.25	79.98	524.4	 2550	 2895	181.8	5.136	2.908	2.581	2.443	2.454	2.261	2.021	2.090	2.042	1.964	1.931	1.740	1.717	1.769	1.561	1.647	1.715	1.609
510.0	156.9	167.2	203.2	195.0	204.1	606.9	 2366	 1629	255.9	217.4	210.7	196.1	169.9	148.0	128.0	114.4	105.0	97.85	96.23	92.34	90.77	89.61	88.30	87.62	86.82	83.78	83.43	83.37	82.85	81.55	78.39	74.12	66.90	60.11	54.49	49.28	44.59	39.97	35.70	32.48	28.77	26.78	26.78	25.39	19.98	15.74	13.11	11.81	9.964	8.626	7.685	6.911	7.512	10.92	21.75	120.8	655.7	 1886	 2066	738.5	12.78	2.900	2.504	2.367	2.173	1.973	1.935	1.964	1.854	1.736	1.676	1.595	1.604	1.493	1.572	1.609	1.541
515.0	142.5	145.7	163.5	185.0	171.6	266.4	 1047	 2675	824.8	193.6	186.7	171.3	148.5	130.6	112.7	99.37	92.71	86.08	82.49	78.84	78.45	76.32	75.62	75.11	73.95	72.71	72.23	72.04	70.88	70.92	67.76	63.90	58.44	52.96	47.34	43.58	39.94	35.62	32.81	29.43	26.78	23.92	22.49	22.71	21.50	16.38	12.90	11.77	10.04	8.479	7.689	6.629	6.139	6.399	8.500	30.28	149.3	427.6	970.0	 2714	 1092	15.66	2.913	2.443	2.144	2.039	1.910	1.782	1.660	1.641	1.550	1.473	1.477	1.421	1.513	1.339	1.482
520.0	129.1	128.3	138.4	163.8	161.6	175.6	408.2	 2305	 1770	212.2	164.9	154.5	133.7	118.3	101.1	88.96	82.81	77.92	74.34	71.72	70.54	67.79	66.23	67.85	66.75	64.99	63.85	64.57	63.33	62.57	61.21	56.76	52.41	48.15	43.38	40.08	35.82	32.77	30.02	27.73	24.44	21.97	19.90	19.13	21.07	17.83	12.99	11.17	9.605	8.260	7.307	6.745	5.833	5.375	5.588	10.08	36.34	98.36	232.8	 1434	 2667	212.4	10.43	2.750	2.084	1.980	1.775	1.654	1.445	1.657	1.451	1.488	1.422	1.361	1.362	1.268	1.439
525.0	113.8	117.1	120.4	149.5	157.0	144.3	207.2	 1298	 2743	566.8	154.6	137.5	123.5	106.3	89.79	79.12	75.13	70.66	66.27	64.62	62.64	62.40	60.79	60.92	59.30	58.54	56.81	57.35	57.33	56.54	55.06	51.14	46.94	43.49	39.41	36.28	33.34	29.64	28.05	25.53	22.47	20.64	18.62	16.98	18.99	18.88	13.92	10.78	9.046	8.105	6.965	6.574	5.696	5.112	4.852	5.473	11.09	24.83	54.95	362.8	 1748	 1759	183.6	4.077	2.204	2.063	1.854	1.686	1.400	1.620	1.408	1.408	1.377	1.258	1.325	1.302	1.343
530.0	102.3	103.8	107.5	119.1	142.1	131.2	141.7	458.3	 2212	 1931	176.7	124.1	108.1	93.99	79.29	69.89	65.70	61.34	58.20	55.95	54.67	53.78	53.42	52.10	51.18	50.93	50.06	49.81	49.42	48.89	47.88	44.03	41.47	37.81	34.72	32.13	29.45	26.49	24.39	22.81	20.46	18.93	16.81	15.59	15.26	16.20	14.79	11.44	8.557	7.801	6.701	6.036	5.186	5.026	4.466	4.370	5.449	8.362	14.96	83.42	437.8	 1237	 1731	656.7	12.02	2.102	1.903	1.611	1.506	1.572	1.342	1.375	1.257	1.244	1.233	1.268	1.218
535.0	99.41	93.83	93.98	97.88	125.9	125.9	116.7	191.4	862.7	 2775	919.9	111.3	94.03	82.36	69.34	61.29	56.98	53.30	50.30	48.22	47.74	45.93	45.54	44.96	43.75	42.88	43.36	42.03	42.26	42.30	40.70	38.20	35.79	33.05	29.86	28.20	25.69	23.79	21.44	19.94	18.46	17.09	15.42	14.12	12.91	13.20	13.39	12.76	9.106	7.410	6.481	5.549	4.883	4.644	4.330	4.066	4.080	4.494	5.693	20.92	99.71	280.1	707.0	 1996	863.2	15.00	2.195	1.676	1.476	1.410	1.402	1.194	1.181	1.254	1.220	1.190	1.225
540.0	87.64	79.90	85.30	90.47	101.8	116.2	105.1	118.7	306.1	 2134	 1900	150.4	86.34	73.72	63.09	54.80	51.34	47.03	45.27	43.29	42.49	41.09	40.62	40.57	39.24	38.05	37.79	37.33	37.88	37.18	35.82	34.28	31.33	29.27	27.35	24.87	23.23	21.55	19.37	18.28	17.00	15.18	14.24	13.14	11.95	11.53	11.34	12.42	9.954	7.553	6.224	5.314	4.797	4.450	4.006	4.046	3.683	3.484	3.730	7.005	24.31	64.65	166.5	984.4	 1898	215.1	8.339	1.848	1.529	1.401	1.376	1.182	1.118	1.141	1.062	1.081	1.122
545.0	77.95	77.26	77.56	80.18	86.58	106.9	100.8	99.59	144.3	 1106	 2459	562.0	76.95	65.41	56.54	50.58	45.71	43.30	40.24	39.15	37.63	36.72	36.41	35.96	35.13	34.13	34.25	33.41	33.89	34.07	32.45	30.03	28.18	26.05	24.02	22.31	21.03	19.98	17.90	16.96	15.40	14.32	13.45	12.39	11.04	10.38	9.741	10.82	10.14	7.786	5.873	5.158	4.600	4.426	3.873	3.855	3.475	3.199	2.946	3.784	7.369	16.40	39.29	245.0	 1187	 1577	171.0	3.367	1.528	1.432	1.381	1.195	1.244	1.130	1.120	1.032	1.150
550.0	77.21	73.81	70.28	72.49	73.30	88.38	97.94	87.11	97.35	364.9	 1674	 1585	116.4	57.60	49.13	43.46	40.03	37.55	35.13	34.10	32.19	32.10	31.38	30.59	29.97	29.77	29.19	28.64	29.04	28.89	27.95	26.26	24.63	22.50	20.63	19.59	18.24	17.39	15.76	14.75	13.29	12.57	11.74	10.89	9.907	9.156	8.586	8.402	8.924	8.036	6.293	4.872	4.293	3.923	3.666	3.439	3.369	3.008	2.856	2.743	3.498	5.403	10.61	56.43	294.4	913.4	 1260	488.8	11.16	1.635	1.399	1.237	1.238	1.083	1.118	1.036	1.054
555.0	71.41	66.86	64.53	67.36	65.05	73.45	89.15	86.19	79.98	142.9	592.4	 1928	867.5	53.32	42.14	36.42	34.92	32.08	30.15	29.26	27.01	26.81	26.09	25.71	25.50	24.35	24.20	23.90	24.57	24.66	23.36	22.13	20.79	19.06	17.57	16.58	15.46	14.33	13.43	12.86	11.66	10.45	10.22	9.383	8.467	8.034	7.423	6.957	6.804	7.408	6.669	4.795	3.961	3.611	3.522	3.184	2.973	2.939	2.917	2.403	2.396	2.898	3.968	14.09	67.00	206.1	479.7	 1336	234.1	14.59	1.474	1.225	1.247	1.133	1.033	0.943	1.020
560.0	65.19	62.36	59.39	59.94	58.92	64.65	78.11	84.02	75.50	90.08	201.1	 1306	 1694	102.8	36.38	32.92	29.22	27.53	26.12	24.61	23.56	23.29	22.56	22.59	21.64	21.47	20.95	20.72	21.18	21.10	20.59	18.96	18.06	16.94	15.23	14.62	13.45	12.89	11.69	11.04	9.988	9.374	8.895	8.248	7.641	6.940	6.598	5.916	5.538	6.144	6.341	5.237	3.821	3.377	3.068	2.851	2.782	2.662	2.604	2.369	2.221	2.223	2.369	4.670	16.42	47.42	112.3	625.5	 1232	211.8	6.636	1.327	1.110	1.074	1.017	1.059	1.001
565.0	72.16	57.81	54.26	53.57	56.53	57.46	63.76	79.15	70.64	70.65	96.85	612.5	 1923	552.2	33.78	28.89	24.76	24.12	22.74	21.51	20.99	20.32	19.85	19.48	19.03	18.60	18.21	17.84	18.07	18.25	17.67	16.77	15.35	14.46	13.24	12.65	11.82	11.27	10.31	9.699	8.854	8.070	7.796	7.269	6.635	6.459	5.938	5.241	4.953	4.899	5.612	5.253	3.821	3.110	2.829	2.628	2.666	2.510	2.349	2.316	2.020	1.893	2.021	2.360	5.025	11.96	26.53	152.8	756.5	 1099	31.36	2.383	1.187	1.091	1.050	1.049	1.002
570.0	70.59	58.96	51.37	49.09	52.81	50.46	54.99	67.42	70.24	63.70	69.92	201.4	 1150	 1380	181.6	24.43	21.18	19.62	18.36	18.09	17.11	16.45	16.24	15.79	15.09	15.25	14.64	14.54	14.42	14.85	14.14	13.52	12.43	11.68	10.87	10.37	9.776	8.998	8.742	7.806	7.344	7.051	6.529	6.103	5.574	5.353	4.986	4.475	4.269	3.852	3.991	4.419	3.850	3.096	2.531	2.398	2.311	2.206	2.094	2.012	1.936	1.837	1.811	1.689	2.439	3.943	7.169	35.35	185.4	594.2	772.9	289.8	9.673	1.111	1.026	1.051	0.967
575.0	61.73	60.72	51.56	47.80	46.35	46.49	47.62	54.85	64.87	63.79	61.20	89.11	373.7	 1332	753.5	25.66	16.96	15.38	15.11	14.52	13.87	13.39	12.78	12.57	12.32	11.86	11.67	11.41	11.42	11.63	11.46	10.71	9.488	9.068	8.700	8.310	7.633	7.061	6.987	6.267	5.892	5.605	5.434	5.029	4.409	4.352	3.873	3.611	3.498	3.128	2.969	3.241	3.515	3.083	2.505	2.153	2.109	1.950	1.873	1.869	1.734	1.778	1.687	1.626	1.692	2.177	2.726	9.008	42.33	134.0	286.0	759.8	223.3	10.31	1.225	1.026	0.940
580.0	62.95	59.70	50.19	46.86	43.04	43.03	45.75	49.16	59.52	66.10	60.13	63.56	122.7	800.0	 1406	77.44	14.70	13.23	12.26	12.29	11.27	11.17	10.75	10.56	10.62	10.14	9.452	9.787	9.786	9.511	9.249	8.666	8.207	7.828	7.385	6.925	6.253	5.925	5.769	5.319	4.930	4.764	4.700	4.206	3.874	3.927	3.400	3.228	3.003	2.747	2.475	2.505	2.944	2.961	2.533	2.067	1.861	1.825	1.702	1.540	1.474	1.529	1.638	1.594	1.470	1.611	1.719	3.113	10.47	30.90	67.11	355.6	705.3	167.0	3.308	0.980	0.905
585.0	69.81	58.00	52.10	43.74	42.20	43.11	43.92	42.95	53.95	68.43	59.74	59.47	60.67	346.5	 1383	514.2	14.12	12.22	11.30	10.40	10.07	9.911	9.086	8.848	9.158	8.745	8.322	8.391	8.410	8.179	7.747	7.506	7.348	6.820	6.373	6.046	5.624	5.159	4.636	4.739	4.322	4.122	4.097	3.521	3.460	3.309	3.028	2.764	2.660	2.349	2.212	2.124	2.374	2.699	2.649	1.985	1.723	1.643	1.636	1.425	1.490	1.374	1.442	1.614	1.369	1.402	1.263	1.741	3.329	7.799	15.98	87.43	434.2	580.8	29.86	1.508	0.967
590.0	67.96	59.63	48.39	41.94	38.75	38.21	37.97	40.20	47.17	63.83	62.12	56.40	47.58	109.6	712.3	 1094	156.9	10.17	9.762	8.941	8.031	7.964	7.508	7.231	7.416	7.198	6.963	6.765	6.773	7.003	6.465	6.293	5.958	5.401	5.302	4.771	4.715	4.558	4.038	3.858	3.743	3.498	3.423	3.083	3.107	2.858	2.602	2.430	2.240	2.062	1.943	1.907	1.847	2.056	2.397	2.031	1.696	1.525	1.442	1.347	1.334	1.337	1.359	1.520	1.430	1.337	1.275	1.315	1.660	2.613	4.514	20.37	107.1	315.3	403.5	126.6	7.711
595.0	58.32	60.60	47.46	40.36	36.39	35.72	35.38	36.40	42.45	55.95	66.72	57.74	47.02	47.69	208.7	866.3	601.6	14.92	8.226	6.990	6.793	6.710	6.117	6.231	6.222	5.994	5.516	5.647	5.720	5.499	5.372	5.231	4.617	4.659	4.119	3.997	3.768	3.794	3.475	3.296	3.118	3.138	2.802	2.646	2.583	2.360	2.204	2.045	1.885	1.824	1.640	1.725	1.647	1.731	1.830	1.914	1.789	1.329	1.262	1.249	1.204	1.343	1.313	1.323	1.304	1.343	1.184	1.250	1.241	1.477	1.840	5.402	24.58	71.46	153.2	414.3	180.8
600.0	63.40	60.13	49.99	37.30	33.72	33.42	33.39	36.39	40.34	50.16	64.85	58.53	45.88	35.34	63.87	458.8	 1058	62.66	7.557	6.721	5.910	5.746	5.478	5.641	5.498	5.276	4.988	4.854	5.045	4.770	4.753	4.571	4.061	4.036	3.657	3.359	3.370	3.211	3.051	2.950	2.763	2.701	2.427	2.508	2.325	2.103	2.088	1.882	1.696	1.657	1.390	1.431	1.424	1.434	1.448	1.704	1.938	1.389	1.248	1.173	1.200	1.144	1.198	1.181	1.174	1.385	1.178	1.098	1.143	1.131	1.301	2.005	6.309	16.68	36.14	199.4	401.9
605.0	70.06	63.45	49.32	36.45	34.11	31.02	33.84	33.89	38.80	45.56	59.91	61.24	47.68	33.36	30.48	177.6	938.7	435.0	7.684	6.443	5.519	5.347	5.315	4.766	4.711	4.455	4.494	4.244	4.338	4.325	4.225	4.011	3.709	3.516	3.312	3.298	3.048	2.898	2.793	2.600	2.476	2.342	2.315	2.157	2.032	1.977	2.034	1.756	1.608	1.411	1.279	1.344	1.249	1.238	1.262	1.501	1.688	1.475	1.207	1.137	1.074	1.066	1.180	1.136	1.143	1.194	1.234	1.138	1.156	1.089	1.200	1.255	2.200	4.536	8.812	49.60	245.0
610.0	68.81	64.22	48.08	36.00	32.33	30.56	31.92	32.14	38.28	44.26	54.69	61.27	48.63	33.42	22.81	52.76	430.4	857.4	144.6	5.835	4.785	4.550	4.426	4.262	4.174	3.781	3.720	3.717	3.711	3.779	3.579	3.413	3.164	2.923	2.896	2.863	2.686	2.513	2.479	2.254	2.129	2.034	2.020	1.934	1.802	1.801	1.757	1.617	1.358	1.231	1.198	1.185	1.155	1.244	1.163	1.205	1.397	1.512	1.314	1.163	1.017	1.098	1.104	1.081	1.133	1.131	1.153	1.154	1.171	1.066	1.029	0.969	1.286	1.718	2.650	11.78	60.78
615.0	70.48	62.73	47.44	36.31	29.91	30.17	29.41	30.16	37.91	41.48	49.06	58.97	51.08	32.66	22.11	22.08	118.3	596.8	509.0	12.92	4.455	4.036	3.897	3.455	3.687	3.316	3.407	3.041	3.195	3.045	2.990	2.901	2.907	2.516	2.628	2.380	2.381	2.081	2.178	1.930	1.860	1.696	1.719	1.712	1.565	1.541	1.504	1.370	1.241	1.075	1.111	1.091	1.042	1.065	1.087	1.053	1.210	1.262	1.331	1.222	1.019	1.007	1.038	1.082	1.037	1.093	1.109	1.041	1.104	1.066	1.006	1.002	1.047	0.972	1.256	3.292	14.25
620.0	64.97	56.65	43.93	35.33	31.30	27.58	28.88	28.36	35.92	41.36	47.47	53.53	51.54	33.48	21.68	14.69	33.90	282.7	848.4	56.00	4.340	3.782	3.669	3.288	3.146	2.969	3.116	2.893	2.681	2.828	2.810	2.629	2.625	2.352	2.433	2.092	2.100	1.956	1.911	1.748	1.722	1.677	1.739	1.495	1.393	1.458	1.343	1.397	1.233	0.989	0.957	1.000	0.998	1.101	0.991	0.934	1.168	1.204	1.202	1.266	1.006	0.992	1.042	1.074	1.017	1.009	0.921	1.035	1.112	1.056	1.013	0.888	0.898	0.885	0.948	1.327	3.800
625.0	65.74	59.47	42.29	32.41	29.03	26.07	27.78	28.78	32.94	38.28	46.19	51.15	49.63	35.92	22.25	13.37	14.56	100.9	687.6	409.7	5.288	3.658	3.557	3.148	3.001	2.755	2.650	2.679	2.398	2.593	2.468	2.382	2.263	2.263	2.231	2.026	1.897	1.715	1.745	1.760	1.511	1.557	1.574	1.391	1.497	1.354	1.212	1.310	1.129	0.991	0.911	0.941	0.917	0.896	0.974	0.903	0.953	0.958	1.144	1.235	1.119	1.021	0.977	1.030	0.940	1.047	0.938	1.083	1.040	1.023	0.921	0.903	0.781	0.837	0.892	0.916	1.506
630.0	65.06	60.25	41.98	30.51	27.12	25.43	26.20	29.27	31.65	37.57	44.50	47.98	47.18	39.26	23.35	13.50	10.29	28.74	282.4	731.5	135.3	3.677	3.116	2.836	2.683	2.380	2.425	2.380	2.463	2.386	2.187	2.207	2.088	2.030	1.817	1.783	1.699	1.741	1.581	1.499	1.437	1.402	1.311	1.297	1.331	1.209	1.134	1.150	1.042	0.954	0.857	0.854	0.858	0.834	0.882	0.880	0.895	0.865	0.947	1.013	1.041	1.016	0.927	1.006	1.015	0.947	0.938	0.981	1.017	0.969	0.962	0.934	0.893	0.848	0.826	0.806	0.953
635.0	64.55	62.09	42.66	33.04	25.74	24.09	25.58	28.37	31.72	36.53	43.52	45.80	44.49	39.30	25.77	14.63	9.494	10.94	73.04	441.3	556.7	10.71	2.926	2.717	2.512	2.403	2.257	2.155	2.297	2.298	2.097	2.013	1.814	1.805	1.748	1.606	1.571	1.559	1.401	1.336	1.330	1.318	1.254	1.091	1.236	1.121	1.067	1.103	1.026	0.838	0.724	0.874	0.842	0.825	0.790	0.755	0.809	0.852	0.941	0.906	0.906	0.901	1.022	0.996	0.847	0.919	0.904	0.921	0.929	0.902	0.959	0.939	0.840	0.807	0.861	0.770	0.831
640.0	60.73	60.70	42.62	30.93	23.83	22.41	25.20	26.98	29.32	36.55	41.98	44.75	42.87	37.85	28.01	15.19	9.083	7.225	20.08	186.0	728.8	50.57	2.776	2.478	2.354	2.252	2.205	2.118	1.910	2.094	1.955	1.729	1.678	1.660	1.643	1.586	1.482	1.450	1.446	1.332	1.261	1.235	1.198	1.066	1.110	1.002	1.104	1.082	0.923	0.826	0.703	0.755	0.789	0.793	0.766	0.780	0.839	0.762	0.862	0.900	0.873	0.926	0.897	0.961	0.885	0.871	0.872	0.870	0.894	0.918	0.929	0.918	0.868	0.816	0.827	0.703	0.732
645.0	67.02	58.71	42.32	29.71	24.46	24.13	23.01	27.05	29.96	36.02	41.10	42.61	40.69	34.97	29.14	16.04	9.464	6.665	8.215	60.14	534.8	360.8	4.071	2.667	2.354	2.080	2.124	1.823	1.741	1.879	1.822	1.731	1.562	1.555	1.661	1.514	1.495	1.320	1.284	1.265	1.215	1.212	1.308	1.102	0.987	1.019	0.994	1.012	1.020	0.761	0.715	0.809	0.782	0.780	0.775	0.762	0.865	0.754	0.794	0.852	0.792	0.984	0.923	0.948	0.875	0.907	0.877	0.897	0.907	0.883	0.944	0.894	0.882	0.782	0.876	0.799	0.669
650.0	71.71	55.51	44.89	28.85	23.63	21.83	22.04	25.25	29.62	33.87	41.46	40.75	40.48	33.63	27.97	16.94	9.388	6.545	5.506	17.71	252.9	635.8	31.27	2.751	2.232	2.171	1.951	1.788	1.793	1.901	1.817	1.789	1.509	1.523	1.478	1.502	1.324	1.192	1.248	1.170	1.221	1.101	1.257	1.133	0.885	0.972	0.850	0.959	0.898	0.798	0.739	0.781	0.725	0.778	0.706	0.778	0.851	0.844	0.823	0.818	0.800	0.836	0.931	0.970	0.900	0.790	0.934	0.870	0.903	0.864	0.955	0.918	0.863	0.840	0.873	0.759	0.773
