Sample:	'1
File name:	Default_20230210_153052.FD3
Run date:	'15:24:30, 02/10/2023
Operator:	dsjg
Comment:	'

Instrument
Model:	F-2700 FL Spectrophotometer
Serial number:	2198-001
ROM Version:	4J14000 07

Instrument parameters
Measurement type:	3-D scan
Data mode:	Fluorescence
EX  Start WL:	220.0 nm
EX  End WL:	600.0 nm
EX Sampling interval:	5.0 nm
EM  Start WL:	230.0 nm
EM  End WL:	650.0 nm
EM Sampling interval:	5.0 nm
Scan speed:	12000 nm/min
EX Slit:	5.0 nm
EM Slit:	5.0 nm
PMT Voltage:	700 V
Response:	Auto 
Corrected spectra:	Off
Contour interval:	50.000

Peak integration
Integration method:	Rectangular
Sensitivity:	1
Threshold:	1.000

Peaks
No.	ApexEX/EM(nm)	Height(Data)
1	225.0/615.0	23.04
2	230.0/345.0	567.9
3	235.0/370.0	626.6
4	240.0/385.0	657.5
5	240.0/400.0	670.1
6	245.0/270.0	116.1
7	250.0/445.0	937.3
8	255.0/280.0	154.7
9	265.0/580.0	48.85
10	270.0/595.0	40.31
11	275.0/305.0	458.7
12	275.0/380.0	621.2
13	275.0/610.0	35.41
14	280.0/355.0	584.1
15	280.0/385.0	618.2
16	510.0/440.0	4.689

Data points
	220.0	225.0	230.0	235.0	240.0	245.0	250.0	255.0	260.0	265.0	270.0	275.0	280.0	285.0	290.0	295.0	300.0	305.0	310.0	315.0	320.0	325.0	330.0	335.0	340.0	345.0	350.0	355.0	360.0	365.0	370.0	375.0	380.0	385.0	390.0	395.0	400.0	405.0	410.0	415.0	420.0	425.0	430.0	435.0	440.0	445.0	450.0	455.0	460.0	465.0	470.0	475.0	480.0	485.0	490.0	495.0	500.0	505.0	510.0	515.0	520.0	525.0	530.0	535.0	540.0	545.0	550.0	555.0	560.0	565.0	570.0	575.0	580.0	585.0	590.0	595.0	600.0
230.0	31.71	403.4	847.3	203.0	9.934	5.596	5.308	3.923	3.484	3.033	2.962	2.521	2.232	1.875	1.707	1.494	1.324	1.214	1.078	1.022	0.971	0.933	0.861	0.770	0.786	0.800	0.747	0.736	0.691	0.710	0.660	0.629	0.577	0.577	0.562	0.590	0.579	0.582	0.555	0.498	0.522	0.502	0.438	0.445	0.400	0.402	0.499	1.483	3.640	3.849	1.753	0.544	0.331	0.338	0.313	0.325	0.354	0.311	0.324	0.299	0.316	0.306	0.318	0.285	0.313	0.285	0.301	0.322	0.306	0.316	0.320	0.321	0.295	0.336	0.301	0.319	0.304
235.0	27.11	131.5	745.2	 1155	275.2	12.59	5.860	6.095	3.644	3.494	3.010	2.360	2.178	1.913	1.708	1.458	1.354	1.165	1.041	1.023	0.974	0.913	0.976	0.782	0.766	0.799	0.772	0.688	0.704	0.672	0.595	0.619	0.626	0.572	0.560	0.552	0.588	0.548	0.583	0.482	0.480	0.442	0.483	0.487	0.492	0.370	0.391	0.644	1.395	2.822	4.752	5.804	3.524	0.788	0.340	0.306	0.311	0.316	0.328	0.315	0.345	0.307	0.335	0.344	0.375	0.265	0.348	0.352	0.319	0.326	0.306	0.295	0.323	0.323	0.317	0.330	0.292
240.0	33.83	47.24	276.9	 1233	 1249	203.1	8.446	14.62	3.835	3.634	3.171	2.599	2.165	1.938	1.729	1.480	1.502	1.227	1.109	0.939	0.932	1.033	0.955	0.835	0.844	0.787	0.801	0.728	0.686	0.711	0.608	0.688	0.577	0.519	0.519	0.507	0.577	0.569	0.558	0.540	0.522	0.460	0.517	0.456	0.500	0.429	0.394	0.442	0.597	1.025	2.424	6.136	9.091	6.483	2.325	0.538	0.343	0.349	0.301	0.303	0.357	0.312	0.331	0.348	0.310	0.296	0.354	0.309	0.309	0.285	0.304	0.296	0.299	0.330	0.313	0.358	0.331
245.0	35.56	51.46	79.27	531.1	 1621	 1181	129.1	17.16	5.100	3.851	3.459	2.538	2.511	2.084	1.778	1.673	1.498	1.305	1.156	1.123	0.999	0.934	0.951	0.911	0.825	0.854	0.882	0.778	0.775	0.649	0.740	0.655	0.600	0.561	0.519	0.441	0.462	0.511	0.500	0.484	0.555	0.475	0.514	0.423	0.458	0.509	0.495	0.585	0.502	0.500	0.808	2.177	5.554	9.545	9.987	5.766	1.514	0.412	0.340	0.333	0.347	0.331	0.331	0.315	0.324	0.286	0.377	0.293	0.283	0.298	0.332	0.310	0.310	0.335	0.292	0.334	0.313
250.0	23.12	55.61	78.96	148.3	618.8	 1471	 1450	460.4	20.15	4.909	3.523	3.103	2.858	2.230	2.041	1.696	1.316	1.306	1.191	1.214	1.022	1.077	0.974	0.996	0.834	0.884	0.818	0.817	0.843	0.713	0.731	0.632	0.601	0.578	0.571	0.443	0.494	0.451	0.490	0.534	0.527	0.504	0.506	0.482	0.440	0.468	0.455	0.555	0.608	0.604	0.513	0.773	1.612	3.326	5.803	8.485	10.45	8.918	5.031	1.594	0.404	0.335	0.329	0.313	0.323	0.310	0.343	0.325	0.309	0.310	0.308	0.341	0.340	0.318	0.312	0.284	0.320
255.0	17.65	30.31	75.17	116.0	161.8	430.2	 1463	 2108	226.7	19.50	4.184	4.109	3.252	2.352	2.012	1.819	1.502	1.327	1.318	1.276	1.140	1.065	0.993	0.876	0.836	0.881	0.829	0.811	0.791	0.635	0.693	0.654	0.626	0.642	0.562	0.453	0.420	0.431	0.450	0.488	0.519	0.554	0.549	0.492	0.418	0.434	0.455	0.419	0.469	0.559	0.726	0.792	0.766	1.071	1.573	2.291	4.457	9.246	15.23	15.48	7.268	1.554	0.357	0.347	0.305	0.337	0.322	0.326	0.376	0.372	0.323	0.325	0.317	0.303	0.306	0.301	0.339
260.0	16.55	17.80	37.21	112.2	107.8	113.8	526.4	 2067	 1791	184.1	9.514	4.458	3.629	2.832	2.392	2.068	1.699	1.506	1.440	1.320	1.049	1.024	0.962	0.825	1.046	0.792	0.862	0.762	0.752	0.709	0.648	0.789	0.581	0.615	0.546	0.481	0.425	0.422	0.495	0.445	0.489	0.539	0.502	0.503	0.449	0.450	0.488	0.459	0.446	0.417	0.511	0.859	0.907	0.746	0.706	0.802	1.348	2.838	7.132	14.75	18.81	14.40	5.270	0.902	0.385	0.332	0.339	0.327	0.361	0.328	0.363	0.287	0.331	0.285	0.280	0.329	0.352
265.0	18.94	15.98	18.16	62.76	128.3	75.02	134.8	819.9	 2509	 1566	142.0	6.396	4.279	2.810	2.390	2.196	1.765	1.575	1.233	1.212	1.215	1.220	1.084	0.965	0.937	0.765	0.926	0.800	0.753	0.738	0.677	0.791	0.595	0.581	0.577	0.547	0.496	0.462	0.508	0.413	0.449	0.544	0.437	0.492	0.485	0.472	0.424	0.400	0.396	0.403	0.392	0.581	0.860	1.009	0.856	0.549	0.604	0.999	1.946	4.774	11.50	19.20	20.50	11.67	2.985	0.496	0.315	0.371	0.344	0.307	0.322	0.357	0.366	0.291	0.285	0.353	0.339
270.0	19.00	18.83	15.09	24.74	73.69	116.1	89.90	206.3	897.6	 2106	 2125	616.6	36.30	4.276	3.198	2.414	2.053	1.712	1.553	1.513	1.342	1.221	1.046	1.049	0.949	0.841	0.915	0.834	0.858	0.800	0.749	0.708	0.675	0.638	0.607	0.498	0.501	0.472	0.477	0.425	0.425	0.426	0.439	0.482	0.518	0.516	0.446	0.408	0.450	0.384	0.327	0.428	0.528	0.644	0.859	0.934	0.857	0.699	0.778	1.378	3.064	6.005	10.66	15.62	18.06	15.68	9.184	3.022	0.547	0.355	0.364	0.352	0.343	0.324	0.315	0.315	0.357
275.0	22.20	27.16	24.41	18.69	27.15	66.59	130.7	119.6	219.8	573.2	 1791	 3186	907.3	39.58	3.970	3.040	2.504	2.009	1.610	1.527	1.391	1.196	1.259	1.060	0.922	0.981	0.925	0.745	0.859	0.899	0.867	0.681	0.695	0.655	0.567	0.514	0.503	0.499	0.551	0.442	0.435	0.426	0.366	0.479	0.489	0.502	0.492	0.500	0.441	0.448	0.336	0.380	0.402	0.445	0.453	0.617	0.981	1.182	0.971	0.869	1.011	1.690	2.749	3.930	6.214	12.41	20.96	23.06	13.13	2.944	0.452	0.370	0.329	0.338	0.313	0.356	0.388
280.0	31.33	41.15	36.38	24.73	18.64	30.96	100.8	154.7	104.3	160.2	593.4	 2422	 3198	694.6	16.93	3.582	2.993	2.261	1.795	1.696	1.505	1.172	1.238	1.093	0.939	0.965	0.960	0.847	0.759	0.909	0.834	0.667	0.648	0.620	0.575	0.544	0.524	0.484	0.495	0.506	0.447	0.407	0.448	0.436	0.531	0.507	0.531	0.556	0.506	0.494	0.415	0.410	0.393	0.414	0.399	0.445	0.641	0.852	1.134	1.252	0.904	0.779	1.024	1.283	1.810	3.676	8.539	17.64	25.27	21.35	9.039	1.186	0.358	0.349	0.354	0.360	0.373
285.0	50.30	58.33	55.14	36.05	23.11	23.83	55.90	145.9	155.7	99.88	188.1	873.5	 2730	 3005	99.71	7.014	3.391	2.683	2.070	1.804	1.600	1.344	1.283	1.132	0.953	1.014	0.945	0.908	0.960	0.910	0.776	0.741	0.720	0.686	0.570	0.506	0.487	0.527	0.491	0.533	0.467	0.453	0.499	0.470	0.447	0.543	0.593	0.606	0.591	0.487	0.467	0.436	0.426	0.451	0.400	0.463	0.589	0.558	0.769	1.190	1.480	1.050	0.814	0.724	0.910	1.357	2.502	5.397	12.03	21.54	26.56	17.18	4.690	0.604	0.398	0.367	0.312
290.0	64.86	91.27	91.98	58.55	37.46	33.46	47.20	94.54	177.3	202.2	166.6	307.3	925.5	 2156	 2590	 1136	27.92	3.533	2.656	2.133	1.853	1.609	1.318	1.248	1.274	1.061	0.998	1.003	0.934	0.915	0.886	0.744	0.780	0.672	0.624	0.562	0.560	0.529	0.511	0.518	0.463	0.469	0.473	0.476	0.509	0.535	0.644	0.692	0.688	0.590	0.569	0.525	0.517	0.508	0.493	0.482	0.538	0.529	0.586	0.834	1.056	1.361	1.448	1.285	1.071	1.083	1.302	2.015	3.548	6.486	11.43	16.70	20.07	18.32	11.36	3.775	0.547
295.0	85.69	124.8	131.0	81.02	54.29	46.55	60.89	86.39	143.1	262.6	313.1	261.4	345.4	608.4	 1455	 3088	 1953	32.11	3.782	2.674	2.365	1.838	1.493	1.318	1.369	1.235	1.238	0.989	0.948	0.888	0.964	0.746	0.763	0.747	0.604	0.599	0.555	0.554	0.524	0.523	0.441	0.464	0.472	0.501	0.521	0.544	0.670	0.714	0.774	0.806	0.660	0.613	0.608	0.560	0.557	0.521	0.589	0.618	0.708	0.750	0.840	0.951	1.231	1.732	2.081	1.778	1.495	1.514	1.784	2.284	3.283	4.457	6.299	11.50	22.85	27.47	15.10
300.0	101.2	150.2	147.8	96.48	66.59	63.46	79.00	100.6	149.2	253.4	379.4	355.2	259.2	243.6	474.3	 1840	 4019	500.7	16.33	3.535	2.875	2.036	1.758	1.649	1.428	1.223	1.095	1.147	1.102	0.967	0.876	0.865	0.775	0.720	0.543	0.587	0.566	0.486	0.534	0.540	0.531	0.497	0.552	0.521	0.583	0.540	0.658	0.749	0.816	0.892	0.709	0.697	0.681	0.621	0.596	0.555	0.738	0.699	0.777	0.811	0.953	0.974	1.199	1.501	1.948	2.339	2.153	1.843	1.535	1.602	1.689	1.698	2.076	3.432	8.293	18.40	28.29
305.0	112.8	164.1	168.3	113.3	82.89	79.39	97.73	124.5	170.5	250.5	379.4	458.7	320.5	202.9	194.0	612.9	 2651	 3453	376.2	7.012	3.244	2.342	2.019	1.824	1.649	1.294	1.406	1.151	1.091	1.080	0.914	0.822	0.862	0.823	0.655	0.581	0.571	0.541	0.609	0.519	0.551	0.484	0.545	0.521	0.535	0.638	0.666	0.877	0.858	0.824	0.776	0.732	0.645	0.701	0.637	0.666	0.817	0.781	0.876	0.782	1.021	1.189	1.332	1.335	1.754	2.084	2.438	2.559	2.147	1.690	1.416	1.331	1.374	1.423	2.439	5.633	12.47
310.0	124.3	179.0	180.6	128.5	97.08	96.25	116.6	148.7	194.3	267.7	353.2	439.7	436.5	278.4	162.4	207.1	790.6	 2048	 2821	 1256	21.91	3.523	2.622	2.078	1.685	1.512	1.409	1.191	1.199	1.113	1.006	0.895	0.805	0.773	0.718	0.721	0.644	0.577	0.597	0.533	0.540	0.520	0.535	0.490	0.556	0.694	0.707	0.874	0.853	0.839	0.794	0.817	0.775	0.760	0.728	0.738	0.857	0.931	0.997	1.016	1.095	1.261	1.423	1.593	1.637	1.851	2.105	2.441	2.624	2.369	1.994	1.500	1.272	1.111	1.227	1.792	3.447
315.0	136.1	201.3	203.0	144.3	108.9	111.5	139.5	168.8	218.6	293.2	366.0	412.7	434.0	404.4	230.3	146.0	242.9	522.1	 1262	 3264	 1938	25.96	3.389	2.555	2.069	1.813	1.520	1.304	1.312	1.175	1.106	0.989	0.856	0.812	0.736	0.684	0.687	0.619	0.582	0.541	0.577	0.573	0.569	0.563	0.657	0.722	0.842	0.915	0.929	0.841	0.802	0.799	0.814	0.830	0.811	0.757	0.891	0.982	1.090	1.172	1.152	1.268	1.581	1.685	1.886	1.915	2.040	2.245	2.224	2.457	2.612	2.402	1.760	1.184	1.142	1.100	1.505
320.0	155.4	249.6	248.1	168.3	127.0	127.7	160.6	190.8	245.5	322.1	399.6	434.4	431.8	426.3	341.4	174.7	141.8	174.1	366.0	 1655	 4090	386.9	15.49	3.215	2.590	1.949	1.733	1.481	1.251	1.272	1.167	0.961	0.943	0.858	0.744	0.733	0.661	0.690	0.611	0.629	0.582	0.598	0.585	0.622	0.655	0.773	0.980	1.109	1.252	0.945	0.885	0.943	0.833	0.830	0.849	0.883	1.018	1.087	1.027	1.318	1.374	1.498	1.769	1.759	1.987	2.032	2.176	2.284	2.308	2.287	2.573	2.547	2.433	1.862	1.320	1.144	1.122
325.0	177.9	309.2	307.3	214.7	151.7	145.6	169.9	211.9	267.9	338.3	426.0	468.7	453.5	416.8	400.1	259.9	144.5	113.5	129.2	489.5	 2461	 3166	309.6	6.363	3.197	2.268	1.869	1.706	1.350	1.394	1.195	1.079	0.941	0.875	0.822	0.770	0.623	0.673	0.617	0.631	0.561	0.596	0.575	0.705	0.717	0.886	1.034	1.411	1.467	1.250	1.090	1.140	1.058	0.910	0.889	1.076	1.073	1.156	1.177	1.431	1.572	1.608	1.865	1.936	2.138	2.119	2.315	2.436	2.482	2.411	2.364	2.342	2.374	2.647	1.946	1.334	1.163
330.0	210.3	361.2	386.6	288.6	192.2	169.8	192.1	234.9	293.4	370.0	451.6	492.1	486.5	434.9	382.4	336.6	230.2	130.9	96.60	156.9	676.0	 1904	 2717	 1191	19.87	3.367	2.354	2.155	1.622	1.547	1.296	1.163	1.030	0.927	0.864	0.734	0.742	0.688	0.654	0.659	0.622	0.625	0.638	0.708	0.749	0.900	1.137	1.533	1.606	1.527	1.302	1.333	1.200	1.085	1.058	1.102	1.132	1.235	1.273	1.423	1.576	1.676	1.843	2.110	2.240	2.420	2.425	2.551	2.569	2.555	2.488	2.395	2.396	2.309	2.287	2.078	1.871
335.0	215.2	417.5	465.5	361.2	266.8	214.0	228.3	267.1	320.9	403.5	483.5	522.8	522.7	470.1	396.6	330.2	315.7	210.7	118.9	105.9	201.2	474.9	 1161	 3476	 1817	24.94	3.279	2.663	2.149	1.704	1.437	1.313	1.045	0.946	0.861	0.761	0.786	0.702	0.740	0.644	0.620	0.612	0.609	0.621	0.796	1.003	1.210	1.823	1.924	1.782	1.667	1.671	1.426	1.264	1.158	1.236	1.295	1.467	1.478	1.568	1.775	1.813	2.102	2.206	2.320	2.543	2.623	2.833	2.876	2.791	2.683	2.683	2.451	2.204	2.185	2.267	2.254
340.0	225.8	441.1	529.3	430.1	320.1	259.7	267.3	300.3	343.9	420.0	500.6	547.6	554.7	507.1	429.8	336.6	308.6	288.4	163.2	115.0	114.5	154.8	327.3	 1732	 4045	337.3	15.02	3.200	2.573	1.866	1.716	1.318	1.196	1.024	0.881	0.882	0.748	0.751	0.762	0.629	0.620	0.641	0.632	0.645	0.815	1.031	1.219	1.820	2.018	1.901	1.827	1.944	1.753	1.536	1.428	1.327	1.361	1.570	1.743	1.745	1.782	2.043	2.203	2.422	2.328	2.719	2.603	2.818	2.985	2.970	2.903	2.748	2.627	2.246	2.290	2.241	2.144
345.0	227.9	446.5	567.9	477.0	363.6	302.4	293.5	325.2	367.8	429.9	511.5	557.2	565.3	531.3	456.0	356.5	297.2	303.9	241.3	141.2	112.1	104.0	123.7	493.5	 2538	 2748	274.9	6.863	3.138	2.228	1.735	1.466	1.356	1.075	0.953	0.894	0.797	0.734	0.798	0.712	0.635	0.602	0.633	0.664	0.822	0.991	1.236	1.784	2.064	1.988	1.938	2.149	1.900	1.759	1.618	1.539	1.530	1.725	1.866	1.806	2.031	2.043	2.149	2.365	2.245	2.886	2.584	3.008	2.975	2.854	2.884	2.968	2.826	2.459	2.314	2.316	2.080
350.0	221.7	440.1	566.0	533.9	445.5	384.1	369.9	398.3	414.2	469.4	529.5	573.3	577.2	548.7	482.1	389.6	325.7	288.0	282.7	227.0	148.8	118.1	103.3	167.1	685.3	 1854	 2602	 1063	18.44	3.091	2.401	1.844	1.448	1.177	1.063	0.912	0.845	0.765	0.794	0.684	0.642	0.630	0.599	0.718	0.828	1.030	1.271	1.746	2.075	2.007	2.066	2.336	2.228	1.989	1.883	1.896	1.893	1.987	2.067	2.233	2.335	2.289	2.487	2.393	2.667	2.743	2.845	2.956	3.129	2.956	3.041	3.173	2.995	2.721	2.568	2.421	2.233
355.0	219.0	421.8	560.7	572.0	496.6	443.3	425.7	444.5	447.4	495.7	540.5	578.4	584.1	555.8	502.4	419.9	354.3	304.7	274.4	285.5	232.9	156.1	127.2	118.3	209.5	458.5	 1134	 3302	 1601	24.10	3.520	2.379	1.766	1.451	1.139	1.004	0.940	0.851	0.765	0.774	0.722	0.673	0.601	0.740	0.796	1.051	1.299	1.621	2.169	2.033	2.165	2.472	2.445	2.299	2.142	2.068	2.255	2.310	2.263	2.464	2.494	2.547	2.753	2.765	2.727	2.885	2.925	2.896	3.112	2.973	3.169	3.213	3.058	2.874	2.683	2.535	2.465
360.0	205.6	403.0	565.1	586.8	519.8	469.3	444.7	453.3	451.1	494.6	540.8	570.4	578.8	562.0	509.0	434.1	375.8	326.5	286.9	280.6	294.9	207.0	151.7	125.8	119.0	150.8	306.7	 1684	 3669	321.0	14.77	2.838	2.270	1.714	1.342	1.071	1.060	0.833	0.750	0.840	0.734	0.635	0.642	0.694	0.800	1.048	1.227	1.675	2.020	2.028	2.047	2.642	2.580	2.459	2.244	2.137	2.294	2.300	2.417	2.475	2.518	2.560	2.646	2.806	2.744	2.921	2.896	3.104	2.944	2.925	3.069	3.303	3.043	2.952	2.641	2.746	2.422
365.0	199.0	387.4	548.2	622.3	543.1	493.1	461.0	461.1	455.6	501.6	538.8	565.5	573.7	552.8	512.4	441.5	390.7	345.0	305.6	287.4	303.1	274.5	188.0	147.4	116.8	96.85	109.0	463.1	 2394	 2626	262.7	7.136	2.648	2.031	1.415	1.234	1.109	0.866	0.828	0.863	0.739	0.623	0.650	0.705	0.871	0.988	1.260	1.674	2.043	1.930	2.031	2.568	2.688	2.599	2.382	2.220	2.338	2.382	2.372	2.452	2.489	2.360	2.640	2.766	2.665	2.920	2.830	3.064	3.014	3.127	3.005	3.194	3.059	2.969	2.678	2.785	2.569
370.0	197.8	370.2	534.4	626.6	578.7	537.1	497.6	504.6	495.4	525.2	550.6	576.2	579.5	554.2	515.9	458.7	419.1	376.9	341.5	317.5	304.2	311.4	274.8	198.4	147.9	116.0	93.56	152.0	646.6	 1912	 2625	 1003	16.78	3.054	1.914	1.416	1.153	0.997	0.877	0.830	0.767	0.739	0.705	0.712	0.836	1.018	1.232	1.524	1.834	1.949	2.051	2.507	2.680	2.661	2.608	2.598	2.514	2.633	2.525	2.676	2.666	2.568	2.693	2.845	2.853	2.914	2.876	3.020	3.083	3.064	3.139	3.223	3.096	2.924	2.802	2.834	2.886
375.0	192.5	354.2	540.0	618.3	621.0	572.8	528.1	525.8	517.6	541.6	575.8	599.3	595.8	554.7	511.7	471.0	436.8	408.3	377.5	357.4	336.7	326.6	333.5	296.7	212.6	168.4	137.2	122.3	206.5	477.9	 1223	 3341	 1412	21.46	2.654	1.850	1.482	1.166	1.075	0.981	0.833	0.779	0.786	0.841	0.828	0.992	1.189	1.588	1.821	2.047	2.173	2.683	2.821	2.903	2.805	2.584	2.566	2.766	2.569	2.672	2.796	2.725	2.645	3.072	3.041	2.898	2.928	3.135	3.139	3.279	3.111	3.188	3.053	2.960	2.840	2.857	3.045
380.0	174.2	355.5	547.5	639.3	640.1	589.9	539.9	530.8	522.1	554.6	592.2	621.2	613.5	557.0	514.8	476.5	449.7	425.2	403.6	384.1	366.2	350.0	346.4	354.5	280.3	217.0	183.8	148.9	140.0	177.2	345.2	 1753	 3324	274.1	11.78	2.250	1.756	1.399	1.155	0.965	0.795	0.805	0.821	0.800	0.852	0.980	1.223	1.475	1.810	2.046	2.170	2.778	2.984	3.042	2.936	2.713	2.670	2.767	2.675	2.550	2.684	2.767	2.773	2.946	3.036	3.056	3.061	3.324	3.427	3.220	3.174	2.994	3.136	2.871	3.109	2.830	2.970
385.0	183.7	351.6	524.3	631.0	657.5	585.8	544.8	528.7	522.7	553.2	584.4	605.7	618.2	558.5	515.9	481.2	458.3	435.4	418.6	403.1	386.2	366.4	350.4	356.4	332.7	254.0	208.5	170.3	141.7	128.1	141.8	491.8	 2252	 2224	213.4	4.658	1.968	1.566	1.245	1.135	0.859	0.782	0.778	0.804	0.851	0.989	1.139	1.554	1.731	2.048	2.110	2.619	2.972	3.163	2.982	2.773	2.812	2.691	2.800	2.612	2.838	2.768	2.825	2.838	3.103	3.004	2.938	3.397	3.378	3.208	3.257	3.077	3.040	2.940	2.860	3.146	3.063
390.0	180.5	342.3	506.5	607.2	652.2	608.0	570.1	552.4	529.8	543.2	564.8	585.6	593.4	548.6	516.6	486.0	466.4	451.4	432.5	418.9	404.2	385.8	366.9	351.3	343.5	307.5	241.9	191.9	156.4	126.3	102.9	157.5	608.7	 1655	 2101	765.3	13.70	2.199	1.556	1.284	1.010	0.889	0.827	0.845	0.872	1.108	1.147	1.556	1.753	1.914	2.057	2.555	2.795	2.936	2.909	2.753	2.931	2.776	2.944	2.841	2.853	2.806	2.754	2.953	3.044	2.882	2.973	3.194	3.253	3.119	3.170	3.053	3.139	2.912	3.000	3.083	3.029
395.0	172.4	345.8	503.5	609.7	649.7	623.4	601.6	578.2	543.2	541.6	563.7	584.3	588.2	545.6	517.6	486.2	474.0	463.2	448.5	434.4	426.5	406.2	393.7	371.3	349.4	339.8	312.1	238.1	188.1	150.6	113.3	97.98	177.0	399.8	985.0	 2602	 1172	16.91	2.305	1.617	1.250	0.986	0.883	0.799	0.842	1.038	1.245	1.510	1.792	1.899	2.048	2.629	2.929	3.023	2.929	2.896	3.195	2.897	3.083	2.865	2.864	2.769	2.820	2.878	2.869	2.817	2.822	3.207	3.319	2.920	3.004	2.931	2.928	2.964	2.978	3.132	3.104
400.0	177.3	333.1	498.8	601.1	670.1	644.1	626.2	599.8	556.4	541.6	559.6	581.8	581.8	542.9	517.6	488.3	478.4	464.1	453.6	445.6	433.4	419.9	409.9	389.1	365.2	346.9	344.6	287.9	220.3	178.5	135.8	99.75	92.15	121.8	258.0	 1398	 2734	232.7	9.902	2.095	1.435	1.187	1.055	0.977	0.920	1.034	1.251	1.516	1.800	2.016	2.039	2.763	2.948	3.057	2.947	3.138	3.250	3.034	3.235	3.035	2.958	2.873	3.011	2.915	2.697	2.951	2.898	2.980	3.340	2.942	3.019	3.048	2.899	3.163	3.094	3.106	3.172
405.0	167.7	331.6	495.0	602.3	663.0	660.1	662.9	637.8	562.7	545.4	553.3	573.1	576.3	542.5	511.5	487.5	478.0	466.9	456.9	444.9	435.0	425.6	416.6	399.9	375.3	355.1	344.6	325.4	255.3	202.0	158.1	113.5	84.13	69.06	85.25	377.1	 1780	 1878	181.7	4.453	1.766	1.298	1.140	1.032	1.057	1.116	1.289	1.615	1.864	1.978	2.018	2.707	2.935	3.051	2.876	3.012	3.409	3.135	3.365	3.136	3.005	2.984	3.094	2.903	2.881	2.989	2.876	2.933	3.143	3.036	3.151	3.001	2.970	3.172	3.086	3.115	3.245
410.0	175.2	322.2	476.9	595.4	665.7	686.6	701.3	672.9	580.0	547.5	546.0	562.8	556.4	530.9	507.8	482.2	474.9	462.9	455.2	444.9	433.2	424.6	417.8	405.0	384.4	361.2	340.4	327.9	298.0	237.2	179.9	134.4	97.82	71.29	57.60	110.9	470.2	 1300	 1712	657.5	11.79	2.244	1.587	1.230	1.075	1.194	1.270	1.554	1.821	1.887	1.982	2.683	2.973	3.069	3.032	3.162	3.506	3.552	3.555	3.513	3.142	2.992	2.955	2.809	2.810	2.914	2.816	2.951	2.893	2.867	3.044	3.020	3.083	3.035	3.065	3.061	3.078
415.0	174.0	315.7	467.8	600.1	675.9	720.2	750.7	713.8	602.3	544.8	544.2	546.6	539.8	520.1	498.7	478.3	465.2	456.5	448.0	437.7	427.9	421.6	414.0	404.8	392.3	371.6	347.0	323.2	308.1	281.7	209.6	156.3	114.9	84.66	63.32	61.58	131.1	312.5	795.1	 2086	839.7	15.30	3.052	1.828	1.347	1.294	1.248	1.535	1.706	1.896	2.042	2.646	2.966	3.117	3.163	3.449	3.627	3.852	3.750	3.570	3.182	3.057	2.836	2.813	2.750	2.706	2.851	2.790	2.699	3.045	3.002	2.933	3.070	2.953	3.110	3.231	2.950
420.0	172.7	320.3	469.5	584.6	685.7	744.7	800.2	759.4	622.5	548.8	538.5	534.9	529.3	509.9	496.2	475.9	458.9	450.5	443.2	429.4	420.1	415.3	410.3	406.3	392.6	376.5	353.1	326.9	307.0	294.0	239.6	173.8	129.0	96.57	73.10	57.83	62.34	94.59	207.4	 1106	 1925	210.4	10.84	3.111	1.652	1.516	1.358	1.500	1.792	1.943	2.073	2.594	2.942	3.067	3.272	3.479	3.838	3.954	3.937	3.921	3.398	3.169	2.988	2.771	2.654	2.787	2.829	2.684	2.887	2.914	2.901	2.981	3.106	2.961	2.891	3.185	3.074
425.0	178.9	316.9	472.7	596.8	701.9	768.9	838.1	793.6	629.3	552.5	532.9	529.4	526.3	505.7	484.5	468.6	455.2	447.3	435.7	422.8	410.3	406.5	402.9	399.1	392.0	378.3	355.4	336.0	307.3	287.5	264.3	197.2	142.8	108.7	83.90	66.13	56.54	55.18	72.88	305.8	 1399	 1651	167.1	6.269	2.568	1.896	1.537	1.636	1.917	1.827	2.033	2.595	3.055	3.179	3.310	3.442	4.008	4.057	4.145	3.830	3.612	3.211	3.036	2.972	2.744	2.791	2.718	2.569	2.839	2.942	2.903	2.972	2.956	3.058	3.005	2.904	3.067
430.0	175.6	318.2	473.3	601.8	706.2	801.5	875.2	832.3	653.6	562.8	536.4	526.3	514.3	497.4	477.2	456.5	446.8	437.1	426.3	412.1	397.5	392.7	393.5	391.8	383.8	373.3	357.7	337.7	313.6	287.0	263.7	228.7	172.1	128.7	103.5	86.02	72.91	65.70	63.51	111.6	400.3	 1117	 1452	520.8	11.94	2.960	1.891	1.778	1.923	2.002	2.084	2.601	2.975	3.236	3.431	3.644	4.000	4.165	4.145	4.016	3.687	3.354	3.102	2.824	2.890	2.790	2.766	2.640	2.828	2.837	2.730	2.922	2.847	2.885	2.834	2.858	2.959
435.0	191.0	301.0	459.7	603.0	716.6	813.5	905.6	866.7	674.9	566.2	537.5	522.9	501.7	484.4	469.7	447.1	435.7	425.2	417.2	400.7	382.8	376.7	379.3	380.5	375.7	367.3	354.1	337.6	316.0	292.2	260.3	234.2	202.6	153.1	120.4	103.3	91.41	81.17	75.46	82.29	139.8	296.9	704.1	 1775	207.1	13.51	2.637	2.097	2.137	2.077	2.097	2.666	3.026	3.310	3.471	3.861	4.290	4.436	4.616	4.229	3.829	3.166	3.111	2.835	2.912	2.735	2.725	2.734	2.764	2.620	2.766	2.878	2.672	2.954	2.725	2.786	2.808
440.0	223.7	301.9	462.8	598.2	708.0	817.6	924.5	889.0	684.4	562.2	535.7	517.7	494.3	474.0	459.4	438.2	423.8	413.5	411.1	390.8	368.7	362.8	368.3	367.4	366.9	358.5	349.4	335.2	316.2	294.4	262.0	228.2	207.3	173.9	132.6	112.6	102.0	90.98	83.56	80.74	87.59	115.4	205.4	 1053	 1643	183.9	5.522	2.509	2.355	2.082	2.145	2.670	3.008	3.260	3.606	3.907	4.361	4.521	4.689	4.262	4.014	3.325	3.002	2.906	2.803	2.837	2.544	2.727	2.755	2.763	2.819	2.823	2.707	2.791	2.627	2.730	3.081
445.0	270.0	307.3	454.6	585.6	707.8	814.5	937.3	890.2	681.1	563.1	529.7	503.0	483.2	461.4	443.3	424.6	411.7	400.9	397.3	376.3	357.3	352.6	352.7	354.1	354.6	345.8	340.1	329.9	313.3	292.3	260.7	225.4	202.3	184.0	146.3	119.4	105.9	94.37	87.73	82.48	76.38	75.91	83.23	303.6	 1352	 1465	24.32	3.485	2.405	2.182	2.200	2.768	3.085	3.415	3.678	3.800	4.236	4.501	4.649	4.169	3.784	3.490	3.048	2.791	2.815	2.787	2.651	2.629	2.834	2.529	2.716	2.804	2.838	2.739	2.578	2.695	2.728
450.0	284.7	385.1	445.7	566.9	683.9	798.1	910.6	875.7	663.8	546.0	509.7	483.5	457.4	437.9	419.7	402.8	390.7	379.5	375.6	356.5	336.2	328.2	329.4	333.3	335.3	329.9	324.8	313.9	301.9	283.1	256.8	223.1	193.2	174.1	157.2	129.3	109.2	96.30	88.24	80.77	73.40	65.47	55.24	91.14	367.5	 1081	 1291	440.5	8.830	2.598	2.336	2.752	2.969	3.276	3.488	3.646	4.099	4.509	4.596	4.271	3.722	3.483	2.984	2.827	2.753	2.716	2.510	2.650	2.531	2.487	2.551	2.476	2.545	2.600	2.507	2.643	2.620
455.0	218.5	527.5	487.9	544.6	660.2	766.4	873.1	842.8	644.7	525.0	485.0	454.6	427.2	411.8	389.8	376.3	365.1	355.9	348.7	330.6	307.4	300.9	302.9	306.9	309.0	306.7	302.7	296.4	286.6	271.1	247.3	216.5	187.2	163.6	149.1	138.3	114.1	96.65	87.23	79.78	70.10	61.16	46.75	43.60	95.29	253.9	651.7	 1552	174.7	9.424	2.614	2.979	3.019	3.414	3.375	3.578	4.172	4.291	4.312	4.093	3.616	3.188	2.926	2.729	2.680	2.463	2.393	2.509	2.411	2.428	2.278	2.385	2.464	2.369	2.453	2.463	2.471
460.0	165.0	536.4	622.5	523.8	623.1	731.6	831.5	802.1	616.4	497.3	458.7	431.1	406.3	387.0	367.3	357.4	342.1	333.1	326.5	307.3	288.8	282.4	281.5	286.5	290.2	287.4	283.8	278.4	269.6	259.9	236.3	208.6	181.6	157.8	139.7	134.4	119.3	96.88	85.37	77.27	67.65	58.93	44.66	32.87	35.57	66.17	163.5	910.3	 1371	136.0	5.150	3.129	2.987	3.227	3.219	3.414	3.978	4.093	4.253	3.960	3.451	3.190	2.682	2.673	2.543	2.336	2.380	2.388	2.255	2.228	2.340	2.264	2.362	2.338	2.272	2.307	2.191
465.0	145.3	439.5	803.5	549.2	600.0	691.8	789.4	762.5	589.8	480.2	434.7	407.3	388.8	364.8	348.3	336.4	321.4	312.3	305.2	287.9	269.2	262.8	262.5	264.3	270.6	268.1	266.8	264.1	255.8	244.8	226.6	200.4	174.7	153.3	134.0	124.0	120.1	99.82	83.41	74.91	65.76	55.90	43.76	30.62	23.00	25.37	44.08	247.1	 1131	 1104	19.37	3.996	2.958	3.255	3.351	3.437	3.815	3.834	4.124	3.815	3.368	2.980	2.673	2.587	2.376	2.402	2.373	2.188	2.204	2.106	2.078	2.315	2.093	2.200	2.147	2.215	2.136
470.0	132.8	281.8	809.5	780.8	567.0	635.8	726.0	704.1	547.3	446.8	404.3	379.3	351.7	334.2	317.1	303.8	289.9	283.3	276.8	263.4	243.6	235.6	237.4	239.8	244.7	244.2	242.6	240.5	233.2	225.8	208.9	187.6	164.1	142.4	125.9	113.7	109.0	100.4	84.16	71.14	62.34	53.08	41.99	29.93	21.40	17.28	18.63	62.39	307.2	838.1	959.7	332.6	8.730	3.205	3.201	3.415	3.551	3.645	3.749	3.573	3.269	2.860	2.608	2.402	2.288	2.173	2.136	2.100	1.971	1.996	1.997	2.055	1.966	2.044	2.082	2.077	2.123
475.0	122.6	218.3	522.3	 1077	667.4	579.9	653.6	635.7	503.7	408.6	375.3	346.3	320.5	303.6	284.3	272.8	260.6	254.5	247.0	234.6	219.1	210.1	212.1	214.2	216.6	217.6	218.0	214.2	211.1	205.4	190.2	171.2	151.1	133.9	118.0	106.6	96.87	91.25	84.29	70.50	57.95	50.04	40.52	29.93	21.79	16.83	14.22	22.09	74.71	195.2	458.9	 1077	166.9	9.912	3.291	3.094	3.343	3.423	3.440	3.243	3.002	2.633	2.379	2.163	2.192	2.001	1.918	1.915	1.932	1.820	1.874	1.856	1.994	1.962	1.815	1.843	1.957
480.0	119.0	192.5	344.0	988.5	925.1	547.6	603.9	593.6	467.3	380.3	354.9	319.8	301.1	284.8	265.1	249.7	243.3	234.3	229.7	215.3	199.2	193.6	194.9	196.5	200.0	200.9	199.8	199.0	196.6	190.8	176.3	161.1	143.1	126.7	111.4	100.2	90.74	82.83	80.98	73.25	57.50	48.30	38.76	30.23	22.51	17.37	13.93	14.13	23.75	49.31	115.3	597.2	995.8	143.6	5.242	3.277	3.222	3.172	3.415	2.897	2.671	2.556	2.266	2.070	2.106	1.932	1.775	1.782	1.722	1.765	1.700	1.910	1.751	1.728	1.827	1.816	1.909
485.0	117.4	180.7	280.7	701.8	 1167	593.6	555.2	551.7	440.1	360.0	330.0	304.6	279.9	266.3	247.1	231.9	227.7	220.5	214.9	198.0	185.6	181.2	180.2	183.9	182.9	184.7	184.0	183.4	182.3	175.8	166.3	152.0	135.7	120.4	106.1	95.34	86.59	76.78	74.53	71.43	58.29	47.33	37.87	29.79	23.28	18.21	14.83	12.98	13.09	17.60	31.22	159.1	799.3	912.7	23.23	3.637	3.292	3.120	3.113	2.773	2.589	2.333	2.132	2.124	1.929	1.745	1.682	1.718	1.625	1.685	1.643	1.721	1.605	1.663	1.717	1.625	1.804
490.0	105.5	169.7	249.9	420.3	 1022	906.8	527.3	493.7	399.0	332.7	303.2	282.3	257.4	241.6	223.4	213.3	204.5	199.8	191.7	180.0	166.1	161.3	161.5	163.7	164.7	165.9	166.3	164.8	164.8	161.4	151.7	139.1	125.3	111.9	100.1	89.14	80.33	71.89	66.32	63.48	58.84	48.54	37.22	30.00	23.64	19.28	16.08	13.56	11.75	10.96	12.96	40.59	212.6	623.4	811.3	294.2	9.239	3.172	3.007	2.726	2.502	2.190	2.078	1.949	1.715	1.679	1.638	1.666	1.542	1.675	1.554	1.573	1.562	1.571	1.610	1.537	1.588
495.0	88.96	157.8	234.2	307.9	593.7	 1149	641.6	437.0	362.4	299.6	279.3	258.7	233.8	214.5	201.6	190.1	181.5	176.9	170.5	157.9	147.9	142.1	142.4	144.3	144.8	146.6	147.2	147.6	146.7	143.5	136.4	126.9	113.7	101.7	91.26	81.52	75.32	65.67	60.70	56.13	52.92	49.49	38.58	29.95	23.73	20.39	17.07	14.70	12.43	10.19	9.289	14.53	52.20	145.9	438.8	 1002	179.4	10.01	3.030	2.719	2.366	1.943	1.835	1.747	1.659	1.728	1.497	1.511	1.454	1.541	1.332	1.368	1.492	1.399	1.462	1.343	1.415
500.0	76.84	141.4	218.9	264.4	377.4	986.0	911.4	418.9	333.6	279.5	254.8	239.5	214.1	198.0	184.3	172.1	165.9	158.4	153.0	144.0	133.3	127.6	128.8	129.8	130.9	132.9	132.0	134.2	132.3	130.0	123.6	114.5	104.1	92.90	84.72	76.64	69.55	61.69	56.64	51.50	46.91	46.87	40.20	30.12	24.33	20.60	17.84	15.34	12.78	10.18	9.003	9.288	16.61	37.07	110.6	561.6	947.5	149.7	5.017	2.642	2.297	2.054	1.737	1.580	1.527	1.688	1.577	1.408	1.335	1.463	1.329	1.335	1.364	1.236	1.342	1.291	1.329
505.0	68.72	129.2	213.1	244.7	296.3	652.2	 1135	481.2	297.7	256.7	236.5	216.6	197.4	181.9	168.0	156.0	150.4	144.0	138.7	130.1	120.9	116.9	116.9	118.1	119.5	119.3	119.1	121.5	120.3	120.0	113.6	105.5	95.82	86.32	78.35	71.21	64.78	58.40	53.34	47.63	42.65	41.88	40.15	31.71	24.15	20.61	17.93	15.67	12.96	10.96	9.411	8.322	9.011	13.16	28.67	149.3	721.0	837.7	25.08	3.081	2.271	1.812	1.683	1.611	1.523	1.551	1.377	1.271	1.268	1.283	1.326	1.262	1.323	1.108	1.242	1.243	1.311
510.0	66.44	109.6	181.1	221.7	249.6	374.8	919.2	809.7	293.3	227.1	209.3	192.6	176.7	160.4	148.7	138.0	130.2	125.0	122.0	113.0	106.0	102.6	101.5	102.2	103.3	104.0	103.4	104.7	105.2	104.3	100.0	92.67	84.96	76.71	69.66	64.06	58.21	52.49	47.61	43.27	38.83	36.25	34.79	32.31	25.87	20.47	17.68	15.48	13.41	11.24	9.906	8.682	7.625	7.868	10.71	37.36	190.9	559.1	660.9	107.8	8.535	1.870	1.623	1.420	1.425	1.333	1.270	1.213	1.218	1.172	1.232	1.179	1.126	1.133	1.129	1.129	1.192
515.0	58.68	98.52	150.4	201.7	219.0	259.8	483.5	 1014	487.5	198.3	184.0	170.7	152.4	139.4	129.9	119.5	112.6	108.4	104.9	95.92	90.76	86.90	87.17	86.77	88.28	88.84	88.43	89.28	90.57	89.39	86.15	80.51	72.74	68.21	60.77	55.45	51.90	46.92	43.51	38.82	35.69	32.34	29.63	29.05	27.41	21.45	17.50	15.71	13.44	11.32	10.22	8.829	7.474	6.868	7.209	12.45	46.28	129.8	312.3	715.4	177.6	8.495	1.693	1.517	1.325	1.311	1.224	1.061	1.166	0.997	0.963	1.129	0.966	0.997	1.055	1.024	0.947
520.0	54.46	85.01	125.0	187.5	200.8	216.2	291.5	818.8	799.5	194.0	165.2	154.1	137.8	125.0	115.7	108.8	100.5	96.55	92.19	84.18	80.79	78.12	77.10	77.75	79.02	79.01	78.71	79.64	80.45	78.96	76.34	71.91	65.21	61.22	55.33	50.31	46.60	42.18	39.27	35.92	32.29	29.56	26.45	25.35	26.09	22.56	17.43	15.03	12.97	11.32	10.22	8.860	7.495	6.568	6.381	6.998	14.20	32.37	77.84	405.4	702.9	135.6	3.343	1.621	1.274	1.275	1.174	1.024	1.089	1.042	0.978	0.988	1.001	0.879	0.964	0.956	0.975
525.0	50.72	73.29	110.8	155.0	190.1	192.7	222.8	505.6	 1003	241.7	153.3	142.1	127.5	115.7	105.6	97.86	91.97	86.77	81.43	76.92	72.17	69.47	70.65	69.07	70.04	70.46	70.30	70.77	71.29	70.89	69.26	64.76	59.32	55.29	50.59	46.07	42.50	38.72	35.96	33.00	29.56	27.79	24.92	22.59	22.99	22.72	17.96	14.91	12.38	11.40	10.01	8.778	7.538	6.760	6.109	5.620	6.961	10.59	20.49	107.4	510.1	595.3	23.92	1.985	1.306	1.213	1.098	1.045	0.932	0.976	0.886	0.961	0.900	0.924	0.855	0.885	0.893
530.0	43.96	67.70	95.75	129.5	169.5	174.3	184.5	265.2	736.9	657.3	167.7	125.0	112.6	101.9	92.39	85.05	79.34	75.47	71.10	66.26	62.49	60.33	60.12	60.07	60.30	61.00	61.41	60.92	61.93	62.05	59.94	56.52	52.02	48.57	44.44	40.50	37.85	34.50	31.79	29.79	26.75	24.59	22.56	20.70	19.11	20.22	18.34	15.23	12.10	10.69	9.532	8.444	7.435	6.698	6.086	5.701	5.372	5.876	7.697	26.66	132.7	381.4	464.5	105.8	6.963	1.234	1.079	1.049	0.979	0.898	0.892	0.802	0.784	0.905	0.797	0.818	0.813
535.0	38.80	62.92	82.31	105.5	140.4	160.2	158.8	177.0	331.8	802.3	409.8	107.4	97.99	87.95	79.63	73.84	68.70	64.13	61.00	56.66	53.34	51.97	50.52	51.76	52.45	51.24	53.01	52.68	53.82	52.79	51.26	47.99	44.97	41.90	38.16	35.21	32.63	30.52	27.91	26.06	23.85	22.01	20.37	18.14	16.80	16.45	17.12	16.16	12.33	10.03	8.980	7.933	7.057	6.406	6.028	5.561	4.993	4.775	4.643	8.515	31.87	87.93	206.3	511.7	165.7	6.877	1.193	0.969	0.913	0.824	0.781	0.819	0.712	0.750	0.785	0.804	0.811
540.0	37.40	53.45	76.46	95.67	118.0	141.1	141.7	143.0	169.6	582.9	699.7	126.4	87.43	79.77	70.23	66.03	60.27	57.41	54.10	50.58	46.72	46.20	45.38	44.38	45.78	45.61	46.87	47.26	46.92	46.47	46.07	42.99	40.62	37.05	33.74	31.69	29.56	27.53	24.87	23.57	21.49	19.96	18.65	16.53	15.58	14.56	14.71	15.66	12.85	9.806	8.742	7.671	6.867	6.342	5.870	5.690	4.993	4.434	4.118	4.533	9.498	21.70	50.71	274.8	503.0	122.5	2.842	0.977	0.919	0.874	0.837	0.780	0.725	0.659	0.686	0.727	0.729
545.0	37.40	46.91	66.76	84.79	102.2	128.4	133.9	125.3	121.4	319.2	793.4	182.0	79.90	71.83	62.16	59.79	53.96	52.13	48.29	45.20	42.28	40.76	40.38	39.66	40.93	41.77	40.48	41.55	41.51	41.26	40.93	37.34	35.62	33.04	29.97	28.60	26.31	24.66	22.64	21.28	19.68	18.02	16.57	15.40	14.59	13.17	12.89	13.44	12.79	10.13	8.533	7.379	6.557	6.167	5.796	5.274	5.035	4.418	3.872	3.752	4.380	6.793	13.10	71.44	346.0	454.3	23.88	1.491	0.943	0.868	0.869	0.723	0.658	0.660	0.620	0.775	0.718
550.0	34.71	44.34	61.67	72.29	87.22	102.9	122.3	111.0	99.41	149.6	513.0	559.1	105.1	62.66	54.20	50.92	46.73	43.91	41.62	39.40	36.13	35.34	34.72	34.98	35.46	35.16	34.85	35.52	36.12	35.55	34.91	32.50	30.36	28.58	26.59	24.91	23.09	21.27	20.03	18.35	17.16	16.03	15.09	13.69	12.67	11.99	11.09	10.89	11.25	10.27	8.387	6.883	6.269	5.602	5.269	5.055	4.738	4.485	3.807	3.488	3.278	3.544	4.679	17.61	89.10	282.6	272.2	101.5	6.149	0.881	0.861	0.725	0.638	0.633	0.640	0.650	0.704
555.0	31.76	38.91	53.41	64.57	71.33	80.57	103.6	98.31	84.15	88.43	203.8	577.3	344.7	54.63	46.98	44.10	39.93	37.22	34.91	31.78	30.58	29.62	29.43	29.10	29.81	28.92	28.98	29.76	30.21	29.44	28.44	27.14	25.83	23.40	22.58	21.05	19.37	17.65	17.12	15.82	14.53	13.65	12.61	11.69	10.94	10.08	9.264	9.171	8.783	9.361	8.701	6.854	5.597	5.216	4.709	4.580	4.330	3.943	3.585	3.341	2.978	2.761	2.900	5.558	21.38	64.95	128.1	359.0	150.6	5.199	0.833	0.706	0.632	0.644	0.549	0.628	0.611
560.0	31.08	37.05	48.94	57.36	61.14	65.77	84.69	94.56	75.06	68.76	96.09	379.1	556.5	82.12	41.63	38.42	34.87	32.10	29.80	29.24	26.18	25.34	25.00	25.05	25.53	25.01	25.16	25.10	25.30	25.40	24.86	24.00	22.72	20.71	19.14	18.06	17.06	15.25	14.91	13.86	12.71	11.88	10.88	10.50	9.903	9.316	8.189	8.175	7.570	7.889	7.971	6.670	5.257	4.882	4.435	4.310	4.007	3.770	3.554	3.192	2.955	2.648	2.414	2.846	6.271	15.88	31.73	182.1	358.1	27.38	1.905	0.776	0.709	0.570	0.574	0.566	0.577
565.0	31.11	37.26	42.26	48.40	54.31	58.96	69.84	83.08	66.91	60.53	65.05	192.4	572.4	220.2	35.46	31.86	30.73	27.76	25.57	24.61	23.04	22.25	20.83	21.04	21.55	21.48	21.45	21.75	21.42	22.19	21.84	20.32	19.30	17.23	16.60	15.50	14.70	13.51	12.75	12.27	11.28	10.25	9.421	9.011	8.439	7.842	7.468	7.320	6.668	6.290	6.867	6.407	5.115	4.357	4.294	3.793	3.948	3.521	3.455	3.304	2.889	2.459	2.248	2.367	2.891	4.921	8.413	46.58	228.4	214.6	22.56	1.037	0.691	0.604	0.521	0.540	0.531
570.0	25.84	31.88	36.97	40.04	43.13	46.67	53.90	65.46	63.24	49.16	51.10	81.12	327.7	437.3	66.61	26.05	24.21	22.24	20.44	19.28	18.08	17.72	16.59	17.29	16.92	17.24	17.03	17.37	17.46	17.60	16.61	16.53	15.51	14.22	13.18	12.63	11.69	10.93	10.29	9.759	9.150	8.458	7.856	7.425	6.968	6.610	6.302	5.867	5.401	5.197	5.169	5.384	4.839	4.015	3.601	3.394	3.253	3.040	2.928	2.780	2.537	2.317	2.137	1.937	2.041	2.384	3.154	11.62	57.91	149.3	197.3	80.09	4.227	0.631	0.594	0.522	0.496
575.0	22.78	27.44	31.96	31.72	33.77	35.82	39.43	48.03	56.06	47.40	41.72	47.81	120.1	376.4	282.3	22.52	18.62	16.74	15.98	14.86	14.09	13.49	13.50	13.33	13.05	13.49	13.10	13.43	13.02	13.70	12.76	12.72	11.75	11.33	10.42	9.709	9.046	8.457	8.097	7.575	7.036	6.524	6.144	5.943	5.644	5.406	4.908	4.899	4.349	4.062	3.925	3.951	4.252	3.780	3.256	2.894	2.725	2.690	2.517	2.361	2.178	2.074	1.886	1.851	1.723	1.900	1.951	3.646	13.82	34.43	81.97	210.1	27.62	4.315	0.522	0.516	0.479
580.0	22.44	27.63	29.03	29.60	28.93	30.08	32.38	36.45	48.27	48.85	37.36	36.93	51.73	225.0	428.1	53.78	15.87	13.81	13.13	12.75	11.46	11.57	10.71	10.93	10.64	11.03	11.02	11.03	10.68	10.95	10.68	10.43	9.853	9.050	8.580	7.988	7.505	7.235	6.732	6.463	5.894	5.346	5.107	4.813	4.665	4.442	4.074	3.895	3.712	3.346	3.041	3.071	3.551	3.543	3.016	2.615	2.464	2.309	2.109	2.016	1.831	1.840	1.674	1.666	1.543	1.559	1.625	1.847	3.976	8.570	19.90	103.3	180.3	27.08	1.052	0.510	0.457
585.0	22.48	27.97	27.99	26.61	24.97	27.77	30.39	32.35	40.14	47.42	36.18	33.69	33.36	104.4	390.2	182.1	13.05	12.13	11.32	10.69	9.824	9.598	9.330	9.664	9.291	8.763	9.155	9.342	9.587	9.205	9.262	8.530	8.106	7.465	7.052	6.532	6.229	5.767	5.589	5.335	5.049	4.687	4.310	4.013	3.866	3.842	3.499	3.349	3.092	2.772	2.584	2.565	2.636	3.149	2.919	2.426	2.234	1.952	1.860	1.793	1.656	1.634	1.667	1.493	1.307	1.274	1.369	1.256	1.672	2.662	5.096	26.20	119.2	203.7	18.51	0.663	0.470
590.0	21.41	23.19	25.42	25.00	22.37	23.48	25.00	25.98	30.92	41.68	38.70	31.33	28.07	40.89	198.7	336.0	44.54	9.854	9.270	8.437	8.043	7.842	7.511	7.690	7.508	7.160	7.336	7.368	7.294	7.093	7.189	6.708	6.517	6.056	5.648	5.376	5.117	4.591	4.554	4.239	4.096	3.778	3.574	3.455	3.300	3.161	2.848	2.782	2.448	2.349	2.132	2.047	2.008	2.271	2.434	2.286	1.922	1.691	1.614	1.452	1.373	1.335	1.367	1.383	1.208	1.213	1.200	1.024	1.081	1.239	1.685	6.357	30.04	112.1	110.9	45.07	2.632
595.0	20.27	23.46	22.55	20.91	20.08	20.63	21.62	23.09	25.73	33.11	40.31	31.08	25.18	22.70	65.10	251.1	229.2	9.957	7.668	6.985	6.455	6.264	5.797	6.135	5.887	5.717	5.857	6.092	5.864	5.681	5.789	5.452	5.112	4.940	4.338	4.097	4.070	3.725	3.736	3.382	3.267	2.982	2.864	2.800	2.596	2.484	2.331	2.207	2.086	1.903	1.793	1.665	1.541	1.701	1.807	1.998	1.849	1.526	1.367	1.292	1.207	1.093	1.073	1.160	1.116	1.052	1.022	0.934	0.833	0.903	0.900	1.897	7.139	25.50	43.48	111.6	27.66
600.0	20.96	21.51	21.01	20.74	17.88	16.22	18.38	20.41	23.35	26.68	38.41	32.54	24.97	18.81	24.83	132.8	329.1	38.51	6.469	5.849	5.743	5.084	4.917	5.059	5.092	4.942	4.801	4.829	4.922	5.080	4.490	4.696	4.301	3.941	3.606	3.455	3.343	3.194	3.205	2.882	2.882	2.509	2.558	2.285	2.173	2.094	1.996	1.890	1.694	1.608	1.554	1.436	1.375	1.372	1.450	1.704	1.780	1.476	1.209	1.157	1.063	1.036	0.975	0.977	0.910	0.931	0.839	0.853	0.818	0.784	0.708	0.841	2.003	6.049	10.48	53.33	105.5
605.0	24.25	22.46	22.19	18.49	15.82	16.82	18.18	19.10	21.02	23.56	33.35	35.37	24.89	17.33	15.56	55.59	281.6	147.0	5.987	4.949	4.927	4.459	4.392	4.601	4.485	4.188	4.336	4.420	4.092	4.326	3.980	3.929	3.717	3.441	3.270	3.046	2.874	2.729	2.610	2.431	2.253	2.369	2.184	2.107	1.931	1.749	1.820	1.655	1.583	1.453	1.353	1.284	1.221	1.163	1.197	1.454	1.578	1.413	1.210	1.029	0.983	0.934	0.859	0.819	0.912	0.873	0.921	0.779	0.670	0.677	0.576	0.645	0.835	1.734	2.695	13.52	66.33
610.0	20.29	20.68	19.69	17.27	14.36	15.47	16.94	16.73	18.30	22.84	28.60	35.41	26.12	17.00	12.96	20.06	128.3	261.4	35.51	4.493	4.074	3.618	3.747	3.668	3.588	3.590	3.522	3.645	3.527	3.575	3.172	3.285	3.032	3.002	2.697	2.534	2.441	2.205	2.015	2.025	1.900	1.831	1.775	1.681	1.613	1.512	1.446	1.336	1.337	1.199	1.160	1.076	1.036	1.082	0.982	1.041	1.241	1.325	1.150	0.905	0.829	0.828	0.829	0.764	0.775	0.723	0.807	0.760	0.668	0.641	0.549	0.524	0.555	0.721	0.968	3.355	16.80
615.0	18.35	23.04	19.20	15.67	13.57	14.50	14.44	15.00	16.55	20.83	24.57	29.75	29.07	16.11	11.84	11.18	38.22	178.7	189.0	6.110	3.415	3.089	2.943	2.884	2.935	2.982	2.863	2.691	2.649	2.889	2.667	2.609	2.443	2.448	2.194	2.111	1.961	1.893	1.730	1.681	1.492	1.426	1.332	1.424	1.402	1.277	1.256	1.154	1.113	0.988	0.965	0.898	0.866	0.837	0.841	0.859	0.932	1.005	1.094	0.808	0.759	0.648	0.707	0.636	0.647	0.618	0.623	0.653	0.662	0.581	0.524	0.503	0.483	0.510	0.561	1.132	4.061
620.0	20.43	21.23	19.10	15.55	12.19	13.54	14.10	15.11	15.17	18.84	22.57	28.14	28.57	17.87	11.07	9.026	13.54	84.83	262.9	36.31	2.991	2.785	2.512	2.537	2.598	2.516	2.524	2.604	2.343	2.388	2.510	2.134	2.112	1.918	1.793	1.787	1.682	1.494	1.448	1.473	1.345	1.346	1.203	1.301	1.111	1.064	1.094	0.992	1.020	0.840	0.825	0.863	0.735	0.733	0.703	0.730	0.787	0.810	0.920	0.836	0.758	0.607	0.607	0.636	0.602	0.580	0.569	0.571	0.602	0.573	0.515	0.463	0.484	0.454	0.415	0.536	1.274
625.0	21.07	18.98	17.81	14.52	12.40	11.58	12.72	13.86	14.82	17.04	21.29	23.48	27.30	19.43	10.84	7.995	7.440	32.28	206.4	139.5	3.055	2.642	2.401	2.340	2.375	2.174	2.231	2.007	2.027	2.169	2.193	1.928	1.807	1.660	1.497	1.561	1.517	1.342	1.394	1.324	1.170	1.190	1.104	1.029	1.065	0.982	0.930	0.919	0.855	0.702	0.722	0.679	0.738	0.670	0.666	0.637	0.645	0.718	0.821	0.749	0.720	0.585	0.626	0.606	0.629	0.525	0.592	0.501	0.550	0.576	0.521	0.410	0.490	0.428	0.410	0.409	0.662
630.0	20.32	18.40	19.05	13.93	11.30	10.96	11.87	13.42	15.61	16.46	19.52	21.32	22.91	21.31	11.73	7.817	6.250	11.00	84.71	218.5	30.98	2.286	2.049	2.007	1.895	1.952	1.827	1.685	1.762	1.756	1.684	1.564	1.630	1.500	1.350	1.314	1.333	1.123	1.156	1.042	0.960	0.914	0.881	0.942	0.894	0.798	0.768	0.864	0.722	0.596	0.635	0.615	0.649	0.584	0.594	0.609	0.549	0.623	0.628	0.681	0.736	0.600	0.609	0.543	0.515	0.541	0.496	0.514	0.497	0.493	0.539	0.477	0.441	0.398	0.413	0.398	0.450
635.0	21.38	19.79	17.32	13.36	10.68	11.89	11.13	13.16	13.66	16.22	19.12	21.59	20.64	20.87	14.59	7.746	6.211	5.701	23.40	127.9	165.6	4.108	1.832	1.783	1.514	1.712	1.586	1.488	1.417	1.532	1.380	1.391	1.320	1.248	1.179	0.987	1.050	1.021	1.061	0.885	0.879	0.760	0.810	0.753	0.762	0.743	0.677	0.688	0.668	0.530	0.563	0.559	0.562	0.533	0.513	0.513	0.570	0.522	0.501	0.513	0.628	0.612	0.671	0.506	0.469	0.479	0.460	0.462	0.466	0.502	0.470	0.460	0.410	0.431	0.362	0.365	0.395
640.0	20.15	20.74	18.58	12.84	10.80	10.84	11.54	13.42	14.13	15.83	19.46	19.99	19.57	19.81	16.80	8.845	6.176	4.697	7.864	54.52	215.3	31.34	1.728	1.680	1.491	1.560	1.450	1.366	1.412	1.246	1.256	1.280	1.201	1.048	1.051	0.971	0.973	0.943	1.005	0.834	0.773	0.685	0.775	0.679	0.632	0.617	0.649	0.650	0.535	0.519	0.483	0.515	0.464	0.460	0.466	0.498	0.481	0.460	0.487	0.536	0.487	0.530	0.562	0.489	0.478	0.416	0.462	0.473	0.437	0.465	0.421	0.416	0.428	0.458	0.392	0.366	0.344
645.0	20.61	20.54	17.20	12.99	10.46	11.08	11.27	11.71	14.03	15.92	18.36	19.16	18.53	17.55	17.90	10.06	6.372	4.804	4.547	18.82	157.8	118.6	2.118	1.481	1.475	1.279	1.270	1.195	1.180	1.158	1.288	1.094	1.117	1.007	0.940	0.815	0.880	0.845	0.864	0.794	0.732	0.655	0.717	0.693	0.576	0.607	0.574	0.593	0.529	0.517	0.444	0.455	0.447	0.479	0.455	0.465	0.426	0.438	0.452	0.406	0.471	0.478	0.520	0.482	0.492	0.430	0.473	0.448	0.461	0.441	0.388	0.406	0.475	0.471	0.352	0.398	0.347
650.0	20.44	22.46	18.33	14.03	10.54	11.17	10.72	10.28	12.84	15.31	18.80	18.47	18.15	17.08	17.75	11.67	6.747	4.661	4.226	6.679	75.14	192.9	12.39	1.409	1.394	1.217	1.180	1.033	1.112	1.055	1.111	1.134	1.059	0.897	0.949	0.793	0.847	0.806	0.792	0.690	0.634	0.621	0.684	0.640	0.549	0.575	0.536	0.519	0.495	0.473	0.460	0.388	0.415	0.430	0.427	0.388	0.438	0.476	0.446	0.396	0.483	0.497	0.513	0.498	0.542	0.439	0.430	0.420	0.463	0.418	0.437	0.414	0.422	0.394	0.374	0.426	0.353
