Sample:	'1
File name:	Default_20231010_191005.FD3
Run date:	'19:03:44, 10/10/2023
Operator:	dsjg
Comment:	'

Instrument
Model:	F-2700 FL Spectrophotometer
Serial number:	2198-001
ROM Version:	4J14000 07

Instrument parameters
Measurement type:	3-D scan
Data mode:	Fluorescence
EX  Start WL:	220.0 nm
EX  End WL:	600.0 nm
EX Sampling interval:	5.0 nm
EM  Start WL:	230.0 nm
EM  End WL:	650.0 nm
EM Sampling interval:	5.0 nm
Scan speed:	12000 nm/min
EX Slit:	5.0 nm
EM Slit:	5.0 nm
PMT Voltage:	700 V
Response:	Auto 
Corrected spectra:	Off
Contour interval:	50.000

Peak integration
Integration method:	Rectangular
Sensitivity:	1
Threshold:	1.000

Peaks
No.	ApexEX/EM(nm)	Height(Data)
1	235.0/355.0	771.7
2	240.0/265.0	97.65
3	240.0/645.0	4.514
4	245.0/270.0	88.75
5	255.0/285.0	131.2
6	260.0/290.0	149.1
7	265.0/295.0	198.6
8	270.0/300.0	275.0
9	275.0/305.0	323.3
10	275.0/435.0	 3316
11	280.0/310.0	328.4
12	280.0/620.0	24.97
13	285.0/320.0	346.0
14	320.0/360.0	609.2
15	330.0/430.0	 1999
16	570.0/430.0	11.16
17	575.0/425.0	11.15
18	580.0/435.0	11.20
19	585.0/420.0	10.98

Data points
	220.0	225.0	230.0	235.0	240.0	245.0	250.0	255.0	260.0	265.0	270.0	275.0	280.0	285.0	290.0	295.0	300.0	305.0	310.0	315.0	320.0	325.0	330.0	335.0	340.0	345.0	350.0	355.0	360.0	365.0	370.0	375.0	380.0	385.0	390.0	395.0	400.0	405.0	410.0	415.0	420.0	425.0	430.0	435.0	440.0	445.0	450.0	455.0	460.0	465.0	470.0	475.0	480.0	485.0	490.0	495.0	500.0	505.0	510.0	515.0	520.0	525.0	530.0	535.0	540.0	545.0	550.0	555.0	560.0	565.0	570.0	575.0	580.0	585.0	590.0	595.0	600.0
230.0	2.480	246.1	414.9	83.86	-1.409	-2.468	-1.276	-1.233	-0.981	-0.484	-0.207	-0.034	0.201	0.353	0.274	0.156	0.211	0.172	0.130	0.421	0.361	0.434	0.397	0.378	0.355	0.308	0.258	0.143	0.163	0.072	0.067	0.094	0.053	0.022	0.068	0.070	0.127	0.096	0.026	-0.039	-0.027	-0.070	-0.058	-0.060	-0.024	-0.060	-0.046	0.186	1.003	1.374	0.657	0.003	-0.115	-0.107	-0.145	-0.169	-0.194	-0.188	-0.220	-0.203	-0.235	-0.219	-0.237	-0.220	-0.245	-0.232	-0.257	-0.230	-0.277	-0.255	-0.287	-0.306	-0.270	-0.288	-0.312	-0.349	-0.302
235.0	-4.401	76.28	455.0	562.4	153.8	0.285	-1.631	-0.409	-0.875	0.532	-0.067	0.009	0.728	0.216	0.105	0.257	0.255	0.187	0.314	0.370	0.317	0.443	0.452	0.365	0.356	0.363	0.316	0.029	0.259	0.109	0.154	0.176	0.063	0.029	-0.024	-0.017	0.089	0.059	0.031	-0.008	0.036	-0.074	-0.099	-0.012	-0.110	0.036	0.000	0.000	0.230	1.060	2.076	2.919	1.439	0.156	-0.121	-0.197	-0.185	-0.214	-0.186	-0.230	-0.232	-0.222	-0.234	-0.209	-0.247	-0.219	-0.265	-0.258	-0.261	-0.284	-0.304	-0.280	-0.322	-0.262	-0.353	-0.306	-0.287
240.0	-1.546	16.44	190.0	750.7	502.1	113.4	-0.980	-1.369	-1.033	0.091	-0.033	0.270	0.393	-0.085	0.308	0.542	0.281	0.200	0.401	0.473	0.401	0.524	0.422	0.304	0.373	0.314	0.312	0.197	0.181	0.128	0.175	0.062	0.141	0.010	0.005	0.002	-0.026	0.059	0.033	0.104	0.022	-0.065	-0.074	0.065	-0.067	0.032	-0.070	-0.005	-0.019	0.295	0.923	3.101	4.359	3.473	1.141	-0.092	-0.119	-0.203	-0.179	-0.238	-0.248	-0.271	-0.217	-0.205	-0.300	-0.242	-0.270	-0.270	-0.326	-0.323	-0.282	-0.237	-0.297	-0.266	-0.273	-0.293	-0.281
245.0	3.939	12.48	43.02	364.0	 1107	408.9	64.12	0.128	-0.559	0.116	0.234	0.833	0.417	0.216	0.066	0.542	0.458	0.433	0.376	0.357	0.530	0.309	0.555	0.235	0.490	0.340	0.358	0.285	0.179	0.143	0.273	0.047	0.047	-0.019	0.066	-0.029	-0.017	0.006	0.117	0.056	-0.052	0.014	-0.052	-0.044	-0.049	0.006	0.012	0.044	-0.062	0.064	0.200	0.962	2.704	5.431	5.869	3.236	0.532	-0.114	-0.218	-0.272	-0.240	-0.176	-0.184	-0.110	-0.301	-0.245	-0.261	-0.239	-0.267	-0.346	-0.325	-0.277	-0.299	-0.259	-0.303	-0.210	-0.292
250.0	-3.831	23.61	39.46	95.31	483.4	975.6	828.2	140.8	6.964	1.598	0.744	0.705	0.640	0.504	0.258	0.468	0.399	0.311	0.354	0.386	0.445	0.528	0.537	0.376	0.470	0.306	0.374	0.313	0.208	0.123	0.157	0.088	0.066	-0.009	-0.011	-0.029	-0.022	-0.058	0.011	0.002	0.024	0.136	-0.063	-0.052	-0.049	0.045	-0.029	0.018	0.070	0.054	0.085	0.173	0.588	1.744	3.400	5.180	6.515	5.375	2.749	0.630	-0.167	-0.170	-0.212	-0.190	-0.267	-0.169	-0.253	-0.263	-0.238	-0.250	-0.315	-0.256	-0.335	-0.266	-0.324	-0.287	-0.340
255.0	-3.327	6.887	45.66	72.12	119.5	309.4	 1108	 1453	197.5	7.794	1.286	1.214	0.876	0.624	0.501	0.664	0.435	0.409	0.402	0.437	0.519	0.551	0.411	0.442	0.526	0.492	0.466	0.320	0.169	0.169	0.163	0.185	0.091	0.002	-0.035	-0.005	-0.022	-0.076	-0.045	-0.093	0.048	0.123	-0.031	-0.055	-0.074	-0.055	0.002	-0.003	-0.022	0.112	0.250	0.263	0.137	0.324	0.680	1.156	2.543	6.008	9.784	9.960	4.258	0.611	-0.145	-0.206	-0.266	-0.208	-0.197	-0.259	-0.252	-0.254	-0.232	-0.255	-0.325	-0.250	-0.284	-0.358	-0.267
260.0	-3.274	-2.226	23.17	82.09	67.98	76.94	434.7	 1588	 1414	147.1	4.342	1.982	1.460	1.056	0.679	0.791	0.540	0.656	0.581	0.398	0.633	0.484	0.646	0.471	0.544	0.548	0.370	0.426	0.225	0.204	0.201	0.051	0.076	0.094	-0.031	0.054	-0.078	-0.090	-0.020	-0.093	-0.117	0.216	-0.072	0.047	0.019	-0.033	0.048	0.015	-0.065	-0.033	0.119	0.395	0.326	0.203	0.064	0.193	0.440	1.536	4.768	9.692	12.04	8.646	2.525	0.056	-0.276	-0.234	-0.224	-0.257	-0.300	-0.301	-0.239	-0.339	-0.297	-0.250	-0.269	-0.314	-0.233
265.0	-5.790	-6.411	2.640	50.11	97.65	45.81	107.8	700.2	 1922	 1286	108.3	3.026	1.796	0.661	1.072	0.919	0.394	0.671	0.504	0.480	0.470	0.582	0.596	0.464	0.541	0.484	0.466	0.411	0.192	0.217	0.076	0.172	0.107	0.099	0.075	0.098	-0.044	-0.101	-0.106	-0.088	-0.055	0.264	-0.065	-0.033	0.010	0.003	-0.054	-0.012	0.026	-0.018	0.058	0.080	0.289	0.353	0.214	0.048	0.019	0.302	1.032	3.089	7.180	12.80	12.97	7.250	1.326	-0.174	-0.210	-0.259	-0.300	-0.276	-0.296	-0.337	-0.254	-0.319	-0.302	-0.282	-0.315
270.0	-3.769	-5.451	-0.377	13.29	61.60	88.75	63.82	173.7	735.5	 1669	 1659	495.5	23.89	1.980	1.538	1.166	0.789	0.884	0.663	0.611	0.590	0.571	0.675	0.623	0.584	0.497	0.391	0.262	0.244	0.216	0.177	0.160	0.104	0.106	-0.053	0.053	0.014	0.044	-0.117	-0.062	-0.100	0.086	-0.002	-0.034	0.053	0.029	-0.005	-0.038	-0.033	-0.045	-0.001	-0.061	0.051	0.140	0.234	0.417	0.349	0.168	0.156	0.566	1.586	3.852	7.059	10.88	12.41	10.28	5.181	1.213	-0.193	-0.255	-0.253	-0.288	-0.230	-0.280	-0.308	-0.271	-0.317
275.0	4.984	5.142	7.762	7.067	17.61	60.56	111.8	86.26	178.6	479.0	 1549	 2359	705.4	20.18	2.266	1.796	1.075	1.106	0.865	0.840	0.719	0.922	0.583	0.715	0.508	0.422	0.569	0.397	0.343	0.204	0.121	0.171	0.149	0.105	0.028	0.036	0.196	-0.042	-0.138	0.015	-0.134	-0.032	-0.033	-0.082	-0.044	-0.010	0.001	0.085	0.004	-0.027	-0.042	-0.056	-0.002	-0.036	-0.038	0.155	0.385	0.641	0.515	0.152	0.283	0.802	1.518	2.570	4.419	9.233	14.91	15.89	7.827	1.213	-0.144	-0.281	-0.305	-0.279	-0.264	-0.360	-0.383
280.0	6.141	11.12	13.59	12.65	9.185	25.17	95.71	122.5	79.00	130.9	541.3	 2053	 2326	117.6	9.326	2.395	1.389	1.392	0.852	1.106	0.754	0.881	0.714	0.714	0.721	0.608	0.489	0.320	0.493	0.287	0.176	0.184	0.213	0.145	0.080	0.037	0.247	-0.066	-0.033	-0.107	0.003	-0.007	-0.091	-0.139	-0.079	0.035	0.114	0.043	0.104	0.020	-0.001	-0.027	-0.054	-0.047	-0.082	-0.054	0.088	0.392	0.723	0.597	0.203	0.133	0.276	0.520	0.964	2.528	6.384	13.61	18.51	13.46	4.488	0.223	-0.286	-0.312	-0.268	-0.297	-0.385
285.0	14.83	27.04	28.42	19.78	11.74	15.73	51.03	131.2	118.7	72.04	161.0	785.8	 2292	 1970	92.10	4.088	2.034	1.522	1.132	1.028	0.951	1.018	0.884	0.824	0.594	0.637	0.564	0.362	0.315	0.296	0.229	0.285	0.230	0.091	0.121	0.056	0.190	-0.005	-0.048	-0.078	0.016	-0.094	-0.112	-0.131	-0.105	-0.001	0.148	0.127	0.074	0.108	0.090	0.072	-0.067	-0.089	-0.107	-0.007	-0.010	0.024	0.284	0.630	0.723	0.580	0.173	0.136	0.138	0.551	1.461	4.017	9.534	16.07	17.95	11.02	1.991	-0.152	-0.280	-0.220	-0.311
290.0	21.28	45.08	46.45	32.71	22.54	23.19	36.03	79.31	149.1	146.9	114.1	242.6	800.7	 1734	 2008	372.6	22.94	2.424	1.566	1.490	1.175	1.067	1.051	0.852	0.904	0.774	0.533	0.421	0.361	0.430	0.250	0.283	0.172	0.117	0.186	0.130	0.272	-0.003	-0.055	-0.063	-0.069	-0.198	-0.101	-0.120	-0.104	-0.016	0.071	0.155	0.143	0.191	0.142	0.108	0.024	-0.058	-0.045	0.046	-0.037	-0.015	0.088	0.195	0.433	0.682	0.798	0.591	0.306	0.354	0.534	0.991	2.264	4.688	8.414	13.21	14.70	12.57	7.076	1.429	-0.216
295.0	33.22	65.73	64.98	51.58	38.53	37.28	44.34	63.56	111.0	198.6	198.3	167.0	264.0	496.8	 1299	 2429	577.9	24.82	2.459	1.715	1.344	1.519	1.220	1.198	0.874	0.675	0.577	0.585	0.343	0.459	0.345	0.311	0.166	0.112	0.103	0.104	0.252	0.113	-0.087	-0.074	-0.107	-0.046	-0.137	-0.059	0.006	-0.006	0.069	0.085	0.143	0.147	0.253	0.162	0.004	0.049	0.018	0.052	0.042	0.049	0.082	0.104	0.268	0.351	0.617	0.875	1.158	0.945	0.517	0.577	0.753	1.300	2.010	3.217	4.975	9.850	18.23	19.28	9.201
300.0	34.18	75.44	78.27	62.35	52.76	48.72	55.08	72.27	101.8	180.3	275.0	233.8	176.8	196.8	434.7	 1659	 2652	457.0	10.52	2.747	1.868	1.811	1.232	1.372	0.992	0.642	0.814	0.594	0.543	0.426	0.432	0.318	0.344	0.250	0.171	0.167	0.142	0.109	-0.044	-0.014	-0.003	-0.073	-0.122	-0.051	-0.041	0.020	0.074	0.024	0.211	0.250	0.337	0.179	0.166	0.153	0.197	0.075	0.170	0.082	0.124	0.213	0.300	0.351	0.541	0.599	1.059	1.485	1.210	0.790	0.643	0.656	0.709	0.963	1.250	2.689	7.325	15.56	22.94
305.0	34.69	77.95	90.76	80.50	65.01	57.22	70.95	88.88	113.5	167.4	268.4	323.3	220.6	153.0	173.3	573.8	 2022	 2588	64.36	5.234	2.356	1.926	1.555	1.394	1.210	1.045	0.686	0.765	0.567	0.439	0.552	0.379	0.254	0.265	0.144	0.137	0.122	0.055	-0.043	-0.001	-0.086	-0.037	-0.093	-0.141	-0.028	-0.050	0.041	0.120	0.224	0.243	0.355	0.249	0.178	0.214	0.178	0.211	0.174	0.237	0.306	0.395	0.289	0.479	0.611	0.588	0.772	1.284	1.598	1.693	1.160	0.714	0.680	0.561	0.699	0.794	1.786	4.704	11.14
310.0	42.64	81.08	100.3	92.82	74.75	76.06	89.24	108.1	138.0	180.8	240.0	316.3	328.4	217.4	140.4	188.0	625.3	 1701	 2227	972.5	19.88	2.639	1.976	1.724	1.510	1.249	0.833	0.802	0.746	0.467	0.514	0.446	0.232	0.252	0.263	0.203	0.128	0.104	0.019	-0.008	-0.058	-0.050	-0.103	-0.050	-0.064	-0.005	0.086	0.109	0.211	0.206	0.301	0.330	0.279	0.269	0.261	0.248	0.322	0.378	0.260	0.405	0.395	0.564	0.631	0.704	0.883	1.035	1.170	1.517	1.743	1.389	1.113	0.765	0.638	0.493	0.558	1.048	2.638
315.0	45.94	91.19	118.2	105.8	88.99	95.14	109.3	130.5	161.4	206.3	249.3	290.1	327.8	328.8	192.5	121.2	190.7	435.2	 1086	 2728	442.4	23.53	3.093	2.416	1.900	1.215	1.046	0.864	0.754	0.642	0.658	0.616	0.339	0.197	0.225	0.232	0.198	0.083	0.023	0.033	-0.048	-0.028	-0.059	-0.080	-0.082	0.004	0.034	0.096	0.226	0.247	0.238	0.351	0.240	0.391	0.350	0.356	0.390	0.404	0.441	0.423	0.643	0.699	0.796	0.860	1.003	0.983	1.180	1.334	1.614	1.531	1.868	1.524	0.934	0.636	0.467	0.386	0.721
320.0	53.95	106.6	128.8	118.9	105.9	103.2	126.4	147.1	184.8	227.6	269.2	298.1	313.1	346.0	279.1	138.9	110.7	143.7	320.5	 1478	 2861	385.0	14.17	3.702	2.244	1.760	1.258	1.164	0.799	0.590	0.668	0.554	0.362	0.379	0.267	0.310	0.272	0.109	0.071	0.109	-0.034	0.003	-0.034	-0.061	0.034	0.020	0.152	0.220	0.318	0.313	0.353	0.308	0.340	0.280	0.321	0.390	0.371	0.438	0.533	0.551	0.679	0.831	0.879	0.937	1.094	1.051	1.231	1.328	1.262	1.340	1.580	1.869	1.724	0.978	0.616	0.503	0.451
325.0	63.06	130.5	167.7	151.8	123.0	121.1	137.2	166.0	203.5	251.6	294.5	323.3	321.2	327.4	325.2	211.2	117.1	93.93	115.4	451.4	 1908	 2907	307.8	10.75	3.694	2.107	1.515	1.409	0.851	0.673	0.847	0.628	0.526	0.365	0.318	0.291	0.258	0.068	0.115	0.133	0.069	-0.081	-0.045	-0.074	-0.009	0.076	0.177	0.187	0.364	0.352	0.370	0.469	0.359	0.426	0.458	0.481	0.483	0.646	0.513	0.737	0.778	0.952	0.917	0.983	1.233	1.290	1.285	1.388	1.433	1.391	1.457	1.595	1.649	1.803	1.298	0.825	0.476
330.0	83.24	195.2	278.2	284.1	221.4	184.6	178.3	197.8	248.7	300.2	348.1	385.0	388.0	365.3	342.1	313.3	232.5	157.0	134.3	216.0	629.8	 1804	 2587	 1163	26.66	5.833	2.567	1.764	1.183	1.055	0.938	0.652	0.547	0.394	0.343	0.222	0.296	0.071	0.129	0.083	0.063	0.019	0.030	0.019	-0.022	0.129	0.210	0.414	0.624	0.757	0.782	0.887	0.839	0.778	0.758	0.702	0.819	0.808	0.847	0.873	1.042	1.078	1.223	1.335	1.390	1.669	1.735	1.716	1.873	1.747	1.737	1.716	1.652	1.738	1.760	1.680	1.377
335.0	121.0	310.1	476.2	518.1	426.0	309.8	250.8	259.7	307.3	374.9	444.4	485.1	497.2	471.4	421.5	377.1	390.1	322.7	275.0	330.2	443.7	697.8	 1398	 3384	 1682	33.62	5.718	2.906	1.954	1.370	1.397	0.887	0.756	0.679	0.440	0.360	0.314	0.268	0.205	0.166	0.081	0.136	0.026	0.094	0.096	0.200	0.317	0.684	0.921	1.225	1.356	1.910	1.859	1.587	1.447	1.292	1.212	1.005	1.014	1.218	1.333	1.322	1.511	1.844	1.951	2.091	2.280	2.166	2.459	2.251	2.315	2.319	2.434	1.996	2.093	1.991	2.516
340.0	148.7	354.1	575.1	659.7	572.3	401.5	301.8	297.4	353.3	416.9	488.2	542.2	554.7	536.7	481.4	421.3	421.4	438.4	364.6	395.3	448.5	493.9	727.6	 1965	 3631	355.4	20.88	4.243	2.482	1.640	1.503	1.087	0.800	0.712	0.477	0.458	0.337	0.251	0.242	0.118	0.148	0.101	0.076	0.239	0.109	0.407	0.516	0.867	1.180	1.550	1.862	2.409	2.551	2.368	2.017	1.751	1.367	1.329	1.297	1.347	1.502	1.584	1.788	2.016	2.062	2.136	2.599	2.837	2.730	2.810	2.730	2.717	2.710	2.447	2.448	2.167	2.302
345.0	171.8	381.9	615.8	716.1	640.3	464.1	339.8	323.3	376.4	441.8	508.5	569.4	585.4	568.5	518.9	455.4	429.0	468.1	449.6	427.4	461.6	464.1	546.7	882.3	 2377	 2852	291.8	8.397	3.187	1.937	1.582	1.184	0.893	0.648	0.660	0.398	0.462	0.321	0.224	0.163	0.183	0.126	0.074	0.172	0.257	0.321	0.433	0.819	1.363	1.646	1.992	2.554	2.759	2.586	2.276	1.982	1.622	1.474	1.357	1.351	1.667	1.771	2.020	2.144	2.198	2.490	2.577	2.681	2.863	2.945	3.079	2.890	3.013	2.555	2.386	2.389	2.516
350.0	169.8	391.0	641.0	763.6	676.9	525.0	393.4	372.8	407.8	475.9	546.2	597.6	616.6	602.3	556.5	498.4	463.5	470.4	506.7	529.0	507.0	480.7	534.6	587.6	825.3	 1818	 2540	 1092	19.64	3.391	2.122	1.462	1.266	0.921	0.605	0.555	0.510	0.298	0.246	0.155	0.129	0.096	0.168	0.157	0.231	0.310	0.508	0.884	1.427	1.658	2.002	2.664	2.893	2.806	2.393	2.069	1.918	1.626	1.625	1.714	1.779	1.940	2.224	2.085	2.412	2.508	2.736	2.994	3.010	3.102	3.059	3.157	3.176	2.958	2.860	2.702	2.729
355.0	174.8	388.2	636.9	771.7	724.4	578.9	446.5	416.5	447.4	512.0	570.0	628.5	639.6	630.9	592.9	541.6	509.0	497.7	506.4	576.7	578.8	505.0	528.5	519.1	423.9	513.7	 1078	 3151	 1602	25.21	3.224	2.150	1.576	1.123	0.774	0.789	0.389	0.408	0.165	0.347	0.180	0.159	0.081	0.156	0.217	0.285	0.504	0.891	1.314	1.788	2.083	2.838	2.972	3.045	2.595	2.260	2.114	1.843	1.823	1.848	2.092	2.065	2.447	2.600	2.470	2.837	2.843	3.046	2.906	3.003	2.929	3.476	3.441	3.239	3.045	3.113	2.925
360.0	174.0	375.1	623.7	760.5	728.3	604.9	482.6	455.7	485.1	536.4	597.8	648.0	652.0	643.4	611.0	567.0	536.8	518.8	515.3	556.6	609.2	532.5	506.1	480.4	342.3	232.0	319.4	 1572	 3523	340.9	15.69	2.839	1.861	1.546	1.057	0.688	0.555	0.499	0.335	0.318	0.240	0.197	0.145	0.100	0.202	0.417	0.448	0.794	1.314	1.644	2.091	2.792	3.007	2.989	2.720	2.546	2.282	2.131	2.055	2.096	2.353	2.290	2.777	2.766	2.863	2.940	3.078	3.113	3.235	3.048	3.120	3.287	3.514	3.237	3.281	3.440	3.239
365.0	164.0	363.5	613.4	736.6	716.3	629.2	514.3	494.1	512.4	552.8	608.9	656.3	667.3	657.6	627.7	589.3	566.1	544.0	532.2	549.6	592.6	574.7	505.9	462.2	327.0	187.1	145.6	448.6	 2245	 2776	278.0	7.021	2.621	1.678	1.179	0.820	0.534	0.491	0.376	0.304	0.343	0.157	0.212	0.069	0.230	0.400	0.404	0.883	1.396	1.574	1.963	2.749	2.982	2.884	2.825	2.502	2.556	2.483	2.330	2.223	2.344	2.580	2.580	2.884	3.063	2.887	2.989	3.103	3.167	3.076	3.234	3.465	3.504	3.372	3.509	3.219	3.352
370.0	162.9	368.8	595.2	735.6	738.0	665.1	575.8	547.4	563.7	597.9	643.4	683.5	692.1	683.1	652.8	621.7	603.3	589.3	577.4	578.3	581.9	587.6	563.0	477.2	341.1	211.0	140.3	171.6	617.0	 1905	 2642	 1015	17.65	3.138	1.903	1.368	0.856	0.649	0.508	0.400	0.214	0.171	0.213	0.121	0.310	0.288	0.524	0.881	1.292	1.552	1.891	2.693	2.843	2.841	2.882	2.812	2.698	2.604	2.609	2.492	2.524	2.636	2.917	3.002	3.116	3.121	3.047	3.293	3.381	3.282	3.373	3.300	3.615	3.643	3.638	3.564	3.583
375.0	161.9	376.3	589.4	745.5	776.8	720.2	645.6	618.7	624.6	656.0	691.8	724.8	733.6	718.1	689.8	665.7	649.1	645.2	628.8	625.0	609.9	592.0	592.3	545.7	388.5	263.9	188.8	153.3	213.1	482.9	 1191	 3279	 1466	21.91	3.488	2.327	1.566	0.939	0.587	0.504	0.311	0.196	0.248	0.196	0.306	0.381	0.542	0.899	1.293	1.648	1.925	2.597	2.826	2.950	2.905	3.150	3.016	2.942	2.941	3.081	2.986	2.937	3.057	3.070	3.456	3.320	3.300	3.448	3.656	3.669	3.696	3.531	3.724	3.813	4.011	3.783	3.852
380.0	173.9	379.4	602.8	760.5	817.5	772.3	708.0	678.4	677.5	697.8	734.2	762.5	776.8	758.7	723.3	703.6	689.5	689.6	679.2	670.9	656.6	623.5	599.2	589.0	458.9	320.5	240.5	185.2	152.4	181.0	341.2	 1728	 3452	286.0	13.98	4.076	2.565	1.323	0.661	0.557	0.387	0.226	0.337	0.238	0.293	0.440	0.673	0.996	1.395	1.704	1.973	2.664	2.888	3.163	3.115	3.477	3.287	3.256	3.127	3.312	3.172	3.295	3.115	3.276	3.570	3.707	3.457	3.606	3.884	3.837	3.859	3.928	4.051	3.811	3.796	3.912	4.188
385.0	186.1	396.3	629.4	799.9	861.6	839.0	778.0	732.7	734.1	756.9	790.7	808.7	833.4	804.2	765.8	747.0	737.7	736.1	730.3	724.0	703.3	671.7	641.2	618.0	543.4	394.9	299.2	235.0	174.7	145.0	156.0	508.8	 2342	 2314	221.6	8.980	4.735	2.471	1.317	0.872	0.390	0.229	0.234	0.284	0.369	0.464	0.626	0.990	1.492	1.639	2.011	2.889	3.140	3.332	3.389	3.620	3.845	3.761	3.430	3.538	3.562	3.467	3.397	3.416	3.718	3.806	3.695	3.644	3.999	4.127	4.156	4.044	4.142	4.279	4.268	4.172	4.457
390.0	196.6	436.5	674.0	853.8	942.1	950.3	910.5	869.5	860.4	899.1	948.7	974.6	989.3	957.4	909.7	860.6	840.3	834.8	835.2	834.3	822.5	796.1	762.2	718.2	654.4	557.6	436.1	339.0	269.6	212.7	175.7	221.4	674.5	 1668	 2201	790.0	20.15	8.610	3.614	1.489	0.734	0.506	0.445	0.396	0.486	0.608	0.775	1.096	1.570	1.887	2.314	3.195	4.142	3.812	4.002	4.162	4.283	4.055	4.076	4.095	3.959	3.962	3.899	3.782	4.046	4.283	4.346	4.164	4.518	4.536	4.697	4.637	4.818	4.876	4.931	5.133	4.958
395.0	227.8	474.4	768.4	967.7	 1089	 1125	 1107	 1092	 1110	 1201	 1289	 1346	 1278	 1290	 1190	 1088	 1025	997.0	 1003	 1019	 1025	 1013	992.8	942.4	862.9	781.7	680.9	546.8	448.3	358.0	300.2	259.3	308.2	499.0	 1117	 2732	 1145	28.21	10.32	3.702	1.553	0.911	0.609	0.510	0.517	0.689	0.924	1.492	1.749	2.303	2.881	3.745	4.607	4.739	4.610	4.837	5.156	5.190	4.822	4.790	4.802	4.735	4.992	4.709	4.570	5.042	5.089	5.175	5.565	5.670	5.569	5.908	6.074	6.065	6.102	6.031	5.939
400.0	253.6	532.3	857.6	 1067	 1228	 1292	 1288	 1310	 1390	 1547	 1673	 1799	 1763	 1692	 1528	 1350	 1220	 1173	 1180	 1216	 1236	 1250	 1247	 1194	 1117	 1010	924.4	795.1	648.1	544.3	459.8	365.0	323.5	313.9	434.0	 1605	 2795	249.5	23.41	6.895	2.612	1.384	0.745	0.628	0.685	0.810	1.096	1.754	2.054	2.642	3.255	4.374	5.158	5.465	5.546	5.827	5.605	5.780	5.765	5.700	5.554	5.552	5.699	5.699	5.648	6.081	6.253	6.351	6.912	7.196	7.169	7.239	7.464	7.118	7.247	7.236	6.985
405.0	295.2	581.5	931.7	 1184	 1373	 1462	 1482	 1542	 1691	 1927	 2179	 2311	 2274	 2150	 1910	 1637	 1426	 1350	 1359	 1414	 1465	 1502	 1510	 1480	 1390	 1267	 1159	 1044	881.0	751.0	641.2	532.6	437.2	351.3	346.7	615.6	 2019	 1979	196.4	12.92	4.045	1.979	1.257	0.923	0.679	1.039	1.361	2.003	2.448	3.052	3.692	5.091	5.801	6.171	6.215	6.541	6.852	6.669	6.389	6.248	6.186	6.497	6.568	6.667	6.776	6.934	7.583	7.560	8.148	8.183	8.481	8.694	9.128	8.750	8.607	8.568	8.475
410.0	304.9	645.0	 1013	 1309	 1514	 1631	 1695	 1785	 2013	 2357	 2670	 2843	 2776	 2606	 2287	 1928	 1644	 1526	 1536	 1606	 1686	 1753	 1784	 1762	 1673	 1546	 1402	 1273	 1135	978.4	837.8	709.3	583.3	484.2	420.4	416.7	717.2	 1516	 1895	638.2	14.11	3.313	1.842	1.253	1.103	1.289	1.462	2.212	2.791	3.449	4.159	5.828	6.404	6.963	7.124	7.345	7.649	7.593	7.252	7.166	6.972	7.174	7.352	7.523	7.661	8.122	8.425	8.900	9.364	9.842	9.696	10.01	10.29	9.984	9.654	9.313	9.222
415.0	323.0	657.0	 1048	 1354	 1581	 1705	 1796	 1908	 2174	 2563	 2887	 3072	 2996	 2801	 2443	 2043	 1741	 1607	 1618	 1704	 1792	 1873	 1910	 1896	 1810	 1674	 1517	 1367	 1229	 1113	944.0	788.8	656.9	550.2	466.9	398.0	377.9	466.0	997.2	 2192	237.2	14.58	2.953	1.740	1.454	1.394	1.619	2.257	2.987	3.648	4.324	6.020	6.609	7.069	7.374	7.671	7.976	8.046	7.884	7.623	7.525	7.366	7.345	7.624	8.423	8.610	8.823	9.231	9.983	10.48	10.66	10.49	11.09	10.55	10.34	9.800	9.596
420.0	337.3	654.8	 1041	 1385	 1592	 1738	 1822	 1955	 2215	 2608	 2925	 3115	 3036	 2832	 2478	 2067	 1753	 1616	 1634	 1724	 1814	 1904	 1945	 1926	 1839	 1705	 1546	 1385	 1247	 1141	986.7	814.8	672.6	566.4	479.4	394.5	304.8	229.0	302.2	 1289	 1882	212.5	7.443	2.362	1.682	1.625	1.729	2.280	3.195	3.816	4.373	5.802	6.669	7.169	7.637	7.977	8.226	8.198	7.997	7.832	7.473	7.630	7.530	7.829	8.402	8.643	8.870	9.419	9.899	10.37	10.53	10.89	10.76	10.98	10.01	9.985	9.426
425.0	320.8	664.4	 1033	 1380	 1604	 1721	 1835	 1975	 2249	 2650	 2968	 3158	 3067	 2864	 2496	 2075	 1753	 1621	 1641	 1728	 1832	 1915	 1969	 1951	 1863	 1729	 1564	 1408	 1263	 1149	 1018	842.5	695.3	584.6	492.8	403.7	294.9	185.2	135.5	374.7	 1513	 1636	30.61	3.988	2.002	1.946	1.951	2.562	3.050	3.907	4.555	5.954	6.667	7.284	7.426	7.876	8.058	8.178	7.877	7.702	7.848	7.780	7.751	7.894	8.142	8.801	8.974	9.560	10.13	10.65	10.69	11.15	11.06	10.88	9.978	10.26	9.583
430.0	330.4	663.6	 1042	 1373	 1604	 1739	 1866	 1995	 2305	 2724	 3061	 3263	 3150	 2940	 2548	 2117	 1771	 1631	 1650	 1741	 1852	 1948	 1999	 1992	 1905	 1771	 1612	 1457	 1311	 1186	 1051	908.9	753.5	628.3	536.1	440.3	322.6	195.3	112.5	127.9	430.7	 1199	 1436	453.9	10.23	2.549	2.295	2.649	3.354	3.922	4.446	5.959	6.712	7.344	7.546	7.969	8.176	8.325	8.227	7.993	7.643	7.712	7.924	8.096	8.444	9.321	9.068	9.776	10.82	10.86	11.16	10.97	10.96	10.76	10.12	9.838	9.738
435.0	329.2	654.6	 1038	 1350	 1581	 1736	 1876	 2018	 2343	 2765	 3109	 3316	 3196	 2960	 2568	 2115	 1752	 1615	 1626	 1724	 1838	 1939	 1999	 1996	 1918	 1786	 1635	 1482	 1341	 1217	 1079	940.7	806.1	673.1	573.2	479.3	351.9	218.0	122.8	84.82	129.2	294.8	779.0	 1770	218.1	11.09	3.144	3.055	3.359	3.828	4.541	6.149	6.855	7.358	7.350	7.756	8.198	8.311	7.890	7.715	8.072	7.670	7.936	8.363	8.518	9.251	9.115	10.03	10.03	11.10	10.91	10.95	11.20	10.95	10.35	9.823	9.528
440.0	329.8	635.4	 1003	 1316	 1542	 1701	 1832	 1977	 2281	 2705	 3072	 3225	 3112	 2881	 2499	 2057	 1710	 1565	 1582	 1670	 1784	 1883	 1941	 1937	 1869	 1750	 1602	 1455	 1324	 1199	 1064	925.9	806.0	688.3	579.8	483.6	364.1	225.2	130.9	80.72	67.54	91.73	212.4	 1162	 1678	175.3	5.474	3.454	3.372	3.836	4.406	5.989	6.762	6.988	7.416	7.535	7.949	7.886	7.572	7.748	7.672	7.478	7.826	8.044	8.106	8.841	8.944	9.911	9.918	10.30	10.49	10.51	11.01	10.28	10.20	9.715	9.090
445.0	354.0	600.4	943.9	 1256	 1485	 1624	 1748	 1899	 2190	 2579	 2899	 3064	 2947	 2730	 2366	 1939	 1621	 1489	 1509	 1587	 1699	 1788	 1841	 1841	 1773	 1661	 1521	 1385	 1260	 1150	 1018	887.2	772.1	674.5	571.8	468.8	355.6	228.2	136.0	84.88	59.57	51.55	69.35	344.6	 1476	 1370	24.94	4.475	3.736	4.081	4.437	5.945	6.295	6.709	6.928	7.332	7.498	7.519	7.875	7.208	7.351	7.202	7.169	7.686	8.004	8.633	8.500	9.474	9.231	10.24	9.996	10.10	10.18	9.615	9.461	9.094	8.750
450.0	335.9	580.6	878.6	 1149	 1366	 1491	 1602	 1749	 1999	 2331	 2614	 2750	 2646	 2449	 2117	 1750	 1466	 1358	 1370	 1439	 1532	 1616	 1660	 1660	 1601	 1500	 1374	 1256	 1145	 1046	935.0	811.8	702.3	616.5	542.3	445.7	334.7	221.7	140.8	93.00	65.72	50.82	44.11	98.31	419.5	 1157	 1318	386.1	9.657	4.270	4.366	5.508	5.879	6.227	6.591	6.921	6.987	6.870	7.047	6.845	6.833	6.912	6.773	7.012	7.206	7.857	7.905	8.520	8.629	9.033	9.035	9.481	9.266	8.634	8.679	8.311	7.764
455.0	295.5	603.3	803.6	 1052	 1235	 1360	 1454	 1579	 1794	 2080	 2320	 2420	 2335	 2161	 1873	 1551	 1301	 1206	 1224	 1278	 1360	 1431	 1471	 1475	 1416	 1328	 1229	 1117	 1022	943.2	848.3	739.8	640.7	557.5	494.4	424.3	319.5	214.9	144.5	100.9	74.74	56.78	45.75	47.94	113.0	280.6	742.7	 1550	183.8	10.04	4.618	5.053	5.454	5.702	5.997	6.144	6.463	6.363	6.395	6.364	6.411	6.211	6.257	6.380	6.475	6.866	7.207	7.592	7.741	8.107	8.148	8.153	8.358	7.773	7.666	7.320	7.155
460.0	249.7	620.6	809.9	947.3	 1129	 1261	 1347	 1474	 1663	 1915	 2129	 2226	 2127	 1965	 1704	 1420	 1190	 1105	 1115	 1168	 1240	 1304	 1343	 1342	 1295	 1209	 1123	 1029	942.4	868.7	789.1	689.7	599.6	522.6	460.0	405.0	315.6	214.5	146.7	105.6	81.81	62.81	49.24	40.75	48.00	79.04	196.2	 1012	 1417	138.2	6.618	5.124	5.120	5.433	5.595	5.693	6.045	6.089	5.925	5.818	5.796	5.919	5.900	5.691	5.931	6.435	6.533	6.801	7.177	7.345	7.411	7.599	7.555	7.113	6.871	6.579	6.532
465.0	205.5	554.5	838.8	905.8	 1046	 1162	 1256	 1360	 1538	 1769	 1946	 2044	 1950	 1802	 1565	 1299	 1092	 1015	 1021	 1071	 1131	 1189	 1227	 1228	 1181	 1109	 1031	950.4	873.0	811.4	733.6	644.6	563.5	492.2	433.3	379.0	306.5	214.4	148.2	107.1	85.01	66.25	52.61	41.71	35.59	35.89	57.66	292.8	 1272	 1066	21.44	5.791	5.223	5.174	4.971	5.237	5.560	5.728	5.576	5.567	5.299	5.514	5.450	5.548	5.733	6.019	6.174	6.099	6.420	6.583	6.811	7.129	7.036	6.508	6.152	6.069	6.084
470.0	178.7	429.2	839.6	947.1	932.3	 1036	 1117	 1214	 1370	 1553	 1713	 1776	 1705	 1570	 1360	 1133	957.1	886.0	893.8	935.3	984.0	 1032	 1062	 1061	 1028	969.8	901.0	831.4	768.1	717.3	650.5	577.5	506.4	446.5	393.7	339.3	280.7	210.7	149.8	110.0	87.98	70.49	56.85	45.38	36.25	29.15	29.16	77.62	359.7	878.4	974.5	315.6	10.14	5.162	4.845	4.766	5.091	4.962	4.901	4.973	4.922	4.804	4.872	5.177	5.150	5.344	5.373	5.463	5.880	5.989	6.046	6.074	6.125	5.687	5.454	5.177	5.091
475.0	149.2	353.5	663.2	 1069	889.2	916.4	980.2	 1053	 1178	 1337	 1469	 1505	 1433	 1331	 1152	960.5	814.3	761.2	759.7	796.9	836.1	872.2	898.3	896.3	869.9	821.7	764.1	709.5	660.9	617.6	563.1	505.7	443.0	393.7	347.7	302.1	249.5	192.0	150.7	112.8	89.59	73.67	59.81	48.49	39.10	30.58	25.05	31.46	91.06	208.8	507.7	 1100	175.3	10.64	4.476	4.449	4.489	4.454	4.328	4.230	4.386	4.176	4.322	4.411	4.441	4.580	4.728	4.660	5.251	5.114	5.230	5.244	4.982	4.889	4.782	4.338	4.522
480.0	136.5	302.8	514.8	 1022	959.8	817.7	878.8	948.1	 1057	 1183	 1293	 1328	 1263	 1160	 1018	848.7	723.1	673.4	675.9	707.4	739.3	766.6	789.2	785.0	764.7	725.1	674.3	626.9	588.3	550.3	507.1	452.6	400.9	355.1	316.1	276.7	229.0	177.1	146.8	116.7	90.36	74.43	61.58	51.59	41.65	32.49	25.93	22.23	32.41	55.97	131.8	654.9	961.0	149.1	5.962	4.330	3.966	4.073	4.013	3.969	4.005	3.852	3.773	4.117	4.007	4.096	4.240	4.218	4.434	4.482	4.541	4.683	4.521	4.442	4.046	3.925	3.864
485.0	132.7	270.7	455.6	820.4	 1100	785.2	798.1	872.3	951.2	 1072	 1166	 1181	 1131	 1030	902.2	757.8	645.7	602.8	603.0	633.2	659.0	681.8	702.5	699.5	678.5	645.3	599.4	560.3	524.5	495.3	456.6	412.4	365.0	325.6	292.1	251.7	212.1	167.3	136.9	117.5	94.18	75.49	62.50	52.42	43.15	34.64	27.75	21.62	20.37	22.57	37.65	181.1	809.2	924.1	25.09	4.758	3.920	3.748	3.749	3.629	3.371	3.375	3.496	3.544	3.639	3.860	3.731	3.850	4.070	3.895	4.256	4.366	3.974	3.869	3.722	3.672	3.706
490.0	111.2	247.1	393.8	575.9	 1036	905.9	707.0	766.1	839.6	932.4	999.9	 1018	967.1	888.1	771.8	651.6	562.0	524.1	522.8	544.1	566.3	587.1	599.5	600.1	581.7	551.6	516.3	485.0	456.0	431.6	400.3	361.9	323.6	290.5	260.6	228.2	193.0	154.8	127.1	111.5	96.46	79.50	63.99	53.95	44.88	36.62	29.53	23.34	18.81	16.43	17.80	48.22	221.3	667.8	774.3	289.4	10.30	3.851	3.519	3.260	3.253	3.068	3.221	3.295	3.214	3.361	3.335	3.470	3.433	3.440	3.490	3.644	3.457	3.211	3.183	3.073	3.138
495.0	88.23	210.9	331.6	440.8	715.9	 1079	712.9	650.9	721.3	790.7	850.1	865.8	817.6	751.2	652.1	554.4	478.7	452.5	447.6	460.6	477.6	492.8	504.3	504.1	489.0	464.6	437.2	411.0	389.9	372.5	346.3	315.7	286.1	256.3	232.2	205.1	174.6	142.9	117.4	102.1	92.33	81.30	66.45	53.74	46.81	37.89	31.79	25.02	20.15	15.87	14.37	19.15	56.70	158.2	433.7	 1043	197.9	10.23	3.513	3.021	3.036	2.898	2.863	2.903	2.875	2.967	2.798	2.886	2.931	3.000	2.927	2.893	3.026	2.831	2.779	2.578	2.652
500.0	78.43	185.2	307.4	389.7	523.2	982.6	838.8	584.4	635.1	696.4	748.7	759.2	716.9	653.0	568.6	484.9	421.1	396.8	394.1	405.7	415.3	431.7	440.2	436.3	425.7	405.8	381.8	360.0	343.5	327.7	307.5	284.2	255.8	231.8	207.8	185.9	161.5	133.1	110.3	95.61	85.90	80.01	68.68	53.88	46.38	38.72	31.95	26.13	20.64	17.15	14.28	13.53	19.94	41.86	112.2	610.9	 1049	160.4	5.674	2.888	2.780	2.513	2.604	2.582	2.476	2.482	2.620	2.692	2.482	2.613	2.531	2.523	2.504	2.451	2.447	2.347	2.284
505.0	77.01	170.1	278.8	352.8	426.7	735.2	978.2	580.1	570.3	615.1	658.2	663.2	626.1	576.3	498.9	428.9	376.5	350.1	348.5	359.5	368.4	380.8	384.2	383.4	374.9	356.7	336.5	318.9	303.3	290.8	274.1	253.9	228.9	209.0	188.9	168.7	147.6	122.7	104.6	90.58	79.95	73.81	67.88	55.31	46.23	38.60	31.75	26.97	21.82	18.02	14.63	12.76	12.69	16.30	31.56	166.7	813.1	820.0	27.28	3.556	2.785	2.335	2.408	2.402	2.272	2.322	2.171	2.262	2.264	2.411	2.406	2.208	2.076	2.169	2.097	2.016	2.240
510.0	59.93	136.2	236.9	300.5	355.9	467.3	859.7	750.7	495.9	521.9	552.9	559.8	526.8	481.1	419.7	358.4	319.4	295.2	295.5	300.1	307.7	314.4	318.4	318.4	310.1	296.2	281.1	267.7	255.9	246.0	233.1	216.1	196.3	179.8	163.8	148.3	129.3	110.4	94.83	82.76	73.74	66.22	61.74	55.57	46.66	37.70	31.49	26.50	22.01	18.52	15.26	12.97	11.40	11.25	13.53	42.97	215.5	540.9	657.8	120.9	9.276	2.347	2.089	2.120	1.827	1.916	1.898	1.920	1.885	1.790	1.898	1.831	1.744	1.801	1.725	1.677	1.775
515.0	45.83	103.1	194.2	277.4	295.9	347.0	530.4	899.5	535.9	431.8	453.0	460.8	433.1	396.1	344.0	292.5	261.1	245.1	245.6	247.3	253.4	258.1	260.5	257.7	251.5	241.4	230.6	218.7	211.4	204.9	193.0	181.0	166.0	152.1	139.1	126.9	111.8	96.80	85.47	75.07	67.11	60.75	54.39	51.19	46.87	36.85	30.47	25.24	21.85	18.13	15.58	13.25	11.12	10.25	9.773	15.79	52.91	126.2	305.4	715.5	194.5	8.890	1.879	1.770	1.729	1.724	1.571	1.558	1.463	1.549	1.624	1.596	1.535	1.466	1.548	1.493	1.468
520.0	36.78	94.74	160.5	237.6	259.0	292.2	353.3	783.1	690.9	386.3	396.7	399.3	371.1	337.6	299.6	255.3	226.5	214.1	213.9	215.0	217.3	220.7	223.5	220.8	216.3	206.3	198.9	191.3	181.8	176.3	169.1	157.1	146.1	134.6	124.5	111.7	99.78	87.86	78.96	69.24	62.03	56.19	50.19	46.99	45.25	37.52	29.48	24.62	21.27	17.82	15.19	13.27	11.08	9.965	8.890	9.519	16.72	32.21	76.60	402.1	693.5	144.3	3.705	1.632	1.621	1.509	1.486	1.350	1.329	1.363	1.336	1.340	1.357	1.183	1.301	1.116	1.212
525.0	30.59	82.36	152.0	212.9	237.7	252.8	277.2	534.1	839.2	413.8	344.9	347.7	320.4	294.6	262.1	224.3	199.7	190.6	187.5	188.8	189.6	192.5	192.3	192.2	185.9	179.5	172.4	165.3	159.9	153.7	150.9	139.9	128.7	118.5	111.3	101.5	90.83	80.27	71.63	63.35	57.99	52.87	46.79	42.72	41.33	37.39	30.29	23.91	19.79	17.14	14.73	13.01	10.87	9.623	8.644	8.112	8.610	11.43	20.53	106.0	482.2	585.2	26.97	2.130	1.475	1.199	1.264	1.157	1.095	1.221	1.217	1.105	1.138	1.023	1.072	1.084	0.925
530.0	24.03	68.34	118.6	167.9	213.1	219.9	232.0	313.0	683.7	625.9	314.0	290.0	269.2	247.0	219.2	189.6	169.0	160.1	156.3	158.9	158.1	159.4	160.8	159.5	154.6	149.4	142.7	137.7	134.1	131.4	126.6	118.4	110.7	102.6	95.12	87.56	79.46	70.99	63.44	57.17	52.05	47.00	42.49	38.19	35.46	33.53	29.45	23.46	18.82	16.04	14.07	12.18	10.17	9.266	8.369	7.219	6.719	6.499	7.652	26.34	124.7	366.9	468.2	120.0	7.739	1.264	1.199	0.973	0.970	0.986	1.095	0.954	0.834	0.821	0.805	0.835	0.712
535.0	16.53	64.59	97.89	135.9	175.5	190.7	191.1	219.9	369.3	735.3	416.7	240.0	222.3	203.1	178.7	156.0	140.8	134.2	130.5	132.8	131.0	131.4	132.5	129.4	126.4	122.7	118.8	115.5	112.0	109.1	107.1	98.22	92.01	86.11	80.17	74.83	68.65	61.75	55.19	50.65	46.03	42.38	38.31	34.23	30.86	27.93	26.14	23.28	18.19	15.13	13.09	11.23	10.09	8.586	7.847	6.621	5.925	5.289	4.956	8.528	30.10	84.52	199.6	519.3	186.3	7.300	1.117	0.802	0.853	0.821	0.822	0.743	0.767	0.623	0.782	0.709	0.705
540.0	14.75	53.81	86.59	116.6	148.8	180.7	168.3	181.9	230.0	586.5	602.2	223.4	191.0	177.4	154.3	137.2	122.2	115.7	113.3	115.3	113.7	111.8	112.4	110.9	108.9	105.5	102.5	99.08	95.78	95.34	92.61	87.02	82.13	76.27	70.93	65.49	60.52	55.24	50.26	46.38	42.11	38.64	35.59	31.57	28.83	25.30	23.16	22.27	18.22	14.59	12.13	10.82	9.085	8.098	7.380	6.679	5.750	4.818	4.140	4.353	9.033	20.72	48.50	268.7	518.4	135.1	2.802	0.844	0.715	0.696	0.718	0.645	0.574	0.549	0.754	0.697	0.596
545.0	10.63	44.87	77.37	102.7	126.0	157.2	158.5	161.1	183.7	369.5	698.7	291.2	170.7	153.8	135.2	120.7	110.2	101.5	101.0	100.7	100.2	97.10	98.33	96.29	94.37	92.07	89.90	87.12	84.78	83.07	83.46	76.50	72.63	67.21	63.27	59.41	54.90	49.23	45.65	41.45	38.66	35.19	31.85	28.25	26.36	23.24	21.03	20.14	17.83	14.24	11.67	10.21	8.739	7.662	6.885	6.467	5.859	4.585	4.004	3.376	4.186	6.354	12.32	69.27	340.1	452.9	26.60	1.115	0.753	0.553	0.475	0.653	0.440	0.377	0.523	0.528	0.388
550.0	6.230	35.52	64.55	88.75	102.4	126.4	142.5	137.1	144.6	201.3	493.1	499.8	159.8	127.3	114.2	101.7	92.19	86.07	84.01	83.48	82.28	81.24	80.71	80.11	78.27	76.57	73.82	70.99	70.70	69.77	68.61	64.83	61.60	57.03	53.87	50.61	46.75	42.53	39.09	35.79	33.37	30.39	27.92	25.12	23.21	20.36	18.26	16.50	15.69	14.08	11.24	9.171	7.841	7.103	6.277	5.798	5.268	4.332	3.667	3.137	3.011	3.181	4.198	16.75	86.41	267.1	282.9	114.8	6.763	0.607	0.594	0.501	0.447	0.347	0.350	0.248	0.317
555.0	4.555	25.49	53.63	71.42	82.53	97.47	115.8	117.5	119.7	131.0	235.3	528.5	297.6	104.0	93.06	82.15	76.26	70.25	68.83	68.33	66.73	65.51	66.07	65.41	63.28	61.10	59.04	57.68	57.17	57.26	55.50	53.26	50.09	46.80	43.82	41.97	39.06	35.67	33.05	30.36	28.01	25.81	23.79	21.61	19.25	17.42	15.51	14.19	12.61	12.65	10.87	8.736	6.954	6.532	5.810	4.997	4.365	3.999	3.456	3.137	2.504	2.251	2.281	4.977	20.50	60.86	124.0	363.0	165.5	5.234	0.531	0.398	0.360	0.259	0.254	0.130	0.219
560.0	2.186	17.68	44.74	59.28	67.54	80.79	96.95	107.1	102.5	105.2	134.8	379.6	448.5	107.8	78.09	68.30	62.70	58.84	58.44	57.18	55.80	54.38	54.12	53.44	54.16	51.28	49.98	48.24	48.60	48.06	46.77	44.93	42.29	40.75	37.16	36.09	33.43	30.63	28.52	26.20	24.59	22.93	20.58	18.90	17.43	15.16	13.84	12.01	10.67	10.58	10.40	8.244	6.260	5.599	5.328	4.588	4.210	3.631	3.087	2.846	2.190	1.981	1.899	2.273	5.496	14.48	30.09	177.7	366.9	30.97	1.602	0.439	0.283	0.157	0.213	0.108	-0.019
565.0	-4.901	13.41	36.74	49.53	59.45	68.04	80.68	91.62	86.78	88.58	98.63	207.4	484.1	137.1	66.01	58.91	54.00	50.27	48.87	48.31	46.58	45.87	45.90	44.89	44.98	42.64	42.59	41.59	39.91	40.50	39.43	37.71	35.35	34.40	32.00	30.68	28.84	26.19	24.68	22.68	21.19	19.45	17.81	16.51	15.21	13.47	11.82	10.28	9.163	8.506	8.685	7.900	5.872	4.927	4.708	3.917	3.844	3.228	2.957	2.505	2.105	1.807	1.641	1.489	2.064	4.072	7.585	44.78	227.3	246.2	25.01	0.628	0.273	0.102	0.119	0.051	-0.046
570.0	-2.504	13.91	27.70	41.34	46.08	53.24	58.85	73.47	78.92	71.29	75.43	102.3	302.2	339.2	79.43	46.28	42.07	39.62	38.26	37.80	36.24	36.25	35.64	34.20	34.89	33.62	33.41	32.93	31.85	31.80	31.40	30.02	28.31	27.25	25.74	24.37	22.91	20.87	19.38	18.18	17.05	15.52	14.22	13.16	12.03	10.94	9.692	8.389	7.434	6.755	6.528	6.563	5.644	4.618	3.883	3.395	2.991	2.847	2.506	2.129	1.883	1.655	1.368	1.189	1.316	1.650	2.355	10.61	56.67	154.5	201.2	86.63	3.957	0.089	-0.027	0.043	0.016
575.0	-5.331	9.010	19.28	30.01	37.36	41.32	44.18	52.94	67.13	59.10	59.73	61.04	122.0	326.1	223.3	36.02	32.43	30.07	29.07	28.07	28.17	26.88	26.55	26.17	26.07	25.63	24.39	24.50	23.54	24.09	23.88	23.09	20.86	20.84	19.19	18.63	17.26	16.16	14.92	13.84	13.41	11.87	10.80	10.12	9.766	8.289	7.393	6.441	5.860	5.106	4.683	4.677	4.690	3.870	3.365	2.815	2.344	2.267	2.082	1.675	1.547	1.434	1.151	1.120	0.931	0.961	1.024	2.821	13.04	35.08	78.84	219.5	31.73	2.577	0.012	-0.070	-0.021
580.0	-6.128	3.080	16.98	23.32	27.95	31.97	35.97	39.18	54.34	54.07	49.01	45.64	60.46	209.2	337.3	53.49	25.89	24.03	23.68	22.61	22.45	22.08	21.23	20.93	20.89	20.53	19.82	18.79	19.33	19.18	18.99	18.56	17.17	16.36	15.66	14.85	14.00	13.18	12.17	11.39	10.92	9.671	8.958	8.272	7.934	6.966	6.278	5.397	4.966	4.264	3.958	3.691	3.703	3.564	2.988	2.538	1.974	1.960	1.756	1.454	1.375	1.333	1.176	0.953	0.906	0.751	0.689	1.011	3.201	8.139	18.69	106.4	182.6	27.85	0.729	-0.104	-0.067
585.0	-9.456	1.126	13.67	18.42	24.84	25.01	28.54	32.73	44.40	50.98	43.45	40.01	40.33	103.1	330.0	140.7	21.55	20.00	19.29	18.50	18.42	18.12	17.70	17.10	16.99	16.19	16.44	15.72	15.71	16.12	15.58	15.13	14.14	13.74	12.98	12.38	11.55	10.98	10.20	9.476	9.143	8.057	7.400	6.934	6.468	5.743	5.177	4.641	3.984	3.581	3.194	3.043	2.981	3.055	2.827	2.413	1.905	1.571	1.548	1.117	1.277	1.054	0.915	0.905	0.661	0.672	0.508	0.570	0.995	2.003	4.300	26.65	117.8	145.3	20.29	0.058	-0.081
590.0	-9.581	-0.576	8.401	14.94	19.53	21.16	22.40	26.24	31.82	42.60	41.37	35.15	31.75	44.43	177.7	266.1	45.47	15.78	15.47	14.77	14.59	13.97	14.11	13.57	12.98	12.69	12.43	12.18	12.46	12.47	12.02	11.88	11.08	10.61	10.43	9.596	9.087	8.400	7.976	7.423	6.801	6.468	5.934	5.281	5.074	4.515	4.043	3.728	3.144	2.843	2.570	2.239	2.260	2.156	2.457	2.119	1.625	1.233	1.088	1.051	1.037	0.815	0.768	0.674	0.574	0.598	0.438	0.428	0.478	0.555	1.126	6.052	29.44	82.64	111.5	43.05	1.895
595.0	-5.350	0.636	8.171	10.72	13.59	16.65	18.47	20.17	22.97	31.66	38.84	30.39	25.83	26.82	60.60	216.3	175.4	13.91	11.53	11.46	10.98	10.83	10.50	10.23	10.02	10.05	9.558	9.328	9.329	9.327	9.162	9.009	8.733	8.060	7.671	7.601	6.667	6.556	6.051	5.714	5.497	4.966	4.695	4.209	4.015	3.507	3.201	2.681	2.479	2.285	1.935	1.722	1.607	1.456	1.731	1.923	1.508	1.022	0.791	0.825	0.795	0.693	0.606	0.504	0.593	0.368	0.319	0.325	0.234	0.209	0.397	1.326	6.593	18.47	44.18	110.6	30.58
600.0	-8.134	-3.533	7.910	10.63	11.20	14.52	15.26	16.90	20.53	25.99	36.13	29.59	23.71	21.15	26.21	122.4	258.0	34.50	9.324	9.335	9.103	8.738	8.502	8.397	8.074	8.052	7.645	7.914	7.670	7.874	7.694	7.260	7.096	6.539	6.203	6.016	5.462	5.359	5.036	4.573	4.434	4.005	3.674	3.292	3.150	2.882	2.586	2.349	2.102	1.939	1.658	1.525	1.210	1.178	1.196	1.510	1.433	1.083	0.715	0.595	0.574	0.500	0.495	0.399	0.413	0.329	0.251	0.229	0.113	0.142	0.106	0.360	1.446	4.097	10.35	54.48	101.5
605.0	-13.12	-7.200	3.902	8.348	10.59	13.81	12.19	15.72	17.42	21.69	30.47	30.15	22.24	18.23	16.95	52.19	227.3	75.20	8.305	8.073	7.625	7.150	7.068	7.213	6.770	6.864	6.616	6.425	6.710	6.629	6.352	6.112	5.517	5.196	5.213	5.116	4.583	4.339	4.122	3.730	3.503	3.398	3.202	2.766	2.650	2.329	2.155	1.938	1.632	1.515	1.473	1.251	1.148	1.018	0.915	1.125	1.212	1.030	0.847	0.438	0.529	0.430	0.366	0.288	0.348	0.337	0.306	0.154	0.134	0.109	0.024	0.091	0.285	0.858	2.270	13.64	65.94
610.0	-13.51	-6.720	1.063	4.926	6.744	9.752	10.35	12.83	14.75	17.71	24.01	29.53	21.94	16.18	13.49	19.80	109.9	200.9	34.21	6.457	5.975	5.808	5.531	5.684	5.504	5.241	5.286	4.887	5.124	5.016	4.958	4.655	4.372	4.242	4.054	3.946	3.616	3.476	3.236	2.949	2.883	2.552	2.420	2.190	2.025	1.811	1.662	1.597	1.329	1.201	1.130	0.943	0.911	0.775	0.729	0.786	0.893	0.880	0.573	0.378	0.351	0.301	0.301	0.212	0.147	0.232	0.179	0.155	0.121	0.086	-0.043	0.032	-0.005	0.091	0.393	2.895	16.31
615.0	-9.751	-2.123	1.075	3.072	5.015	6.533	8.529	9.860	13.07	16.85	19.21	24.86	23.88	15.63	11.61	11.04	33.60	151.6	152.0	6.574	4.615	4.433	4.660	4.607	4.378	3.781	4.049	3.718	3.900	3.868	3.708	3.644	3.359	2.974	3.022	3.033	2.716	2.557	2.358	2.190	2.235	1.982	1.698	1.590	1.495	1.429	1.197	1.317	1.026	0.883	0.952	0.733	0.589	0.550	0.587	0.593	0.475	0.583	0.584	0.410	0.260	0.255	0.162	0.118	0.153	0.139	0.049	0.097	0.026	0.031	-0.065	-0.081	-0.060	-0.107	-0.024	0.564	3.468
620.0	-12.46	-5.240	0.543	1.635	4.312	5.888	7.208	9.321	11.64	13.89	16.72	21.53	24.97	15.29	10.81	7.891	12.39	77.14	214.8	30.56	3.941	3.638	3.842	3.628	3.447	3.363	3.151	3.080	3.005	3.082	3.097	2.856	2.834	2.537	2.588	2.445	2.173	2.192	1.977	1.806	1.906	1.591	1.480	1.239	1.120	1.100	0.990	0.961	0.819	0.670	0.570	0.628	0.443	0.452	0.401	0.360	0.372	0.323	0.495	0.442	0.218	0.176	0.119	0.083	0.079	0.082	-0.025	0.048	0.146	-0.027	-0.002	-0.094	-0.103	-0.107	-0.091	0.029	0.604
625.0	-16.21	-5.381	0.271	1.077	4.750	5.749	6.742	7.171	10.72	13.09	14.71	19.14	22.63	16.16	10.36	6.747	6.920	30.38	175.2	106.7	3.362	3.031	2.997	2.923	2.762	2.628	2.502	2.571	2.508	2.615	2.653	2.328	2.407	2.246	2.213	2.084	1.865	1.755	1.544	1.572	1.442	1.448	1.156	0.960	0.986	0.925	0.879	0.767	0.617	0.585	0.429	0.485	0.424	0.318	0.265	0.221	0.230	0.153	0.354	0.364	0.185	0.140	0.122	0.037	0.061	-0.022	-0.021	0.023	0.105	-0.017	-0.025	-0.124	-0.102	-0.189	-0.144	-0.166	0.023
630.0	-13.72	-4.608	-1.026	2.197	2.862	4.320	5.377	7.312	9.669	11.98	13.30	16.42	19.11	18.46	10.02	6.629	5.547	10.42	74.47	176.2	29.25	2.579	2.344	2.499	2.192	2.212	2.109	1.966	2.026	2.005	2.071	1.790	1.920	1.808	1.576	1.458	1.588	1.335	1.190	1.118	1.096	1.048	0.867	0.854	0.788	0.680	0.604	0.486	0.464	0.471	0.345	0.314	0.372	0.196	0.155	0.170	0.133	0.081	0.167	0.172	0.159	0.078	0.043	0.034	0.016	-0.068	-0.010	-0.104	0.001	0.035	-0.079	-0.095	-0.136	-0.223	-0.260	-0.198	-0.204
635.0	-10.04	-4.177	-0.300	3.275	2.795	3.379	5.085	6.032	8.062	10.46	13.19	14.40	15.48	18.17	11.71	6.434	4.595	5.251	20.78	111.0	139.3	3.791	1.905	1.812	1.863	1.299	1.658	1.843	1.463	1.590	1.605	1.484	1.217	1.490	1.132	1.107	1.005	0.963	0.960	0.775	0.744	0.685	0.551	0.503	0.609	0.448	0.363	0.362	0.349	0.294	0.307	0.170	0.234	0.116	0.074	0.067	0.140	-0.004	0.048	0.070	0.060	0.003	0.073	-0.073	0.011	-0.078	-0.076	-0.079	-0.032	-0.012	-0.115	-0.111	-0.126	-0.195	-0.235	-0.300	-0.239
640.0	-14.30	-5.610	-1.300	1.827	4.017	3.401	5.008	5.612	7.297	9.613	12.59	12.37	13.74	15.85	14.25	6.438	4.816	4.048	6.936	49.83	187.5	27.24	1.723	1.549	1.404	1.302	1.355	1.662	1.153	1.300	1.290	1.159	1.029	1.065	0.935	0.828	0.686	0.717	0.791	0.605	0.647	0.546	0.342	0.433	0.468	0.255	0.401	0.217	0.197	0.234	0.158	0.158	0.092	0.093	0.051	0.008	0.087	-0.023	0.011	-0.008	0.069	-0.028	0.035	0.002	-0.060	-0.112	-0.136	-0.039	-0.077	-0.071	-0.119	-0.170	-0.117	-0.183	-0.195	-0.291	-0.180
645.0	-14.20	-5.612	0.065	1.002	4.514	2.493	5.293	5.396	8.044	9.175	11.56	12.92	13.17	13.64	15.21	7.504	4.622	3.709	3.422	17.38	144.1	96.46	2.002	1.357	1.294	1.290	1.110	1.410	1.038	1.173	0.937	0.820	0.788	0.974	0.793	0.725	0.553	0.636	0.601	0.479	0.510	0.391	0.321	0.221	0.246	0.216	0.295	0.206	0.144	0.172	0.125	0.042	-0.024	0.026	0.020	0.035	0.034	-0.023	-0.060	-0.047	0.000	-0.004	-0.001	0.027	-0.093	-0.144	-0.232	-0.089	-0.106	-0.158	-0.140	-0.181	-0.067	-0.205	-0.207	-0.264	-0.271
650.0	-10.63	-5.818	1.615	-0.083	2.743	2.704	4.750	4.882	7.527	9.180	10.68	12.57	12.64	11.88	13.71	9.115	4.967	3.476	3.027	6.060	71.36	159.6	10.34	1.307	1.292	0.982	1.104	1.099	0.772	0.782	0.806	0.801	0.660	0.844	0.597	0.497	0.568	0.470	0.428	0.379	0.387	0.295	0.247	0.258	0.196	0.101	0.140	0.181	0.085	0.149	0.035	0.025	-0.040	0.007	0.006	0.089	-0.013	-0.054	-0.058	-0.095	-0.034	-0.090	0.008	-0.070	-0.077	-0.154	-0.113	-0.191	-0.130	-0.153	-0.175	-0.220	-0.052	-0.170	-0.229	-0.253	-0.315
