Sample:	'1
File name:	Default_20230112_142215.FD3
Run date:	'14:15:53, 01/12/2023
Operator:	dsjg
Comment:	'

Instrument
Model:	F-2700 FL Spectrophotometer
Serial number:	2198-001
ROM Version:	4J14000 07

Instrument parameters
Measurement type:	3-D scan
Data mode:	Fluorescence
EX  Start WL:	220.0 nm
EX  End WL:	600.0 nm
EX Sampling interval:	5.0 nm
EM  Start WL:	230.0 nm
EM  End WL:	650.0 nm
EM Sampling interval:	5.0 nm
Scan speed:	12000 nm/min
EX Slit:	5.0 nm
EM Slit:	5.0 nm
PMT Voltage:	700 V
Response:	Auto 
Corrected spectra:	Off
Contour interval:	50.000

Peak integration
Integration method:	Rectangular
Sensitivity:	1
Threshold:	1.000

Peaks
No.	ApexEX/EM(nm)	Height(Data)
1	225.0/305.0	 1044
2	225.0/495.0	109.3
3	225.0/590.0	68.83
4	230.0/250.0	139.7
5	230.0/505.0	102.6
6	235.0/260.0	168.5
7	235.0/515.0	85.04
8	240.0/265.0	199.8
9	240.0/530.0	65.91
10	245.0/270.0	177.2
11	245.0/535.0	59.48
12	250.0/275.0	212.3
13	250.0/550.0	49.61
14	255.0/560.0	46.22
15	260.0/575.0	48.25
16	265.0/585.0	60.57
17	270.0/300.0	920.0
18	270.0/595.0	67.29
19	275.0/305.0	969.4
20	275.0/350.0	666.5
21	275.0/605.0	59.34
22	310.0/350.0	183.6
23	315.0/355.0	168.0
24	320.0/360.0	175.6
25	325.0/365.0	151.3
26	330.0/375.0	139.8
27	335.0/380.0	151.8
28	340.0/385.0	139.7
29	350.0/400.0	124.6
30	355.0/405.0	123.3
31	360.0/410.0	108.1
32	365.0/420.0	105.9
33	370.0/425.0	100.6
34	380.0/440.0	74.24
35	385.0/445.0	66.10
36	395.0/305.0	3.638
37	400.0/465.0	40.52
38	405.0/470.0	31.88
39	410.0/475.0	26.95
40	415.0/485.0	23.66
41	420.0/490.0	18.94
42	425.0/495.0	16.16
43	430.0/505.0	14.14
44	435.0/510.0	11.53
45	440.0/515.0	10.09
46	445.0/525.0	9.047
47	450.0/305.0	3.184
48	450.0/530.0	7.426
49	455.0/300.0	3.023
50	455.0/535.0	6.392
51	460.0/545.0	5.535
52	470.0/555.0	3.555
53	475.0/565.0	2.808
54	545.0/300.0	4.859
55	550.0/305.0	5.043

Data points
	220.0	225.0	230.0	235.0	240.0	245.0	250.0	255.0	260.0	265.0	270.0	275.0	280.0	285.0	290.0	295.0	300.0	305.0	310.0	315.0	320.0	325.0	330.0	335.0	340.0	345.0	350.0	355.0	360.0	365.0	370.0	375.0	380.0	385.0	390.0	395.0	400.0	405.0	410.0	415.0	420.0	425.0	430.0	435.0	440.0	445.0	450.0	455.0	460.0	465.0	470.0	475.0	480.0	485.0	490.0	495.0	500.0	505.0	510.0	515.0	520.0	525.0	530.0	535.0	540.0	545.0	550.0	555.0	560.0	565.0	570.0	575.0	580.0	585.0	590.0	595.0	600.0
230.0	38.43	666.9	 1119	244.0	4.748	1.244	0.911	0.889	0.803	0.646	0.780	0.711	0.493	0.500	0.293	0.216	0.219	0.193	0.167	0.157	0.112	0.124	0.104	0.125	0.118	0.118	0.111	0.114	0.119	0.084	0.083	0.086	0.060	0.076	0.096	0.204	0.218	0.168	0.157	0.150	0.211	0.388	0.443	0.257	0.139	0.119	0.336	1.840	3.995	3.515	1.502	0.273	0.067	0.051	0.037	0.038	0.040	0.038	0.016	0.034	0.023	0.013	0.018	0.014	0.020	0.008	0.010	0.019	0.007	0.002	0.003	-0.005	0.010	-0.007	-0.008	-0.003	-0.004
235.0	64.12	194.9	755.8	977.1	259.5	6.767	1.542	1.016	0.691	0.806	0.758	0.646	0.439	0.547	0.393	0.250	0.222	0.177	0.160	0.187	0.176	0.117	0.130	0.119	0.091	0.117	0.118	0.109	0.127	0.170	0.087	0.108	0.044	0.091	0.087	0.096	0.159	0.144	0.170	0.167	0.185	0.167	0.300	0.384	0.409	0.247	0.213	0.487	1.249	2.205	2.961	3.739	1.874	0.396	0.050	0.052	0.031	0.063	0.022	0.016	0.011	0.023	0.008	0.021	0.010	0.003	0.009	0.024	0.000	0.014	0.011	-0.007	0.003	-0.003	-0.007	0.001	-0.003
240.0	118.3	86.96	254.0	885.1	922.0	164.6	2.669	1.314	0.917	1.021	0.745	0.767	0.542	0.616	0.288	0.294	0.202	0.205	0.207	0.152	0.169	0.106	0.100	0.112	0.101	0.086	0.139	0.097	0.099	0.101	0.134	0.080	0.065	0.072	0.076	0.064	0.088	0.171	0.168	0.200	0.149	0.178	0.198	0.240	0.400	0.609	0.395	0.302	0.352	0.628	1.300	3.473	4.591	3.376	1.362	0.172	0.033	0.055	0.026	0.017	0.013	0.023	-0.001	0.010	0.017	0.017	0.016	0.000	0.013	0.001	0.011	-0.012	-0.008	0.004	0.004	-0.003	0.002
245.0	107.8	127.5	83.34	336.9	 1043	782.7	92.77	2.585	1.969	1.209	0.953	0.739	0.662	0.508	0.375	0.239	0.241	0.197	0.148	0.135	0.224	0.171	0.114	0.112	0.154	0.143	0.130	0.125	0.098	0.114	0.120	0.079	0.112	0.097	0.065	0.105	0.070	0.115	0.142	0.237	0.136	0.147	0.190	0.164	0.257	0.440	0.599	0.664	0.295	0.226	0.376	1.107	2.707	4.797	4.787	2.627	0.707	0.072	0.027	0.033	0.016	0.015	0.038	0.024	0.015	0.012	0.015	0.006	0.017	0.007	0.022	-0.011	-0.004	-0.002	0.005	-0.002	-0.012
250.0	36.53	115.8	139.7	114.9	370.5	857.3	716.0	163.0	10.48	1.522	1.002	1.204	0.836	0.508	0.396	0.311	0.263	0.224	0.231	0.203	0.233	0.159	0.147	0.150	0.134	0.129	0.129	0.113	0.147	0.089	0.108	0.102	0.083	0.083	0.118	0.087	0.063	0.056	0.106	0.173	0.190	0.172	0.175	0.166	0.196	0.217	0.328	0.488	0.592	0.560	0.395	0.373	0.709	1.501	2.552	3.503	4.286	3.692	2.264	0.599	0.073	0.022	0.022	0.020	0.014	0.016	0.005	0.011	0.019	0.013	0.006	0.000	0.006	-0.004	0.004	0.000	0.001
255.0	10.08	37.85	123.0	163.2	117.1	233.8	709.2	 1078	212.8	10.16	1.552	1.500	1.076	0.570	0.568	0.260	0.465	0.327	0.226	0.231	0.230	0.196	0.185	0.167	0.147	0.143	0.144	0.071	0.173	0.107	0.091	0.039	0.065	0.058	0.097	0.073	0.074	0.037	0.083	0.092	0.190	0.239	0.187	0.159	0.154	0.140	0.225	0.214	0.269	0.506	0.703	0.836	0.455	0.444	0.651	0.924	1.546	3.241	6.003	6.091	3.185	0.641	0.070	0.022	0.019	0.015	-0.003	0.020	0.007	0.004	0.001	0.003	0.002	-0.004	-0.004	0.002	0.004
260.0	3.922	11.98	52.47	168.5	145.6	73.95	241.2	935.2	 1069	165.7	4.889	2.019	1.322	0.821	0.844	0.363	0.336	0.287	0.332	0.154	0.189	0.124	0.184	0.199	0.152	0.105	0.125	0.099	0.195	0.080	0.098	0.099	0.079	0.088	0.108	0.046	0.046	0.077	0.078	0.050	0.141	0.192	0.174	0.183	0.125	0.138	0.154	0.158	0.150	0.221	0.398	0.791	0.993	0.668	0.355	0.270	0.431	0.917	2.537	5.286	7.302	5.671	2.025	0.229	0.008	0.022	0.016	0.023	0.014	0.012	0.005	-0.001	0.001	0.017	-0.008	0.016	0.001
265.0	2.272	6.909	16.39	92.78	199.8	98.50	67.12	353.1	 1145	996.8	118.5	2.852	1.505	0.866	0.962	0.483	0.413	0.333	0.313	0.196	0.228	0.170	0.175	0.160	0.188	0.180	0.151	0.128	0.199	0.121	0.083	0.088	0.079	0.095	0.102	0.061	0.086	0.076	0.072	0.048	0.092	0.159	0.201	0.187	0.120	0.131	0.120	0.158	0.133	0.133	0.172	0.336	0.746	1.123	0.837	0.375	0.185	0.272	0.643	1.654	4.022	7.115	7.642	4.394	1.090	0.074	0.022	0.037	0.046	0.004	0.002	0.003	0.011	0.015	-0.002	0.002	-0.006
270.0	12.55	12.05	12.43	27.92	104.7	177.2	118.2	105.9	394.3	956.3	 1059	399.2	21.99	1.526	1.071	0.795	0.678	0.392	0.272	0.241	0.301	0.231	0.190	0.172	0.189	0.163	0.126	0.169	0.123	0.120	0.088	0.078	0.113	0.194	0.179	0.174	0.182	0.189	0.186	0.168	0.170	0.160	0.204	0.250	0.222	0.192	0.163	0.178	0.177	0.122	0.106	0.149	0.264	0.533	0.795	0.975	0.860	0.507	0.331	0.488	1.033	2.228	3.821	5.631	6.404	5.621	2.933	0.795	0.086	0.027	0.025	0.023	0.007	0.014	0.002	0.010	0.005
275.0	60.46	45.66	28.16	15.87	33.97	98.10	212.3	156.9	133.6	281.7	776.6	 1347	566.9	18.20	1.564	0.975	0.745	0.585	0.357	0.246	0.307	0.285	0.243	0.211	0.213	0.169	0.212	0.143	0.179	0.165	0.121	0.115	0.135	0.314	0.364	0.421	0.474	0.449	0.300	0.337	0.327	0.333	0.345	0.316	0.358	0.367	0.300	0.301	0.224	0.192	0.121	0.112	0.144	0.286	0.293	0.462	0.823	1.333	1.201	0.566	0.457	0.680	1.066	1.606	2.251	4.603	7.333	7.720	3.792	0.771	0.073	0.025	0.021	0.027	0.006	-0.002	0.024
280.0	154.6	142.7	71.06	28.57	22.34	46.51	164.2	261.9	164.0	159.0	327.5	 1017	 1391	125.0	7.099	1.493	0.858	0.674	0.543	0.349	0.404	0.295	0.358	0.259	0.202	0.157	0.180	0.106	0.198	0.151	0.103	0.175	0.236	0.489	0.632	0.873	0.818	0.756	0.618	0.554	0.470	0.481	0.626	0.488	0.503	0.594	0.537	0.573	0.432	0.294	0.201	0.169	0.149	0.157	0.170	0.261	0.383	0.897	1.469	1.519	1.014	0.586	0.641	0.862	1.062	1.669	3.223	6.652	8.643	6.813	2.328	0.176	0.037	0.037	0.026	0.031	0.062
285.0	329.9	324.6	173.8	59.30	28.39	40.47	103.3	266.6	277.8	225.3	263.4	517.5	 1218	 1031	91.27	2.762	1.019	0.766	0.562	0.631	0.408	0.297	0.350	0.362	0.278	0.177	0.188	0.135	0.145	0.186	0.239	0.118	0.225	0.749	1.133	1.477	1.549	1.293	0.930	0.868	0.780	0.873	0.964	0.936	0.933	1.055	1.113	1.096	0.803	0.566	0.376	0.224	0.199	0.192	0.177	0.243	0.341	0.488	0.946	1.578	2.094	1.684	1.096	1.105	1.193	1.448	1.652	2.675	5.028	8.482	8.878	4.781	1.033	0.079	0.017	0.033	0.062
290.0	597.0	613.5	339.5	113.0	48.31	57.33	100.4	212.1	395.1	512.4	480.8	488.4	616.0	914.5	940.3	365.1	18.15	1.234	0.779	0.722	0.527	0.417	0.420	0.292	0.277	0.198	0.241	0.214	0.171	0.218	0.193	0.138	0.341	1.020	2.008	2.421	2.278	1.818	1.454	1.249	1.321	1.313	1.406	1.536	1.632	1.938	1.961	2.046	1.520	1.054	0.646	0.396	0.273	0.248	0.248	0.310	0.425	0.481	0.692	1.022	1.699	2.245	2.626	2.579	2.304	2.117	2.134	2.174	2.647	3.368	4.818	6.092	6.565	5.475	2.790	0.690	0.126
295.0	862.6	910.4	501.8	159.2	69.02	80.32	125.3	218.7	376.0	653.9	822.0	647.0	514.3	382.7	582.9	 1248	488.7	13.63	1.107	0.957	0.635	0.528	0.486	0.388	0.383	0.244	0.246	0.270	0.241	0.187	0.186	0.140	0.440	1.259	2.678	3.010	3.015	2.369	1.884	1.505	1.552	1.633	1.708	2.011	2.254	2.545	2.639	2.781	2.302	1.460	0.932	0.583	0.421	0.334	0.349	0.383	0.533	0.515	0.755	1.020	1.523	1.935	2.473	3.428	4.202	3.815	2.859	2.823	2.577	2.323	1.990	1.967	2.488	4.422	8.247	8.152	3.133
300.0	957.6	 1042	560.7	183.3	79.54	92.24	139.5	227.6	378.9	623.2	920.0	845.6	537.7	274.0	215.8	799.6	 1302	75.87	4.257	1.279	0.713	0.659	0.619	0.505	0.340	0.347	0.216	0.251	0.238	0.202	0.231	0.228	0.463	1.434	2.888	3.595	3.508	2.558	1.990	1.582	1.613	1.691	1.867	2.023	2.528	2.910	3.001	3.023	2.412	1.648	0.924	0.635	0.448	0.427	0.362	0.444	0.548	0.695	0.912	1.088	1.424	1.873	2.450	3.268	4.249	4.859	4.275	3.330	2.784	2.208	1.493	1.083	0.853	1.419	3.540	7.553	9.840
305.0	954.6	 1044	583.2	190.9	92.87	97.10	150.3	236.2	379.7	584.6	845.6	969.4	629.7	267.8	117.2	272.8	958.5	 1138	58.25	2.075	1.064	0.713	0.667	0.576	0.542	0.349	0.363	0.231	0.273	0.302	0.183	0.253	0.400	1.459	3.035	3.638	3.161	2.529	1.892	1.533	1.618	1.670	1.700	2.093	2.546	3.094	3.184	2.989	2.400	1.714	1.048	0.710	0.562	0.492	0.439	0.460	0.575	0.757	1.004	1.231	1.472	1.949	2.371	3.002	3.418	4.239	5.043	4.680	3.456	2.304	1.542	0.900	0.547	0.656	1.079	2.476	5.480
310.0	889.5	952.9	543.8	187.8	98.06	106.7	158.5	241.9	377.6	548.5	728.1	842.3	741.2	355.9	115.8	103.6	300.7	792.4	987.1	253.0	13.03	1.105	0.762	0.602	0.466	0.390	0.355	0.302	0.309	0.259	0.218	0.226	0.436	1.299	2.680	3.408	2.979	2.168	1.588	1.479	1.418	1.569	1.670	1.979	2.312	2.787	2.902	2.810	2.204	1.496	0.924	0.777	0.551	0.505	0.454	0.474	0.613	0.764	1.000	1.234	1.488	1.827	2.220	2.759	3.160	3.520	4.090	4.071	3.984	3.488	2.032	1.035	0.653	0.575	0.564	0.849	1.519
315.0	785.5	809.1	478.5	187.6	108.8	119.0	161.8	248.0	364.7	507.1	645.6	686.4	648.7	504.6	198.8	87.04	106.3	211.0	523.1	 1150	366.6	8.944	1.020	0.835	0.559	0.409	0.450	0.369	0.346	0.296	0.219	0.244	0.432	1.170	2.246	2.912	2.552	1.864	1.356	1.155	1.168	1.438	1.541	1.740	2.051	2.448	2.426	2.474	2.009	1.354	0.942	0.579	0.575	0.477	0.544	0.559	0.685	0.774	0.915	1.110	1.472	1.856	2.181	2.508	2.783	3.146	3.425	3.196	3.063	3.024	2.874	1.995	1.143	0.724	0.564	0.601	0.641
320.0	709.6	745.8	450.7	181.7	120.7	126.5	172.5	249.8	362.3	488.1	613.9	640.9	566.9	483.3	336.3	108.9	73.14	79.04	157.8	690.9	 1157	56.86	3.486	0.963	0.774	0.641	0.567	0.369	0.432	0.322	0.290	0.202	0.413	0.968	1.839	2.389	2.148	1.628	1.328	1.113	1.108	1.223	1.257	1.642	1.799	2.105	2.368	2.216	1.913	1.372	0.798	0.555	0.531	0.539	0.511	0.594	0.784	0.910	0.867	1.203	1.595	1.815	2.129	2.507	2.679	2.929	3.077	2.953	2.668	2.516	2.531	2.501	2.226	1.319	0.664	0.617	0.465
325.0	653.4	699.9	419.7	191.0	130.2	139.9	185.7	257.0	362.2	489.1	592.8	618.1	544.3	419.4	388.4	217.9	82.39	56.80	58.55	212.2	856.7	989.4	47.25	1.691	0.886	0.699	0.552	0.392	0.393	0.307	0.355	0.230	0.314	0.828	1.681	2.022	1.812	1.425	1.212	1.065	1.024	1.175	1.251	1.429	1.701	2.009	2.059	2.069	1.713	1.226	0.783	0.660	0.533	0.559	0.577	0.684	0.717	0.909	1.155	1.274	1.476	1.845	2.064	2.390	2.608	2.692	2.946	2.875	2.692	2.391	2.146	2.178	2.346	2.229	1.444	0.730	0.524
330.0	608.5	642.2	422.6	229.9	155.3	160.6	203.7	279.3	383.7	494.6	590.6	615.7	553.0	418.1	333.4	304.8	180.9	69.60	46.08	67.87	250.9	685.1	880.0	199.1	10.61	0.925	0.697	0.504	0.502	0.455	0.356	0.320	0.363	0.784	1.216	1.459	1.408	1.247	0.992	0.931	0.955	1.167	1.204	1.359	1.626	1.861	1.984	1.859	1.698	1.282	0.876	0.791	0.683	0.573	0.642	0.766	0.811	1.030	1.210	1.344	1.676	1.910	2.338	2.479	2.661	2.776	2.868	2.909	2.632	2.533	2.155	1.975	1.755	1.908	1.953	1.616	1.183
335.0	575.0	613.8	441.3	271.4	186.0	191.3	235.1	308.5	404.5	514.1	609.6	635.3	581.5	460.3	334.1	257.5	273.1	152.2	55.57	42.01	74.49	173.7	460.2	 1066	297.9	9.247	1.064	0.789	0.470	0.427	0.423	0.328	0.361	0.693	1.002	1.192	1.183	1.104	0.963	0.941	0.812	1.023	1.136	1.430	1.581	1.823	1.816	1.977	1.719	1.238	0.917	0.933	0.875	0.728	0.786	0.889	1.019	1.131	1.379	1.490	1.810	2.075	2.387	2.550	2.921	2.916	2.796	2.762	2.741	2.622	2.341	2.079	1.807	1.504	1.474	1.373	1.669
340.0	578.0	595.8	446.9	288.8	208.6	208.9	254.4	331.1	427.2	532.5	622.8	653.5	607.5	496.1	356.8	241.9	231.4	236.5	77.58	43.64	41.50	57.49	134.0	649.7	 1096	47.79	3.416	0.928	0.653	0.539	0.445	0.421	0.302	0.581	0.923	1.075	1.158	1.009	0.939	0.845	0.881	1.004	1.135	1.250	1.486	1.845	1.714	1.904	1.813	1.331	0.993	1.161	0.939	0.854	0.833	0.864	1.115	1.315	1.528	1.680	1.885	2.251	2.412	2.862	2.959	2.890	2.912	3.022	2.905	2.913	2.557	2.260	1.877	1.600	1.298	1.273	1.266
345.0	548.2	578.8	438.4	306.3	231.6	232.0	277.8	349.9	443.4	546.2	630.0	663.7	634.7	524.6	387.6	250.4	187.0	228.2	162.5	58.08	39.20	36.01	48.47	196.8	861.5	924.8	39.54	1.585	0.771	0.739	0.470	0.353	0.284	0.516	0.748	0.978	0.923	0.895	0.856	0.717	0.872	1.032	1.044	1.161	1.437	1.673	1.794	1.974	1.748	1.350	1.137	1.195	1.038	0.936	0.873	0.901	1.096	1.326	1.545	1.656	1.947	2.239	2.458	2.657	2.938	2.992	2.937	3.100	3.059	3.149	2.561	2.691	2.070	1.717	1.328	1.220	1.079
350.0	512.6	549.3	437.7	309.7	245.3	243.2	289.8	363.7	454.3	548.7	628.5	666.5	636.3	538.5	403.9	261.1	174.7	156.9	183.6	137.0	53.76	39.04	35.93	62.66	248.3	681.0	822.7	181.8	9.707	0.880	0.598	0.444	0.384	0.607	0.745	0.918	0.861	0.886	0.875	0.840	0.858	0.915	1.104	1.220	1.306	1.686	1.676	1.748	1.586	1.313	1.162	1.192	1.111	0.962	0.908	0.966	1.115	1.300	1.600	1.880	2.029	2.279	2.463	2.751	2.823	2.972	3.041	2.928	3.169	2.974	2.824	2.654	2.224	1.906	1.441	1.169	1.098
355.0	492.8	498.8	405.3	302.4	252.3	247.6	300.1	373.1	453.2	537.5	625.2	653.0	627.6	542.8	414.8	270.6	178.9	132.2	125.7	168.0	130.0	53.32	39.49	39.13	72.40	168.8	436.9	998.0	278.2	8.510	0.904	0.609	0.497	0.596	0.749	0.848	0.812	0.705	0.774	0.782	0.896	0.926	1.103	1.222	1.266	1.594	1.537	1.582	1.407	1.286	1.098	1.214	1.038	1.016	1.006	1.052	1.154	1.286	1.557	1.775	2.021	2.340	2.485	2.670	2.972	2.978	3.106	3.033	3.046	3.091	2.803	2.665	2.372	2.070	1.527	1.336	1.083
360.0	460.7	471.6	387.9	301.0	250.6	254.5	298.0	372.3	457.5	534.9	615.0	645.2	625.4	544.3	420.5	273.4	182.1	131.6	107.5	129.3	175.6	92.66	47.89	38.84	37.43	51.94	120.5	611.1	 1037	44.28	2.442	0.811	0.552	0.558	0.636	0.832	0.778	0.731	0.684	0.711	0.761	0.837	1.103	1.188	1.193	1.360	1.412	1.516	1.359	1.282	1.013	1.180	1.001	1.000	1.020	1.036	1.192	1.270	1.569	1.777	2.086	2.339	2.535	2.589	2.792	2.909	2.949	3.091	3.081	3.057	2.692	2.552	2.395	1.827	1.458	1.359	1.186
365.0	452.5	455.1	365.0	283.0	246.1	260.5	290.4	367.9	450.7	526.6	595.7	628.4	605.6	526.6	410.4	271.7	185.5	133.0	108.1	103.2	150.3	151.3	60.54	43.97	33.34	29.56	38.82	179.0	834.2	856.1	37.65	1.314	0.667	0.635	0.705	0.754	0.704	0.774	0.698	0.751	0.736	0.872	1.010	1.093	1.197	1.326	1.393	1.460	1.264	1.046	0.910	1.070	1.053	1.121	1.016	1.081	1.169	1.285	1.491	1.810	1.994	2.199	2.472	2.598	2.519	2.758	2.965	2.934	3.105	2.979	2.760	2.554	2.349	1.818	1.496	1.376	1.152
370.0	410.7	410.9	328.4	275.9	241.7	251.1	284.9	352.3	427.5	502.2	564.5	594.6	574.9	502.0	393.0	267.3	186.4	139.4	114.8	102.0	108.7	146.1	129.8	67.85	39.85	30.11	25.21	51.27	234.8	656.8	597.6	162.2	8.480	0.774	0.771	0.742	0.655	0.719	0.629	0.754	0.824	0.880	0.966	0.999	1.142	1.207	1.299	1.262	1.269	0.998	0.924	1.018	1.016	1.086	1.049	1.039	1.152	1.330	1.488	1.645	1.873	2.077	2.285	2.488	2.671	2.739	2.805	2.875	2.895	2.834	2.571	2.457	2.288	1.855	1.526	1.361	1.187
375.0	396.0	377.7	303.2	252.2	236.7	242.8	276.3	338.1	403.3	473.2	531.7	555.8	533.5	471.4	371.8	256.2	185.0	147.1	122.8	108.1	100.9	106.4	139.8	129.5	59.18	37.53	28.13	27.34	63.47	159.2	389.2	907.1	243.6	7.957	0.984	0.726	0.673	0.718	0.648	0.836	0.816	0.820	0.979	0.879	0.968	1.061	1.103	1.149	1.158	1.023	0.831	0.917	0.994	0.995	1.039	0.988	1.165	1.295	1.354	1.650	1.732	1.995	2.139	2.419	2.580	2.623	2.749	2.619	2.747	2.662	2.466	2.400	2.101	1.848	1.418	1.417	1.112
380.0	364.5	341.5	283.6	238.6	230.1	236.6	266.5	326.0	381.6	437.4	501.1	525.6	504.1	444.8	353.6	250.1	183.7	148.5	126.0	114.3	105.1	98.93	111.3	151.8	98.22	47.39	33.19	25.78	28.60	45.27	106.4	571.6	876.9	182.8	2.688	0.926	0.740	0.741	0.637	0.763	0.762	0.748	0.870	0.889	1.008	1.042	1.083	1.016	1.081	0.892	0.758	0.968	0.914	0.940	0.952	1.083	1.077	1.207	1.321	1.523	1.620	1.804	1.917	2.131	2.341	2.315	2.431	2.364	2.432	2.413	2.328	2.120	2.068	1.706	1.425	1.194	1.188
385.0	337.3	324.2	277.4	233.5	219.5	227.4	257.2	310.5	362.9	421.9	467.1	494.7	469.7	421.0	341.3	240.6	182.3	147.5	130.4	119.9	110.3	103.5	99.25	127.5	139.7	69.26	40.16	29.90	24.91	23.11	32.87	165.6	712.5	829.7	31.65	1.159	0.803	0.786	0.673	0.795	0.742	0.805	0.794	0.896	1.020	0.981	0.977	0.993	0.999	0.811	0.716	0.976	0.898	0.912	0.918	1.041	1.118	1.194	1.274	1.276	1.578	1.543	1.875	1.962	2.288	2.382	2.322	2.333	2.374	2.273	2.243	2.109	1.914	1.658	1.444	1.220	1.172
390.0	317.5	304.5	253.7	219.3	216.2	222.0	240.0	286.1	336.6	382.4	428.6	449.7	438.4	389.2	315.8	230.6	178.7	150.0	133.2	124.0	116.5	108.7	101.6	103.4	124.5	118.4	64.85	39.93	31.09	23.88	20.72	46.03	201.1	611.8	676.8	127.4	7.220	0.889	0.744	0.768	0.745	0.735	0.739	0.837	0.952	0.944	0.986	1.026	0.949	0.824	0.755	0.876	0.860	0.884	0.922	0.963	1.012	1.106	1.292	1.312	1.500	1.494	1.670	1.779	1.994	2.024	2.089	2.113	2.107	2.081	1.948	1.973	1.754	1.485	1.469	1.228	1.117
395.0	280.7	277.0	233.1	208.0	204.9	208.8	228.0	270.2	306.9	353.0	385.8	405.0	396.8	354.7	288.9	215.8	173.1	147.6	134.9	126.5	121.8	114.7	106.3	100.0	98.55	117.1	116.2	63.03	40.61	30.65	23.45	23.09	53.41	146.4	356.5	690.5	193.7	5.808	0.909	0.888	0.812	0.687	0.850	0.856	0.836	0.964	0.963	0.929	0.854	0.734	0.656	0.805	0.760	0.914	0.887	0.880	0.957	1.139	1.195	1.378	1.360	1.352	1.530	1.641	1.723	1.828	2.063	1.819	1.936	1.922	1.907	1.798	1.623	1.430	1.224	1.132	1.133
400.0	260.5	262.1	217.2	202.4	199.1	202.2	225.0	250.5	283.8	328.6	364.1	375.2	366.3	328.4	271.0	206.6	168.3	147.2	135.8	128.1	125.0	117.7	110.4	103.0	96.46	98.10	124.6	97.78	49.64	37.88	28.08	21.29	23.05	39.88	93.96	425.0	627.2	32.92	2.193	0.889	0.886	0.691	0.869	0.740	0.805	0.784	0.951	0.933	0.840	0.759	0.671	0.819	0.793	0.855	0.813	0.891	0.925	0.902	1.054	1.144	1.284	1.317	1.326	1.513	1.626	1.786	1.829	1.865	1.671	1.866	1.622	1.625	1.590	1.427	1.302	1.166	1.066
405.0	255.0	252.6	210.4	199.4	192.0	194.1	216.9	239.3	268.8	304.7	335.6	353.2	337.3	303.5	254.8	197.2	161.6	145.9	133.5	127.5	126.0	119.3	113.2	107.6	97.78	93.18	106.0	123.3	74.35	44.09	32.96	24.28	18.62	18.04	27.37	120.8	484.1	494.6	26.18	1.299	0.791	0.673	0.748	0.721	0.720	0.835	0.833	0.845	0.761	0.786	0.676	0.797	0.771	0.812	0.793	0.862	1.007	1.064	0.992	1.245	1.238	1.211	1.408	1.541	1.576	1.659	1.505	1.618	1.648	1.615	1.515	1.583	1.517	1.339	1.197	1.064	1.130
410.0	226.8	231.8	200.9	190.3	190.0	195.8	206.4	227.9	249.5	286.6	311.7	323.0	307.0	280.4	233.3	187.5	154.7	140.8	130.0	125.9	123.2	119.4	116.3	110.5	102.8	95.60	92.19	106.0	108.1	68.28	41.34	30.14	21.32	16.18	14.50	32.82	134.1	365.8	365.5	114.9	6.223	0.905	0.792	0.738	0.748	0.852	0.792	0.750	0.716	0.709	0.664	0.723	0.751	0.808	0.747	0.863	0.973	0.979	1.008	1.103	1.190	1.200	1.349	1.312	1.377	1.543	1.480	1.537	1.500	1.543	1.444	1.378	1.416	1.236	1.105	1.047	1.075
415.0	201.1	212.0	187.5	174.8	175.8	194.3	198.2	212.0	239.6	265.5	285.5	295.9	280.6	253.3	210.3	172.7	148.3	134.5	124.4	121.0	121.9	118.2	115.2	110.7	104.9	99.68	91.99	88.67	100.8	105.0	60.00	36.70	26.59	19.00	14.59	14.73	35.40	88.14	219.9	498.4	164.6	5.611	0.818	0.747	0.782	0.845	0.730	0.682	0.759	0.672	0.607	0.659	0.711	0.754	0.720	0.793	0.945	0.927	0.962	0.998	1.062	1.228	1.235	1.215	1.273	1.446	1.391	1.458	1.397	1.370	1.254	1.308	1.277	1.119	0.981	1.037	0.976
420.0	190.3	197.4	182.1	177.7	180.4	185.3	194.0	201.8	229.5	251.5	272.2	276.3	260.7	235.9	197.1	162.6	142.3	131.1	121.5	117.9	116.4	116.0	113.6	110.2	105.8	101.3	94.22	86.28	87.35	105.9	85.93	45.51	30.57	22.42	16.50	12.65	14.29	24.51	58.81	300.7	486.4	30.68	2.120	0.795	0.789	0.713	0.662	0.687	0.673	0.602	0.593	0.707	0.751	0.627	0.719	0.737	0.931	0.850	0.893	0.892	1.069	1.120	1.265	1.273	1.082	1.148	1.312	1.307	1.246	1.360	1.246	1.237	1.113	1.017	0.998	0.923	0.920
425.0	188.5	181.3	176.9	171.4	176.4	178.1	186.0	201.4	222.4	244.3	260.9	262.3	244.6	221.6	186.1	154.9	134.6	124.6	118.0	114.3	112.7	112.0	111.3	109.0	106.6	101.7	94.87	88.18	82.46	89.97	100.6	63.07	34.90	25.35	18.56	13.54	11.06	10.89	17.64	84.90	373.0	401.2	25.01	1.039	0.828	0.678	0.718	0.700	0.678	0.523	0.571	0.714	0.772	0.730	0.853	0.768	0.929	0.932	0.840	0.950	1.027	1.086	1.252	1.212	1.106	1.129	1.147	1.195	1.076	1.176	1.086	1.074	1.035	1.038	0.927	0.851	0.916
430.0	183.1	175.4	167.6	167.0	172.0	174.2	183.7	195.9	211.8	233.5	247.5	243.0	229.3	204.8	170.9	145.9	127.3	117.1	111.1	108.8	107.9	107.5	107.5	107.6	104.1	101.2	96.64	90.42	82.97	78.91	85.93	83.46	51.69	30.41	21.61	16.33	12.66	9.885	9.352	22.99	103.2	288.2	306.7	106.3	6.261	0.852	0.760	0.632	0.687	0.576	0.607	0.674	0.765	0.717	0.772	0.753	0.812	0.894	0.876	0.914	1.048	1.031	1.116	1.063	1.128	1.158	1.130	1.142	1.057	1.088	1.059	1.011	0.994	0.883	0.844	0.874	0.808
435.0	266.5	164.4	159.7	163.7	162.5	169.3	172.0	187.7	203.4	218.7	231.4	225.3	215.3	187.9	157.9	133.9	119.8	109.4	103.4	103.3	102.4	102.2	102.5	102.0	101.2	99.57	96.31	91.14	85.54	78.17	73.34	75.71	73.74	44.05	25.67	19.07	14.85	11.51	8.993	9.902	26.73	68.55	178.3	441.2	156.9	5.161	0.832	0.700	0.661	0.597	0.584	0.611	0.702	0.731	0.788	0.678	0.857	0.895	0.870	0.894	0.952	0.936	1.002	1.053	1.079	1.069	1.200	1.011	1.106	0.960	1.054	0.914	0.849	0.885	0.782	0.862	0.780
440.0	441.2	166.7	156.8	155.5	156.9	166.6	169.5	181.8	200.0	218.2	222.5	220.3	201.0	176.4	149.0	127.8	114.1	104.8	100.1	99.92	97.36	98.03	99.56	99.65	99.20	97.40	93.57	91.41	85.52	77.47	70.80	65.64	74.24	59.51	30.83	21.30	16.71	12.77	9.922	7.883	10.08	18.45	47.24	279.4	467.2	28.50	1.741	0.823	0.660	0.592	0.552	0.656	0.743	0.708	0.721	0.707	0.794	0.819	0.878	0.884	0.840	0.902	1.061	1.022	1.094	0.982	1.078	1.024	0.928	0.975	0.974	0.820	0.847	0.697	0.741	0.809	0.792
445.0	617.6	218.9	153.5	153.8	156.3	160.2	168.5	177.7	188.6	209.1	214.8	206.1	189.2	164.7	140.9	119.2	108.7	99.90	94.95	93.92	93.76	94.09	96.89	96.82	95.83	95.07	91.02	90.55	84.90	77.79	69.01	61.03	61.88	66.10	40.79	23.83	17.59	14.00	10.98	8.230	7.012	7.530	13.37	81.44	379.6	387.1	20.40	1.059	0.703	0.587	0.531	0.652	0.635	0.661	0.698	0.747	0.755	0.767	0.896	0.906	0.914	0.857	0.973	0.943	1.058	0.986	0.987	0.996	0.830	0.867	0.922	0.724	0.802	0.721	0.704	0.715	0.657
450.0	569.8	429.7	154.3	144.5	147.4	150.5	158.7	173.2	179.6	193.5	198.6	192.0	171.6	149.9	127.8	110.2	97.73	90.68	87.36	85.24	85.70	87.39	89.12	88.88	90.29	89.30	86.95	85.37	82.18	75.29	68.11	59.07	52.43	55.52	53.52	33.32	20.41	15.32	12.08	9.569	7.425	5.846	6.091	20.79	105.3	301.0	294.5	93.08	4.604	0.670	0.579	0.614	0.590	0.681	0.674	0.657	0.685	0.698	0.782	0.792	0.856	0.821	0.878	0.973	0.960	0.868	0.961	0.928	0.872	0.871	0.801	0.694	0.752	0.638	0.631	0.624	0.609
455.0	302.0	657.0	260.3	127.4	137.9	138.1	146.0	160.7	165.6	177.6	180.4	175.5	156.0	132.9	114.9	98.63	88.48	83.39	77.35	78.27	77.85	78.54	80.53	80.38	81.17	82.93	81.32	80.56	77.11	72.42	65.76	56.31	48.16	43.40	46.39	46.10	28.33	17.41	13.05	10.11	8.344	6.208	5.114	7.514	25.57	70.92	175.1	398.7	131.5	3.749	0.653	0.567	0.671	0.632	0.674	0.686	0.688	0.695	0.690	0.832	0.855	0.790	0.857	0.925	0.907	0.861	0.901	0.895	0.689	0.734	0.702	0.684	0.644	0.622	0.603	0.563	0.629
460.0	163.2	585.8	450.9	129.7	131.7	130.6	138.1	149.6	157.1	167.0	168.3	160.9	143.1	123.2	105.4	91.05	82.50	76.61	73.03	70.41	71.40	72.25	74.34	74.96	75.53	77.42	75.76	75.46	72.46	68.53	62.93	54.33	46.35	38.73	37.76	44.18	37.12	19.84	13.86	10.86	8.506	6.961	5.403	4.576	7.978	17.93	45.63	252.3	376.8	21.04	1.494	0.662	0.621	0.582	0.595	0.593	0.562	0.608	0.588	0.732	0.690	0.777	0.833	0.783	0.725	0.778	0.768	0.681	0.648	0.644	0.676	0.693	0.614	0.529	0.510	0.510	0.511
465.0	108.6	383.8	631.2	181.5	119.4	122.6	133.2	138.2	147.4	155.3	157.4	150.5	132.2	112.8	96.01	84.75	75.80	70.06	66.60	65.90	66.05	67.33	68.92	70.15	71.29	70.55	70.56	69.47	69.26	65.18	60.10	51.80	44.95	37.01	33.13	36.07	40.52	25.83	15.12	11.20	9.255	7.086	5.497	4.425	4.570	6.163	11.98	71.02	311.7	296.4	16.92	0.813	0.631	0.645	0.603	0.554	0.562	0.658	0.573	0.630	0.670	0.744	0.706	0.752	0.773	0.707	0.758	0.629	0.719	0.581	0.571	0.623	0.538	0.546	0.386	0.447	0.438
470.0	96.25	179.1	555.1	401.6	121.9	113.3	121.4	127.6	133.4	139.8	143.6	134.6	116.1	99.68	85.12	74.01	66.47	62.82	59.38	58.93	57.82	59.78	61.70	62.34	63.88	63.63	63.32	62.60	63.00	59.30	55.34	48.73	41.79	34.93	30.46	27.89	31.70	31.88	20.47	12.23	9.380	7.285	5.953	4.791	3.933	3.677	4.522	17.43	86.68	230.2	216.2	80.37	4.524	0.631	0.587	0.537	0.604	0.592	0.563	0.597	0.633	0.660	0.686	0.594	0.675	0.660	0.685	0.575	0.591	0.555	0.494	0.499	0.470	0.489	0.380	0.406	0.387
475.0	109.7	101.8	268.8	579.4	216.5	103.7	106.2	111.6	119.8	124.6	123.7	116.8	100.8	86.81	74.80	65.32	59.49	53.90	51.25	51.06	51.04	52.93	54.03	54.27	55.74	56.44	55.78	55.31	55.34	53.10	49.40	44.69	38.59	32.56	28.03	24.11	22.84	26.01	26.95	16.46	9.655	7.232	6.006	5.078	4.178	3.349	2.908	5.482	20.75	53.83	119.2	291.8	103.9	3.341	0.523	0.537	0.544	0.597	0.506	0.588	0.643	0.588	0.689	0.514	0.586	0.539	0.567	0.514	0.500	0.482	0.478	0.439	0.465	0.406	0.407	0.351	0.364
480.0	113.0	88.00	132.3	496.4	383.7	98.52	96.90	104.6	110.0	114.2	112.1	104.7	92.33	77.46	66.70	58.73	52.65	49.37	46.99	45.47	47.25	47.17	48.69	49.66	50.87	51.24	50.72	50.50	50.91	49.00	45.67	40.95	36.07	30.80	26.57	22.94	20.30	20.24	25.63	21.28	11.37	7.493	5.841	4.955	4.186	3.459	2.744	2.962	6.152	13.37	30.68	164.5	276.2	23.40	1.378	0.616	0.595	0.599	0.499	0.498	0.502	0.592	0.626	0.519	0.547	0.531	0.521	0.453	0.483	0.437	0.447	0.501	0.438	0.336	0.334	0.299	0.378
485.0	110.6	91.74	93.16	292.6	541.3	144.0	90.84	94.96	99.31	102.8	104.7	95.03	84.87	70.63	61.52	54.96	47.89	45.26	43.13	41.38	42.13	43.48	43.63	44.92	45.06	46.08	46.92	47.17	46.45	45.82	43.31	38.34	33.57	29.12	24.82	21.59	19.08	16.83	20.23	23.66	15.21	8.140	6.040	5.159	4.281	3.864	3.045	2.595	3.028	4.328	8.095	45.13	218.9	188.5	18.78	1.001	0.602	0.504	0.467	0.493	0.466	0.522	0.481	0.544	0.516	0.497	0.509	0.482	0.455	0.494	0.440	0.402	0.361	0.260	0.354	0.315	0.276
490.0	83.50	102.5	73.52	131.7	445.4	340.0	93.53	85.91	91.89	92.74	91.01	86.38	73.90	63.66	54.63	47.27	42.73	40.12	38.91	37.43	37.20	37.97	38.87	39.99	40.86	41.04	41.27	41.93	41.50	40.84	37.95	35.41	30.07	26.70	23.37	20.01	17.81	15.75	15.08	18.42	18.94	11.83	6.677	5.220	4.332	3.854	3.362	2.962	2.572	2.714	3.373	11.69	59.87	153.9	205.0	78.62	4.331	0.673	0.517	0.532	0.449	0.518	0.445	0.492	0.465	0.437	0.373	0.453	0.375	0.372	0.367	0.283	0.340	0.346	0.257	0.279	0.260
495.0	56.94	109.3	75.54	80.44	206.9	478.4	174.0	77.06	80.79	83.69	80.04	73.14	64.42	54.78	47.71	40.93	36.73	34.94	33.35	31.98	32.28	33.00	34.29	34.76	34.97	35.44	36.14	36.87	36.73	35.69	33.54	31.32	26.95	24.25	21.04	18.20	16.45	14.37	12.61	12.77	15.75	16.16	9.436	5.684	4.622	4.045	3.612	3.521	3.013	2.700	2.687	4.612	15.38	37.52	117.8	263.2	101.7	3.010	0.733	0.546	0.529	0.445	0.375	0.396	0.457	0.392	0.350	0.390	0.322	0.313	0.382	0.269	0.274	0.330	0.224	0.248	0.197
500.0	52.63	92.73	91.87	68.69	97.15	403.8	329.7	79.85	75.12	73.75	73.50	67.49	59.35	48.37	43.28	36.65	32.46	31.09	30.23	29.27	28.88	29.88	30.40	30.90	31.78	31.91	31.69	32.32	32.81	32.45	30.36	27.84	24.79	22.18	19.37	16.85	15.01	13.31	11.49	10.58	11.52	15.31	12.63	6.856	4.907	4.390	3.596	3.575	3.479	3.095	2.804	3.379	5.924	11.06	32.06	155.4	267.3	24.81	1.494	0.548	0.488	0.364	0.404	0.369	0.420	0.407	0.414	0.346	0.309	0.311	0.291	0.291	0.242	0.240	0.193	0.166	0.204
505.0	40.58	71.55	102.6	66.48	65.34	230.1	455.6	125.9	66.49	66.13	66.19	61.24	52.75	44.16	38.80	33.89	29.69	27.43	26.57	25.83	25.77	27.17	27.80	28.63	28.09	28.65	29.03	29.21	29.78	29.39	27.19	25.42	22.20	20.30	17.66	15.76	14.16	12.31	10.74	9.273	9.213	11.84	14.14	8.975	5.339	4.489	3.970	3.661	3.598	3.447	3.295	3.241	3.999	5.246	10.05	44.62	204.8	198.8	19.02	0.804	0.496	0.364	0.337	0.316	0.321	0.311	0.306	0.291	0.318	0.321	0.273	0.270	0.259	0.272	0.176	0.202	0.207
510.0	31.15	48.75	85.81	70.83	51.58	97.57	358.6	294.5	71.55	56.91	57.34	52.33	45.97	37.89	32.38	29.32	25.53	24.06	23.93	22.76	22.93	23.15	23.63	24.26	23.89	24.79	25.24	25.08	25.23	25.24	23.87	21.88	19.71	17.52	15.59	14.14	12.47	11.03	9.713	8.649	7.756	8.269	11.19	11.53	7.346	4.606	3.898	3.754	3.628	3.405	3.421	3.280	3.699	4.058	5.322	12.76	56.54	155.9	182.3	63.53	2.531	0.417	0.346	0.318	0.296	0.312	0.285	0.254	0.248	0.253	0.217	0.229	0.202	0.216	0.171	0.226	0.177
515.0	33.19	34.90	56.37	85.04	49.85	55.01	150.2	390.5	159.3	51.50	49.62	46.72	39.98	32.53	27.21	24.37	22.05	20.95	19.91	19.43	18.66	19.69	20.08	20.12	20.76	21.12	20.79	21.01	21.40	21.26	20.44	18.90	16.42	15.29	13.76	12.20	10.69	9.514	8.729	7.478	7.074	6.473	7.092	9.451	10.09	6.420	3.931	3.632	3.343	3.271	3.229	3.484	3.344	3.641	3.956	5.366	14.53	37.00	94.06	208.2	26.42	2.135	0.284	0.341	0.333	0.268	0.261	0.213	0.252	0.208	0.138	0.154	0.156	0.162	0.156	0.162	0.158
520.0	23.12	29.66	39.70	78.90	59.98	42.20	67.84	304.6	285.3	54.73	42.60	38.86	34.59	28.30	24.58	21.60	18.82	17.79	17.74	16.52	16.36	17.32	17.11	17.90	17.71	18.49	18.44	18.49	18.56	18.91	17.62	16.59	15.43	13.50	12.31	10.87	9.500	8.636	7.836	6.826	6.298	5.609	5.717	6.408	9.950	8.266	4.541	3.557	3.196	2.965	3.000	3.256	3.282	3.349	3.420	3.486	5.090	9.555	23.96	121.5	191.0	23.05	0.784	0.286	0.295	0.246	0.202	0.234	0.194	0.182	0.122	0.154	0.141	0.135	0.123	0.115	0.150
525.0	18.98	26.31	28.44	59.48	64.54	37.05	43.72	159.0	382.3	103.8	38.84	34.68	30.89	24.64	21.60	18.87	16.99	16.29	15.62	14.67	14.70	15.10	14.74	15.88	15.18	15.62	16.82	16.51	16.76	16.59	16.39	15.09	14.02	12.08	11.01	9.703	8.607	8.129	7.220	6.387	5.751	5.457	4.854	5.035	7.682	9.047	6.353	3.518	2.885	2.911	2.756	2.871	3.055	3.250	3.114	2.779	2.573	3.191	6.070	33.00	149.9	161.2	16.68	0.403	0.281	0.248	0.201	0.189	0.145	0.126	0.107	0.131	0.126	0.136	0.123	0.105	0.089
530.0	19.29	22.64	23.89	37.16	65.91	45.57	32.15	65.83	267.8	255.6	49.50	30.51	26.51	21.79	18.54	16.47	13.95	13.49	13.07	12.84	12.66	12.79	12.84	13.27	12.95	13.86	13.85	13.72	14.03	14.49	13.93	13.04	11.58	10.32	9.592	8.457	7.653	7.155	6.461	5.635	5.154	4.644	4.206	4.212	4.924	7.061	7.426	4.818	2.904	2.472	2.420	2.443	2.529	2.781	2.786	2.303	1.815	1.544	2.017	7.936	40.01	112.4	132.1	46.92	2.253	0.218	0.231	0.174	0.132	0.107	0.124	0.129	0.117	0.106	0.101	0.073	0.118
535.0	17.70	19.86	19.76	24.78	45.32	59.48	30.10	34.66	104.5	313.6	153.2	26.74	21.21	18.99	15.35	13.33	11.96	11.34	10.93	10.77	10.50	10.98	10.51	10.95	11.15	11.18	11.69	11.27	11.72	12.10	11.23	10.71	9.735	8.856	8.259	7.104	6.610	6.053	5.567	5.078	4.457	4.209	3.676	3.745	3.624	4.193	6.320	6.392	3.762	2.299	2.133	2.124	2.104	2.157	2.345	2.029	1.354	1.101	1.068	2.239	9.265	25.93	64.87	147.9	26.73	1.766	0.201	0.160	0.152	0.086	0.074	0.127	0.091	0.086	0.065	0.091	0.065
540.0	18.34	17.23	16.51	21.90	30.00	58.42	35.71	28.40	45.37	209.5	272.7	34.35	19.73	16.20	13.53	11.83	10.17	9.787	9.667	9.357	9.684	9.286	8.940	10.07	9.670	9.532	9.893	10.52	10.36	10.39	10.08	9.431	8.642	8.144	7.252	6.254	5.795	5.482	4.936	4.528	4.209	3.946	3.305	3.274	3.037	3.104	4.433	6.236	4.810	2.546	1.945	1.853	1.828	1.945	1.891	1.829	1.312	0.960	0.720	0.831	2.413	6.105	16.14	86.26	139.7	21.70	0.659	0.135	0.122	0.129	0.072	0.109	0.108	0.069	0.060	0.084	0.069
545.0	15.07	13.29	15.29	17.56	21.10	52.41	45.37	21.99	29.70	107.8	311.5	95.90	17.94	14.03	12.45	10.35	9.011	8.962	8.771	8.015	8.147	8.219	7.967	8.667	8.670	8.855	8.907	9.142	9.363	8.928	8.675	7.996	7.515	6.757	6.570	5.579	5.059	4.914	4.553	4.050	3.754	3.517	2.935	2.882	2.695	2.581	2.877	4.648	5.535	3.350	2.012	1.742	1.716	1.696	1.515	1.551	1.437	0.821	0.626	0.553	0.882	1.752	3.912	23.37	105.3	118.3	14.49	0.213	0.120	0.119	0.082	0.099	0.098	0.091	0.089	0.062	0.034
550.0	14.05	15.40	15.04	14.78	15.60	32.02	49.61	26.81	24.37	44.06	191.1	215.2	34.98	12.66	10.55	9.012	7.717	7.459	7.286	7.042	6.806	6.917	6.920	7.129	7.057	7.403	7.714	7.626	7.812	7.752	7.550	6.887	6.292	5.956	5.475	4.742	4.558	4.131	3.876	3.489	3.194	2.864	2.627	2.526	2.350	2.271	2.242	2.881	4.336	4.137	2.720	1.711	1.506	1.402	1.348	1.255	1.141	0.908	0.631	0.451	0.499	0.712	1.134	5.493	28.13	79.51	90.35	17.14	1.464	0.115	0.084	0.085	0.079	0.062	0.077	0.042	0.038
555.0	16.22	18.83	14.24	12.11	13.92	18.94	39.71	40.76	22.65	28.03	69.14	216.1	131.5	11.05	8.887	7.705	6.413	6.253	5.822	6.001	5.413	5.526	5.597	5.805	5.638	6.068	6.252	5.931	6.264	6.221	6.134	5.621	5.236	4.832	4.465	3.897	3.715	3.618	3.294	2.892	2.709	2.457	2.172	2.096	2.036	1.941	1.878	1.907	2.434	3.490	3.555	2.073	1.269	1.179	1.108	1.054	0.854	0.752	0.665	0.433	0.400	0.422	0.450	1.460	6.442	18.26	42.82	93.14	24.62	0.985	0.112	0.081	0.051	0.067	0.051	0.041	0.054
560.0	20.71	21.12	16.54	12.28	10.18	13.18	29.51	46.22	23.50	25.33	33.35	131.2	226.3	24.32	7.328	6.547	5.470	5.014	4.934	4.971	4.751	4.849	4.963	4.894	4.714	5.225	5.068	5.149	5.253	5.319	4.946	4.691	4.316	4.014	3.803	3.345	3.241	3.036	2.809	2.470	2.473	2.155	1.978	1.841	1.720	1.630	1.590	1.527	1.615	2.508	3.436	2.574	1.241	1.029	0.887	0.942	0.720	0.564	0.623	0.564	0.343	0.304	0.324	0.576	1.696	4.285	10.66	54.62	87.15	17.94	0.315	0.101	0.054	0.052	0.042	0.048	0.016
565.0	28.06	27.61	17.96	13.73	11.51	10.42	21.67	45.69	32.24	27.09	27.18	65.98	229.6	83.18	6.435	5.264	4.685	4.590	4.262	4.351	3.964	4.211	4.172	3.939	4.479	4.222	4.057	4.283	4.360	4.581	4.338	3.837	3.786	3.494	3.109	2.858	2.767	2.401	2.318	2.175	2.176	1.829	1.753	1.701	1.498	1.501	1.301	1.329	1.284	1.576	2.551	2.808	1.688	0.944	0.798	0.754	0.628	0.469	0.506	0.513	0.420	0.281	0.247	0.377	0.644	1.173	2.606	14.48	62.53	71.73	10.28	0.107	0.045	0.085	0.031	0.031	0.036
570.0	42.68	38.78	22.61	11.89	9.848	9.492	15.59	33.97	45.84	31.23	33.88	40.72	130.8	170.3	26.70	4.317	3.771	3.483	3.149	3.341	3.116	3.215	3.395	3.225	3.309	3.205	3.170	3.222	3.431	3.430	3.380	3.061	2.910	2.680	2.543	2.272	2.256	2.085	1.946	1.688	1.649	1.473	1.386	1.319	1.222	1.213	1.170	1.154	1.008	0.983	1.390	2.018	1.873	1.192	0.749	0.570	0.536	0.397	0.348	0.413	0.459	0.385	0.270	0.342	0.362	0.492	0.780	3.462	16.61	44.91	43.27	14.79	0.777	0.072	0.036	0.033	0.050
575.0	51.12	51.58	30.96	10.91	8.456	8.446	12.61	22.62	48.25	46.73	39.02	40.45	56.26	140.4	101.4	4.126	2.703	2.419	2.585	2.411	2.383	2.250	2.522	2.302	2.344	2.459	2.354	2.340	2.591	2.793	2.368	2.401	2.267	2.061	2.072	1.809	1.775	1.584	1.509	1.168	1.183	1.276	1.056	1.125	0.971	0.933	0.874	0.833	0.755	0.749	0.750	1.016	1.606	1.464	0.856	0.446	0.395	0.307	0.297	0.291	0.358	0.436	0.400	0.308	0.258	0.341	0.381	0.943	3.883	10.35	22.70	53.66	19.21	0.608	0.032	0.033	0.012
580.0	58.36	55.44	33.84	12.18	7.957	9.568	11.42	19.79	41.13	56.20	42.95	43.41	36.53	80.09	159.2	19.30	2.307	1.988	2.039	1.878	1.859	1.744	1.947	1.987	1.929	1.919	1.897	1.935	1.990	1.985	1.970	2.023	1.687	1.757	1.801	1.510	1.470	1.332	1.192	1.074	1.072	0.961	0.904	0.849	0.885	0.884	0.795	0.695	0.640	0.596	0.588	0.625	1.047	1.382	0.958	0.534	0.306	0.244	0.227	0.244	0.246	0.314	0.453	0.352	0.260	0.297	0.263	0.440	1.055	2.413	5.688	29.83	49.07	11.52	0.217	0.033	0.039
585.0	60.73	60.95	37.15	12.00	6.912	9.625	10.50	18.47	34.37	60.57	48.16	45.43	33.96	40.18	142.5	72.65	1.963	1.795	1.744	1.349	1.537	1.589	1.581	1.685	1.577	1.550	1.697	1.508	1.653	1.747	1.626	1.550	1.503	1.325	1.415	1.360	1.207	1.084	1.025	0.994	0.903	0.809	0.826	0.795	0.749	0.726	0.750	0.649	0.578	0.491	0.485	0.455	0.659	1.076	1.187	0.645	0.316	0.236	0.200	0.228	0.203	0.253	0.408	0.341	0.254	0.292	0.287	0.285	0.415	0.663	1.378	7.966	34.82	31.10	5.550	0.065	0.043
590.0	66.71	68.83	41.19	14.08	7.614	8.355	10.98	17.04	29.40	55.66	60.05	47.00	34.84	21.95	67.96	129.4	21.44	1.521	1.325	1.321	1.293	1.334	1.231	1.300	1.266	1.383	1.277	1.273	1.348	1.268	1.258	1.206	1.197	0.989	1.141	1.163	1.022	0.942	0.804	0.858	0.730	0.753	0.646	0.637	0.655	0.638	0.663	0.577	0.502	0.432	0.371	0.352	0.367	0.561	0.979	0.771	0.474	0.239	0.214	0.208	0.197	0.216	0.283	0.377	0.409	0.355	0.318	0.277	0.292	0.310	0.411	1.860	9.059	22.60	27.97	10.88	0.540
595.0	62.68	64.46	36.46	13.39	6.541	7.346	11.03	16.10	26.25	44.99	67.29	51.84	34.12	17.99	21.71	93.94	78.20	2.106	1.126	0.992	0.946	1.073	0.924	1.014	1.005	0.975	1.100	1.012	1.022	0.801	0.980	0.868	0.947	0.887	0.803	0.899	0.956	0.850	0.556	0.562	0.566	0.533	0.597	0.518	0.495	0.492	0.473	0.526	0.446	0.351	0.311	0.271	0.233	0.321	0.522	0.737	0.602	0.299	0.185	0.152	0.182	0.210	0.205	0.278	0.390	0.398	0.279	0.253	0.226	0.200	0.174	0.482	2.083	5.174	12.86	29.70	12.32
600.0	66.79	60.36	33.92	12.41	5.595	6.673	9.864	16.49	24.07	39.49	62.31	57.21	33.26	16.25	9.205	44.69	116.7	16.31	1.122	0.912	0.722	0.925	0.869	0.788	0.850	0.817	0.835	0.850	0.877	0.839	0.753	0.671	0.678	0.741	0.814	0.745	0.832	0.619	0.501	0.434	0.487	0.468	0.522	0.456	0.412	0.512	0.443	0.473	0.440	0.286	0.291	0.245	0.202	0.217	0.290	0.550	0.663	0.467	0.159	0.143	0.153	0.203	0.191	0.248	0.288	0.380	0.342	0.227	0.197	0.187	0.115	0.147	0.486	1.185	3.152	16.22	27.43
605.0	63.39	57.10	33.03	12.55	5.559	5.128	9.398	14.45	24.48	36.33	54.61	59.34	33.90	15.44	6.376	15.98	97.22	56.88	1.129	0.897	0.650	0.826	0.695	0.718	0.693	0.809	0.722	0.697	0.590	0.683	0.723	0.628	0.641	0.628	0.730	0.693	0.774	0.621	0.517	0.421	0.424	0.386	0.474	0.446	0.392	0.463	0.328	0.429	0.382	0.320	0.216	0.192	0.192	0.135	0.167	0.335	0.572	0.496	0.249	0.153	0.141	0.219	0.230	0.261	0.241	0.313	0.366	0.227	0.203	0.160	0.124	0.066	0.141	0.307	0.740	4.308	18.64
610.0	58.03	56.48	31.98	10.99	5.454	5.672	8.755	14.47	22.29	32.38	44.39	55.72	36.72	15.46	5.786	5.850	41.58	94.80	18.02	0.715	0.585	0.580	0.543	0.606	0.568	0.554	0.584	0.488	0.568	0.524	0.586	0.503	0.519	0.586	0.605	0.650	0.610	0.510	0.385	0.351	0.348	0.377	0.334	0.314	0.338	0.346	0.317	0.370	0.346	0.231	0.174	0.169	0.157	0.124	0.126	0.175	0.319	0.488	0.386	0.213	0.147	0.193	0.214	0.194	0.215	0.270	0.302	0.306	0.232	0.122	0.114	0.047	0.063	0.095	0.206	0.993	4.867
615.0	43.83	51.43	28.24	10.66	4.658	5.444	8.917	12.09	20.67	28.21	38.49	45.24	41.06	15.32	5.967	3.459	11.71	61.06	66.38	1.862	0.642	0.501	0.545	0.456	0.420	0.475	0.494	0.504	0.472	0.415	0.505	0.340	0.363	0.423	0.481	0.479	0.556	0.453	0.365	0.276	0.269	0.315	0.314	0.290	0.315	0.347	0.294	0.261	0.278	0.212	0.167	0.106	0.119	0.126	0.126	0.127	0.161	0.318	0.352	0.335	0.170	0.156	0.128	0.214	0.179	0.187	0.252	0.256	0.284	0.158	0.141	0.061	0.029	0.040	0.062	0.233	1.146
620.0	37.95	44.57	26.42	9.487	7.314	4.953	8.715	13.13	19.30	26.51	33.83	38.16	40.53	17.63	5.566	2.930	4.402	27.19	91.17	15.29	0.459	0.476	0.368	0.415	0.364	0.468	0.443	0.375	0.384	0.358	0.377	0.268	0.315	0.342	0.376	0.448	0.379	0.295	0.281	0.293	0.235	0.292	0.268	0.233	0.271	0.278	0.228	0.210	0.221	0.158	0.160	0.118	0.091	0.072	0.156	0.097	0.099	0.151	0.289	0.305	0.197	0.143	0.126	0.210	0.194	0.186	0.201	0.201	0.278	0.198	0.135	0.044	0.037	0.015	0.044	0.076	0.277
625.0	37.64	39.20	22.51	8.594	5.473	6.293	8.541	12.85	17.96	24.34	31.25	32.53	36.20	20.94	6.171	3.388	2.359	9.215	71.13	49.77	0.593	0.321	0.384	0.321	0.428	0.338	0.378	0.318	0.364	0.304	0.309	0.241	0.276	0.388	0.305	0.341	0.373	0.261	0.258	0.255	0.176	0.232	0.192	0.221	0.253	0.242	0.199	0.192	0.202	0.147	0.118	0.108	0.082	0.096	0.094	0.080	0.063	0.101	0.156	0.298	0.361	0.142	0.106	0.142	0.146	0.155	0.180	0.125	0.202	0.237	0.086	0.051	0.069	0.028	0.043	0.036	0.077
630.0	37.63	34.53	19.17	7.426	4.446	5.840	7.241	10.40	15.66	22.05	27.84	28.51	29.00	23.72	8.334	3.457	2.461	3.495	28.05	72.66	15.28	0.363	0.380	0.209	0.286	0.337	0.255	0.289	0.244	0.299	0.231	0.220	0.227	0.294	0.288	0.261	0.274	0.275	0.182	0.160	0.200	0.200	0.177	0.167	0.185	0.244	0.180	0.186	0.175	0.132	0.096	0.096	0.081	0.082	0.067	0.068	0.072	0.066	0.113	0.175	0.308	0.213	0.161	0.147	0.124	0.116	0.151	0.108	0.149	0.139	0.129	0.097	0.059	0.034	0.013	0.018	0.030
635.0	33.43	29.16	18.25	6.424	3.542	5.363	6.481	10.40	14.63	20.69	24.41	25.53	22.58	21.84	12.68	4.261	2.698	2.263	7.485	43.15	55.62	1.439	0.325	0.218	0.291	0.236	0.259	0.277	0.226	0.156	0.183	0.163	0.167	0.234	0.220	0.260	0.221	0.204	0.147	0.088	0.149	0.166	0.148	0.159	0.138	0.198	0.174	0.138	0.148	0.108	0.075	0.054	0.090	0.070	0.059	0.069	0.052	0.067	0.069	0.097	0.223	0.203	0.186	0.118	0.132	0.119	0.139	0.082	0.068	0.140	0.105	0.140	0.097	0.048	0.009	0.010	0.017
640.0	28.78	27.96	16.06	6.616	3.690	5.398	6.725	10.40	14.78	18.15	24.24	23.46	20.41	17.22	15.82	4.637	2.737	1.930	2.548	17.14	70.58	12.69	0.265	0.242	0.181	0.252	0.221	0.219	0.204	0.191	0.197	0.212	0.168	0.205	0.206	0.229	0.231	0.140	0.098	0.094	0.143	0.175	0.152	0.118	0.109	0.150	0.208	0.138	0.133	0.121	0.089	0.074	0.057	0.043	0.054	0.079	0.046	0.074	0.047	0.083	0.139	0.165	0.175	0.115	0.082	0.098	0.101	0.118	0.067	0.083	0.102	0.089	0.089	0.046	0.040	0.005	0.001
645.0	24.03	24.76	13.76	7.370	3.888	4.092	7.229	8.701	12.92	17.28	21.90	22.11	18.68	15.66	16.59	6.489	2.825	1.866	1.416	5.343	51.58	38.67	0.458	0.164	0.202	0.256	0.157	0.183	0.196	0.171	0.138	0.177	0.132	0.187	0.170	0.209	0.190	0.132	0.083	0.136	0.133	0.126	0.231	0.139	0.090	0.135	0.172	0.125	0.121	0.067	0.071	0.042	0.050	0.048	0.049	0.073	0.040	0.046	0.057	0.056	0.105	0.136	0.140	0.153	0.119	0.122	0.116	0.069	0.079	0.116	0.065	0.030	0.090	0.084	0.036	0.033	0.010
650.0	23.34	21.48	13.69	7.417	4.138	4.401	6.642	8.806	12.06	17.47	19.51	21.47	19.16	14.08	15.10	9.437	3.217	2.079	1.225	1.871	24.42	59.45	4.484	0.215	0.169	0.217	0.171	0.149	0.141	0.180	0.139	0.158	0.148	0.148	0.149	0.160	0.146	0.176	0.117	0.157	0.124	0.100	0.165	0.152	0.088	0.120	0.144	0.092	0.096	0.067	0.067	0.049	0.038	0.051	0.040	0.074	0.031	0.037	0.073	0.034	0.062	0.097	0.167	0.114	0.149	0.112	0.105	0.078	0.080	0.051	0.055	0.050	0.081	0.095	0.047	0.033	0.019
