Sample:	'1
File name:	¿˚√Ò’¢.FD3
Run date:	'10:16:17, 06/23/2025
Operator:	Administrator
Comment:	'

Instrument
Model:	F-2700 FL Spectrophotometer
Serial number:	23B8-004
ROM Version:	4J14000 07

Instrument parameters
Measurement type:	3-D scan
Data mode:	Fluorescence
EX  Start WL:	220.0 nm
EX  End WL:	600.0 nm
EX Sampling interval:	5.0 nm
EM  Start WL:	230.0 nm
EM  End WL:	650.0 nm
EM Sampling interval:	5.0 nm
Scan speed:	12000 nm/min
EX Slit:	5.0 nm
EM Slit:	5.0 nm
PMT Voltage:	700 V
Response:	Auto 
Corrected spectra:	Off
Contour interval:	50.000

Peak integration
Integration method:	Rectangular
Sensitivity:	1
Threshold:	1.000

Peaks
No.	ApexEX/EM(nm)	Height(Data)
1	230.0/345.0	3931
2	250.0/275.0	598.8
3	255.0/280.0	612.2
4	265.0/585.0	130.1
5	270.0/600.0	122.2
6	275.0/310.0	1552
7	275.0/415.0	5932
8	275.0/435.0	5744
9	275.0/615.0	115.5
10	280.0/340.0	2131
11	280.0/625.0	100.0
12	350.0/415.0	3325
13	350.0/435.0	3283
14	460.0/345.0	10.63
15	475.0/350.0	10.28
16	505.0/275.0	3.636
17	510.0/280.0	3.782
18	515.0/285.0	3.764
19	545.0/410.0	16.36
20	550.0/305.0	7.656
21	550.0/415.0	16.59
22	560.0/340.0	10.08
23	565.0/345.0	10.21
24	570.0/350.0	10.19

Data points
	220.0	225.0	230.0	235.0	240.0	245.0	250.0	255.0	260.0	265.0	270.0	275.0	280.0	285.0	290.0	295.0	300.0	305.0	310.0	315.0	320.0	325.0	330.0	335.0	340.0	345.0	350.0	355.0	360.0	365.0	370.0	375.0	380.0	385.0	390.0	395.0	400.0	405.0	410.0	415.0	420.0	425.0	430.0	435.0	440.0	445.0	450.0	455.0	460.0	465.0	470.0	475.0	480.0	485.0	490.0	495.0	500.0	505.0	510.0	515.0	520.0	525.0	530.0	535.0	540.0	545.0	550.0	555.0	560.0	565.0	570.0	575.0	580.0	585.0	590.0	595.0	600.0
230.0	115.2	2032	3507	696.7	26.13	9.282	7.181	6.994	5.636	5.359	5.294	5.225	4.959	4.084	3.769	3.213	2.589	2.513	2.083	2.148	2.045	1.870	1.949	1.799	1.708	1.662	1.633	1.596	1.524	1.473	1.332	1.266	1.103	0.903	0.902	0.831	0.775	0.644	0.540	0.553	0.563	0.606	0.587	0.511	0.494	0.551	2.673	9.364	12.80	7.615	2.186	0.583	0.320	0.318	0.295	0.295	0.323	0.304	0.299	0.287	0.294	0.260	0.282	0.300	0.289	0.266	0.265	0.266	0.282	0.225	0.268	0.263	0.251	0.282	0.278	0.244	0.274
235.0	97.30	599.3	2802	3720	553.4	42.72	9.500	8.114	6.828	6.085	5.640	5.646	5.410	4.627	3.956	3.260	2.915	2.519	2.138	2.301	2.040	2.159	2.032	1.915	1.861	1.940	1.795	1.635	1.816	1.391	1.312	1.241	1.009	1.060	0.843	0.720	0.701	0.644	0.566	0.555	0.608	0.648	0.592	0.773	0.644	0.539	0.954	2.701	6.013	9.789	13.61	12.91	5.185	0.879	0.430	0.269	0.306	0.250	0.314	0.326	0.316	0.281	0.229	0.272	0.278	0.251	0.315	0.239	0.267	0.229	0.275	0.231	0.244	0.268	0.276	0.215	0.295
240.0	148.6	205.5	936.5	3996	4011	426.3	23.02	9.075	8.263	7.084	6.115	6.005	5.717	4.928	4.052	3.547	2.913	2.605	2.192	2.453	2.176	1.907	2.123	1.936	1.975	1.698	1.779	1.698	1.711	1.435	1.347	1.286	1.179	1.102	0.866	0.793	0.634	0.620	0.560	0.565	0.665	0.590	0.551	0.638	0.690	0.759	0.596	0.943	1.656	3.289	8.568	19.77	21.63	13.19	3.914	0.521	0.360	0.289	0.353	0.359	0.316	0.281	0.251	0.286	0.269	0.251	0.263	0.247	0.282	0.226	0.258	0.270	0.266	0.291	0.236	0.217	0.298
245.0	138.8	195.5	261.2	1582	5512	3554	309.8	14.02	9.168	8.595	7.608	6.838	5.887	5.852	4.040	3.866	3.031	2.734	2.386	2.428	2.133	1.881	2.276	2.137	1.843	1.733	1.660	1.572	1.665	1.599	1.293	1.384	1.242	1.030	0.981	0.799	0.790	0.686	0.577	0.543	0.613	0.538	0.501	0.560	0.646	0.798	0.810	0.823	0.769	1.016	2.388	7.627	17.73	28.20	23.16	11.64	2.459	0.436	0.373	0.324	0.321	0.281	0.264	0.279	0.276	0.260	0.262	0.263	0.278	0.220	0.298	0.302	0.302	0.282	0.228	0.250	0.263
250.0	71.37	154.3	227.1	433.8	1989	5155	5342	1247	65.87	11.69	9.750	7.717	6.641	6.234	4.693	3.916	3.404	2.988	2.818	2.653	2.134	2.108	2.134	2.162	1.859	1.956	1.732	1.862	1.555	1.567	1.479	1.425	1.359	1.112	0.932	0.809	0.802	0.633	0.645	0.537	0.574	0.481	0.498	0.473	0.492	0.562	0.623	0.946	1.033	0.885	0.963	2.032	4.570	9.841	17.56	25.82	30.93	19.42	11.39	2.968	0.493	0.335	0.337	0.311	0.307	0.296	0.309	0.276	0.254	0.266	0.277	0.265	0.264	0.285	0.248	0.285	0.283
255.0	51.14	66.39	188.0	316.5	515.7	1443	5756	9235	1724	67.28	12.78	10.15	8.409	6.920	5.479	4.273	3.618	3.637	2.774	2.662	2.188	2.383	2.101	2.223	2.284	2.015	1.963	1.826	1.765	1.752	1.579	1.315	1.297	1.367	0.948	0.959	0.809	0.734	0.623	0.546	0.635	0.482	0.505	0.454	0.518	0.439	0.419	0.580	0.756	0.930	1.310	1.320	1.566	2.550	4.325	6.697	14.05	31.76	55.12	29.87	17.42	3.038	0.416	0.329	0.356	0.301	0.348	0.321	0.277	0.309	0.360	0.266	0.247	0.274	0.272	0.274	0.309
260.0	49.81	37.95	96.97	288.8	320.3	400.1	1988	9389	9976	268.4	33.97	13.00	10.84	7.639	6.745	4.787	3.968	3.845	3.148	2.733	2.631	2.664	2.270	2.274	2.153	2.203	1.887	1.944	1.778	1.746	1.689	1.433	1.225	1.210	1.048	0.882	0.786	0.700	0.638	0.593	0.645	0.550	0.584	0.496	0.551	0.455	0.403	0.558	0.521	0.658	1.010	1.724	1.543	1.408	1.482	1.954	3.787	9.419	27.23	51.84	69.08	27.99	12.88	1.419	0.401	0.413	0.363	0.335	0.323	0.331	0.350	0.335	0.261	0.327	0.261	0.271	0.290
265.0	40.86	35.96	47.79	175.7	380.7	278.2	541.4	3630	9999.9	9480	217.1	21.17	13.21	10.13	7.457	5.658	4.903	4.046	3.730	2.959	2.776	2.733	2.172	2.349	2.358	2.127	2.041	1.837	1.872	1.908	1.660	1.674	1.303	1.200	0.954	1.054	0.786	0.846	0.632	0.644	0.621	0.571	0.570	0.628	0.502	0.599	0.441	0.548	0.429	0.499	0.595	1.131	1.753	2.014	1.408	1.107	1.473	2.803	6.815	17.18	44.55	72.72	80.57	24.66	7.563	0.717	0.419	0.431	0.335	0.411	0.349	0.330	0.340	0.324	0.360	0.293	0.341
270.0	63.92	53.24	47.46	97.22	267.2	461.9	388.8	935.2	3895	9999.9	9999.9	3091	58.66	15.07	10.67	7.645	6.425	4.942	3.968	3.440	3.121	2.815	2.579	2.692	2.416	2.353	2.298	2.121	1.913	1.841	1.882	1.753	1.551	1.280	1.152	1.050	0.939	0.897	0.804	0.749	0.683	0.621	0.652	0.719	0.595	0.687	0.529	0.581	0.530	0.478	0.507	0.719	1.023	1.517	2.065	2.329	2.096	1.753	2.267	4.482	11.06	22.73	45.11	65.53	80.61	64.49	16.59	6.703	0.791	0.463	0.422	0.383	0.385	0.371	0.403	0.376	0.349
275.0	124.6	115.9	91.08	101.1	181.6	365.4	598.8	466.5	959.3	2705	9999.9	9999.9	1243	61.33	16.47	11.34	8.609	6.357	4.715	4.314	3.791	3.350	3.030	2.821	2.674	2.495	2.404	2.057	2.085	2.065	2.025	1.775	1.551	1.348	1.270	1.193	1.053	0.949	0.934	0.825	0.772	0.814	0.684	0.802	0.794	0.805	0.832	0.772	0.649	0.577	0.623	0.708	0.868	1.039	1.308	1.842	2.868	3.636	2.548	1.960	3.140	5.812	10.67	15.70	27.21	60.76	111.4	114.7	26.17	7.236	0.739	0.523	0.500	0.506	0.411	0.446	0.382
280.0	210.9	212.1	174.7	133.8	175.9	280.0	506.2	612.2	386.2	717.7	3200	9999.9	9999.9	905.3	36.43	15.39	10.39	7.857	5.732	5.129	4.237	3.586	3.490	3.069	2.982	2.940	2.688	2.467	2.191	2.212	2.002	2.028	1.686	1.638	1.597	1.368	1.195	1.117	1.002	0.997	0.798	0.911	0.951	0.898	0.948	0.995	0.963	0.932	0.955	0.682	0.752	0.775	0.853	1.011	1.261	1.488	1.858	2.934	3.782	2.934	1.919	2.200	3.115	4.243	6.849	15.83	42.89	98.13	131.9	106.5	21.32	3.341	0.560	0.553	0.527	0.512	0.445
285.0	322.9	338.9	279.3	190.1	190.4	251.0	343.6	604.7	375.3	332.3	888.8	4152	9999.9	8864	127.0	23.01	13.85	10.20	7.366	5.962	4.704	4.087	3.632	3.392	3.208	2.822	2.772	2.553	2.444	2.440	2.246	1.995	1.611	1.590	1.715	1.601	1.400	1.285	1.124	1.160	0.962	1.128	0.986	1.124	1.170	1.102	1.167	1.180	1.325	0.901	0.878	0.890	0.898	1.091	1.181	1.427	1.429	1.784	2.410	3.764	3.528	2.464	1.798	1.859	2.604	4.656	10.71	26.68	61.38	125.8	143.1	32.27	15.36	1.504	0.613	0.559	0.572
290.0	490.1	491.4	415.0	276.6	231.0	255.1	281.8	374.5	601.9	612.3	502.9	1220	4130	9999.9	9999.9	2538	45.06	14.70	10.31	7.528	6.042	4.857	4.500	3.768	3.558	3.257	2.849	2.740	2.667	2.595	2.270	2.106	1.962	1.716	1.975	1.824	1.726	1.508	1.415	1.287	1.227	1.412	1.242	1.319	1.525	1.579	1.579	1.762	1.585	1.309	1.133	1.127	1.116	1.263	1.288	1.276	1.511	1.566	1.639	2.210	2.771	3.629	3.718	3.170	2.407	2.584	3.870	7.593	15.48	33.82	60.50	81.87	113.1	90.11	64.46	11.76	2.265
295.0	645.8	675.4	568.7	367.4	281.7	274.9	300.3	328.3	443.8	837.7	859.5	725.9	1278	2695	9999.9	9999.9	736.0	49.26	15.59	10.62	8.024	5.884	5.860	4.601	4.136	3.467	3.167	3.106	2.859	2.797	2.402	2.205	2.150	1.892	2.043	1.940	2.080	1.540	1.733	1.489	1.455	1.580	1.425	1.645	1.653	1.978	1.917	2.222	2.035	1.652	1.380	1.353	1.357	1.397	1.433	1.497	1.639	1.516	1.741	1.829	2.156	2.505	3.247	4.626	5.445	4.045	3.070	3.902	5.703	9.523	15.27	19.98	30.40	54.67	125.1	162.3	35.01
300.0	735.2	795.4	677.7	462.6	323.4	327.9	347.2	389.1	483.5	753.4	1234	942.6	800.1	955.2	2971	9999.9	9999.9	608.1	33.38	14.12	10.07	7.563	6.689	5.723	4.671	3.942	3.462	3.290	3.281	2.848	2.599	2.499	2.465	2.112	2.287	2.060	2.128	1.911	1.844	1.772	1.553	1.780	1.563	1.761	1.990	2.289	2.257	2.495	2.354	1.935	1.687	1.688	1.451	1.619	1.593	1.709	1.878	1.782	1.981	2.039	2.272	2.544	3.022	3.722	5.378	6.488	5.632	4.145	4.226	4.823	5.567	6.508	8.428	14.14	38.00	92.26	149.8
305.0	845.5	909.3	795.7	540.9	394.4	397.3	443.2	523.3	637.8	849.2	1271	1487	979.2	743.8	1029	3647	9999.9	9999.9	446.5	23.17	13.33	9.319	7.748	6.429	5.498	4.685	4.311	3.608	3.674	2.955	2.724	2.432	2.289	2.479	2.182	2.171	2.075	2.325	1.983	2.033	1.589	1.813	1.765	1.885	2.035	2.678	2.603	2.854	2.561	2.267	1.910	1.900	1.616	1.941	1.921	1.825	2.163	2.203	2.520	2.795	2.972	3.103	3.679	4.322	4.980	6.259	7.656	7.326	5.856	4.898	4.723	4.074	4.522	5.415	10.42	23.50	53.82
310.0	924.8	1018	881.9	625.5	483.4	468.8	539.3	640.2	778.2	980.5	1239	1552	1482	971.3	735.0	1141	3727	9999.9	9999.9	2053	37.40	14.39	10.38	7.887	6.243	5.274	4.696	4.235	3.777	3.544	3.064	2.752	2.502	2.450	2.216	2.390	2.251	2.372	2.067	2.078	1.848	1.984	1.803	2.006	2.406	2.686	2.685	2.948	2.838	2.393	2.133	2.285	2.037	2.091	2.181	2.214	2.590	2.713	3.023	3.156	3.520	3.767	4.436	4.823	5.299	5.815	6.603	7.486	8.130	7.526	6.235	4.903	4.342	4.204	4.981	7.442	13.95
315.0	1046	1161	1011	730.4	564.8	549.9	638.8	752.4	887.2	1099	1317	1484	1577	1444	866.3	682.8	1149	2549	9460	9999.9	3110	42.81	14.98	10.64	7.639	6.595	5.634	4.776	4.156	3.808	3.474	2.922	2.577	2.828	2.344	2.314	2.287	2.401	2.058	2.158	1.941	2.140	2.217	2.358	2.596	2.907	2.936	3.323	3.249	2.778	2.437	2.659	2.300	2.421	2.421	2.526	2.960	3.299	3.431	3.577	4.040	4.321	4.771	5.668	5.809	6.242	6.260	6.997	7.456	7.532	8.287	7.615	5.999	4.679	4.150	4.379	5.554
320.0	1238	1423	1245	874.0	662.8	610.6	695.2	839.1	976.2	1201	1426	1578	1580	1594	1122	711.9	657.8	809.5	2578	9999.9	9999.9	486.8	30.92	14.05	10.26	7.737	6.125	5.500	5.200	4.143	3.601	3.182	3.011	2.904	2.570	2.695	2.558	2.306	2.209	2.322	2.127	2.034	2.549	2.581	3.027	3.511	3.781	4.077	4.055	3.319	2.941	3.021	2.746	2.696	2.778	2.599	3.223	3.384	3.562	3.752	4.143	4.647	5.128	5.996	6.280	6.942	6.947	7.622	7.497	7.313	7.906	8.274	7.836	6.517	5.151	4.640	4.291
325.0	1543	1928	1861	1296	847.3	726.7	771.6	907.5	1072	1300	1543	1711	1685	1587	1450	916.4	626.8	481.1	750.9	3165	9999.9	9999.9	396.0	22.99	13.15	9.793	7.687	6.030	5.620	4.741	3.854	3.521	3.107	3.062	2.754	2.767	2.617	2.498	2.382	2.299	2.293	2.291	2.582	3.136	3.429	4.059	4.859	5.635	5.440	4.529	4.204	4.135	3.405	3.228	3.202	3.118	3.654	3.729	4.028	4.482	4.530	4.985	6.038	6.442	6.901	7.508	7.631	8.076	8.389	8.402	8.009	8.121	8.671	8.486	7.275	5.831	4.441
330.0	1990	2706	2796	2083	1298	939.4	904.6	1018	1193	1443	1707	1892	1889	1727	1521	1262	859.2	527.9	439.2	903.9	3323	9999.9	9999.9	1764	34.26	14.49	10.29	8.143	6.596	5.517	4.560	3.784	3.493	3.269	2.803	2.692	2.661	2.718	2.560	2.304	2.625	2.720	3.067	3.659	4.299	5.230	6.228	7.525	7.873	6.702	6.453	6.554	5.228	4.631	4.006	3.820	4.306	4.142	4.485	4.908	5.291	5.565	6.279	6.909	7.701	8.131	8.422	8.491	9.030	9.132	8.722	9.050	8.737	8.412	7.821	7.778	6.629
335.0	2331	3205	3431	2790	1813	1226	1065	1134	1319	1577	1843	2037	2046	1904	1639	1345	1178	741.0	495.9	511.6	972.5	2505	8616	9999.9	2865	39.99	14.55	10.86	8.078	6.933	5.760	4.679	3.796	3.290	2.997	3.112	2.982	2.921	2.822	2.539	2.658	3.129	3.653	3.987	4.822	6.519	7.624	8.938	9.547	8.775	8.544	8.985	7.401	6.153	5.117	4.403	4.783	4.962	5.072	5.454	5.722	6.076	6.680	7.438	7.778	8.384	8.740	9.405	9.292	9.833	9.323	10.08	9.115	9.325	8.461	7.761	7.723
340.0	2501	3521	3761	3112	2115	1410	1178	1223	1376	1644	1915	2088	2131	1980	1720	1386	1209	976.8	610.2	483.7	504.5	783.9	2394	9999.9	9999.9	427.2	31.53	14.19	10.07	7.854	6.101	5.304	4.333	3.687	3.280	3.197	3.107	2.778	2.934	2.578	2.710	3.183	3.553	4.109	5.053	6.851	7.992	9.722	10.38	9.717	9.202	9.684	8.053	6.975	5.980	5.070	5.320	5.274	5.243	5.676	6.020	6.860	7.161	8.115	8.371	8.357	9.115	9.538	10.08	9.948	9.706	9.744	9.791	9.858	8.579	8.297	7.747
345.0	2541	3590	3931	3285	2249	1498	1241	1285	1423	1663	1899	2087	2130	2000	1756	1422	1175	1050	781.6	535.5	443.8	446.4	753.4	3136	9999.9	9999.9	369.4	21.66	12.09	9.169	7.220	6.021	4.802	4.073	3.602	3.229	3.107	2.904	2.574	2.690	2.716	3.060	3.858	4.171	5.251	6.699	8.112	10.11	10.63	9.778	9.611	10.10	8.614	7.261	6.207	5.552	5.766	5.334	5.579	5.961	6.256	6.661	7.180	7.738	8.502	8.398	9.180	9.795	9.932	10.21	9.834	10.18	9.952	9.791	8.861	8.645	7.715
350.0	2484	3357	3742	3270	2329	1591	1332	1336	1459	1659	1878	2033	2075	1968	1753	1463	1210	1027	930.0	726.5	530.5	448.3	449.8	909.3	3276	9999.9	9999.9	1595	30.99	12.54	9.010	6.758	5.369	4.438	3.839	3.534	3.174	2.949	2.786	2.811	2.906	3.118	3.587	4.153	5.049	6.417	7.684	9.438	10.09	9.455	9.415	10.28	8.907	7.960	6.574	5.826	5.973	5.704	6.035	5.987	6.311	6.843	7.413	7.605	8.370	8.683	8.964	9.577	9.656	9.984	10.19	9.871	9.963	9.670	9.219	8.782	8.368
355.0	2224	3067	3495	3134	2337	1696	1446	1417	1513	1661	1850	1964	2015	1916	1729	1490	1270	1078	945.6	902.0	723.8	544.5	460.2	477.4	916.2	2442	8025	9999.9	2664	36.66	12.87	8.991	6.602	5.338	4.181	3.899	3.624	3.179	2.974	2.765	2.888	3.025	3.444	4.009	4.984	6.132	7.417	8.989	9.240	8.757	9.133	10.00	9.122	8.413	6.827	6.286	6.369	6.120	6.197	6.333	6.668	7.088	7.664	7.572	8.005	8.563	8.864	8.875	9.131	9.469	9.439	10.05	9.484	9.624	9.117	8.939	8.632
360.0	2116	2878	3300	2985	2339	1736	1518	1466	1564	1693	1841	1924	1963	1880	1715	1513	1312	1133	997.7	929.5	886.1	671.0	529.7	437.5	442.6	709.2	2157	9999.9	9999.9	400.4	28.14	11.97	8.230	6.212	4.661	4.027	3.603	3.375	3.086	2.901	2.787	3.188	3.328	3.933	4.783	5.892	6.891	8.284	8.863	8.395	8.523	9.982	9.067	8.266	7.020	6.438	6.528	6.540	6.480	6.496	7.036	7.400	7.721	7.713	8.153	8.334	8.582	8.655	9.252	9.157	9.378	9.582	9.725	9.419	9.038	9.140	8.768
365.0	2038	2709	3076	2889	2278	1768	1557	1537	1609	1712	1835	1899	1922	1844	1704	1517	1345	1194	1069	967.1	945.7	831.2	619.7	493.5	401.2	370.5	623.4	3087	9999.9	9999.9	346.3	19.94	10.93	7.047	5.229	4.228	3.494	3.405	3.195	3.026	2.956	3.183	3.411	3.733	4.690	5.537	6.469	7.971	8.257	8.182	8.441	9.510	8.475	8.039	7.403	6.530	6.626	6.696	6.762	6.811	6.982	7.558	8.080	7.670	7.955	8.091	8.698	8.843	9.020	9.078	9.046	9.581	9.719	9.353	9.254	8.500	8.697
370.0	1890	2490	2838	2695	2261	1837	1633	1617	1662	1763	1831	1863	1856	1795	1678	1524	1383	1261	1161	1065	993.7	956.1	818.4	628.4	483.0	381.6	349.1	839.7	3253	9999.9	9999.9	1442	27.82	11.29	7.439	5.292	4.625	3.932	3.281	3.169	3.039	3.096	3.360	3.710	4.413	5.223	5.781	7.247	7.584	7.500	7.784	8.812	8.620	7.986	7.373	6.798	6.942	7.126	7.040	7.169	7.640	7.574	8.046	8.347	7.802	8.286	8.437	8.636	8.538	8.764	8.974	9.364	9.714	9.230	8.970	8.548	9.026
375.0	1755	2276	2614	2519	2229	1893	1713	1672	1709	1784	1833	1832	1817	1747	1647	1520	1406	1316	1234	1154	1076	1008	970.9	823.1	619.9	484.3	377.8	410.7	886.7	2452	8297	9999.9	2308	32.32	11.59	7.607	5.742	4.695	3.806	3.447	3.063	3.273	3.313	3.440	4.098	4.868	5.655	6.950	7.303	6.979	7.309	8.356	8.524	8.077	7.352	6.982	6.941	7.089	7.523	7.503	7.767	7.718	8.099	8.261	8.006	8.350	8.675	8.695	8.594	8.287	8.724	8.451	9.190	8.760	8.738	8.478	9.063
380.0	1640	2171	2449	2428	2188	1899	1757	1722	1739	1803	1834	1821	1804	1726	1632	1512	1421	1347	1279	1215	1146	1071	1015	955.4	756.6	583.4	459.1	382.5	413.7	703.7	2278	9999.9	9999.9	335.9	24.68	11.53	7.498	5.700	4.461	3.682	3.287	3.287	3.604	3.762	4.074	4.730	5.247	6.157	6.984	6.696	7.132	8.018	8.393	7.830	7.539	7.029	7.617	7.212	7.649	7.308	8.021	7.997	8.172	8.460	8.185	8.597	8.321	8.383	8.451	8.420	8.718	8.895	9.241	9.094	8.952	8.630	9.227
385.0	1589	2087	2377	2341	2193	1947	1811	1763	1779	1832	1852	1850	1808	1755	1633	1523	1435	1369	1311	1258	1209	1141	1071	1023	915.9	707.7	562.2	455.0	385.3	378.2	670.1	3114	9999.9	9999.9	278.5	21.79	12.44	7.443	5.288	4.111	3.744	3.406	3.654	3.667	4.209	4.682	5.083	6.071	6.423	6.478	6.628	7.857	8.158	7.729	7.697	7.470	7.748	7.549	7.470	7.268	7.447	7.891	8.713	8.636	8.332	8.458	8.026	8.102	8.595	8.228	8.831	8.811	8.909	8.792	9.106	8.837	9.121
390.0	1581	2014	2281	2291	2216	2024	1922	1901	1934	2011	2070	2047	2009	1919	1774	1617	1495	1423	1372	1346	1321	1285	1235	1176	1125	994.8	819.4	688.5	575.2	492.9	451.8	933.7	3220	9999.9	9999.9	1209	30.92	17.29	8.979	5.570	4.229	3.799	3.733	3.911	4.367	4.864	5.140	6.083	6.438	6.086	6.491	7.805	8.008	7.867	7.859	7.675	8.098	7.796	8.193	7.971	8.116	8.504	8.999	8.875	8.697	8.849	8.412	8.638	8.998	8.671	8.832	9.245	9.068	8.975	9.000	9.241	9.212
395.0	1620	2005	2278	2323	2305	2202	2133	2176	2290	2493	2671	2684	2611	2452	2210	1911	1687	1561	1507	1515	1539	1552	1557	1534	1493	1452	1340	1169	1036	911.2	776.6	737.1	1050	2615	7237	9999.9	1879	39.32	19.52	8.816	5.747	4.627	4.146	4.213	4.450	5.070	5.303	6.026	6.408	6.116	6.465	8.029	8.054	8.625	8.276	8.196	8.697	8.712	9.224	9.016	9.262	9.732	9.572	10.09	9.920	9.943	9.898	10.20	10.50	10.13	9.775	10.07	10.38	10.51	9.828	9.527	9.797
400.0	1640	2019	2259	2387	2420	2393	2395	2527	2741	3151	3501	3550	3464	3212	2809	2326	1956	1757	1679	1730	1791	1869	1951	1985	1986	1966	1936	1789	1613	1463	1270	1054	907.6	1099	2314	9145	9999.9	291.2	35.73	13.13	7.476	5.450	4.470	4.812	4.898	5.253	5.405	6.143	6.530	6.336	7.005	8.261	8.673	9.162	9.369	9.156	9.737	10.07	9.899	10.13	10.44	10.87	11.42	11.18	11.75	11.61	11.81	12.04	12.04	12.33	12.41	11.56	11.67	11.48	10.95	11.02	10.59
405.0	1641	2031	2363	2467	2573	2637	2740	2966	3375	3957	4502	4678	4531	4148	3545	2870	2287	1980	1906	1969	2091	2250	2402	2516	2573	2585	2586	2514	2318	2134	1895	1570	1238	1037	1142	3138	9999.9	8107	249.6	22.53	9.815	6.861	5.795	5.310	5.369	5.545	6.032	6.600	6.958	6.837	7.416	9.121	9.393	10.21	10.05	10.15	11.20	10.89	11.51	11.40	11.54	12.20	13.00	12.90	13.63	13.96	14.04	14.15	14.02	14.32	14.27	13.46	13.72	13.40	12.49	12.54	12.02
410.0	1653	2044	2378	2584	2751	2886	3069	3407	3958	4736	5469	5736	5562	5060	4291	3385	2615	2193	2093	2190	2373	2585	2822	3021	3129	3185	3197	3163	3019	2799	2503	2110	1645	1288	1095	1339	3290	7666	7560	1025	21.83	8.873	6.933	6.116	6.035	6.012	6.378	7.043	7.376	7.316	7.649	9.529	10.25	10.57	11.12	11.12	12.39	12.55	12.66	12.68	13.00	13.85	14.62	15.42	15.87	16.36	16.24	15.96	16.20	16.26	16.18	15.64	15.34	15.03	14.15	13.24	12.75
415.0	1633	1983	2343	2570	2755	2944	3163	3496	4070	4939	5653	5932	5768	5231	4415	3477	2646	2210	2108	2209	2405	2632	2895	3122	3246	3305	3325	3283	3184	2992	2669	2252	1758	1360	1095	947.6	1156	2007	5286	8671	1551	23.41	8.932	7.046	6.460	6.207	6.360	7.200	7.063	7.388	7.551	9.664	10.08	10.68	11.05	11.38	12.51	12.80	13.08	12.95	13.46	14.26	14.40	15.37	16.08	15.92	16.59	16.16	16.48	16.37	16.27	16.11	15.58	15.21	14.46	13.34	12.80
420.0	1618	1980	2254	2487	2672	2941	3117	3460	3986	4763	5451	5713	5565	5064	4265	3353	2546	2132	2048	2138	2320	2553	2793	3026	3156	3203	3221	3189	3076	2922	2621	2194	1713	1328	1053	827.6	657.3	648.3	1482	6626	7583	260.3	15.81	7.901	7.006	6.464	6.279	6.761	6.980	6.792	7.318	9.597	10.29	10.62	10.61	10.96	12.01	12.29	12.77	12.61	13.27	13.64	14.48	14.99	15.91	15.62	16.05	15.73	15.91	16.13	15.79	14.84	15.22	14.51	13.83	13.24	11.88
425.0	1580	1883	2173	2448	2675	2887	3115	3441	3940	4660	5321	5583	5429	4925	4147	3273	2483	2072	1995	2091	2265	2483	2717	2946	3089	3147	3165	3118	2999	2855	2608	2169	1692	1316	1044	795.1	546.0	346.9	419.9	1983	7288	5802	210.0	10.57	7.644	6.940	6.344	7.072	7.033	6.819	7.395	9.136	9.820	10.47	10.88	10.94	12.11	12.89	12.81	12.90	13.26	13.34	14.40	14.55	15.69	15.73	15.63	15.57	15.61	15.45	15.06	14.97	14.48	14.53	13.23	13.12	11.82
430.0	1648	1880	2145	2420	2697	2983	3262	3575	4031	4767	5420	5669	5527	5015	4207	3317	2496	2081	1990	2082	2255	2484	2735	2981	3135	3199	3246	3211	3100	2947	2707	2306	1803	1403	1118	851.4	563.3	310.1	198.9	493.7	2097	5300	4499	920.2	18.17	8.248	7.075	7.427	7.226	6.963	7.522	9.260	9.882	10.83	11.17	11.33	12.68	13.22	13.20	13.61	13.46	13.77	14.70	14.97	15.21	15.30	15.56	15.60	15.58	15.46	15.43	14.84	14.96	14.26	13.56	12.64	12.03
435.0	2143	1878	2130	2457	2797	3091	3415	3719	4147	4823	5477	5744	5565	5063	4230	3330	2505	2080	1988	2063	2231	2456	2723	2980	3146	3236	3283	3274	3172	3016	2780	2398	1920	1482	1185	909.3	607.8	328.8	166.3	170.1	503.7	1259	3557	6940	1452	21.87	8.187	8.207	7.801	7.111	7.691	9.303	10.08	11.12	11.62	11.74	13.30	14.31	14.50	14.27	14.41	13.98	14.51	15.35	15.48	15.60	15.68	15.43	15.93	15.79	15.06	14.29	14.57	14.12	13.43	13.00	12.17
440.0	2734	1950	2052	2431	2762	3117	3473	3737	4101	4701	5283	5549	5369	4887	4098	3230	2432	2025	1924	1994	2145	2355	2609	2856	3022	3114	3161	3155	3067	2921	2700	2323	1887	1475	1171	902.5	612.3	336.0	165.3	106.5	154.1	311.7	974.7	5239	6503	240.0	15.22	8.816	8.046	7.152	7.548	9.600	10.26	10.94	11.93	12.23	13.90	14.71	14.28	13.95	14.41	14.24	14.16	14.45	14.65	14.62	15.01	14.85	14.92	15.05	14.83	14.69	14.33	13.43	12.99	12.41	11.67
445.0	2986	2272	2038	2358	2744	3073	3429	3677	3936	4385	4905	5074	4933	4489	3794	3006	2293	1906	1824	1873	2000	2175	2423	2627	2784	2875	2921	2911	2838	2712	2493	2145	1749	1400	1105	851.7	581.2	325.1	169.0	96.21	81.80	103.1	243.8	1551	6106	5205	186.4	11.96	8.543	7.342	7.555	9.040	10.03	11.02	11.58	12.08	13.81	13.81	14.15	13.89	13.42	13.62	13.29	13.32	13.61	13.76	13.63	14.25	14.07	14.16	14.04	14.06	13.55	13.01	12.08	11.29	11.20
450.0	2344	3176	2086	2224	2610	2964	3299	3475	3563	3863	4260	4414	4280	3913	3309	2653	2043	1722	1649	1680	1762	1909	2105	2274	2408	2494	2531	2518	2453	2354	2163	1862	1516	1227	991.8	760.5	521.1	305.7	168.7	100.2	72.79	62.59	84.80	370.3	1736	4545	4988	839.4	16.78	8.042	7.830	9.142	9.838	10.77	11.13	11.64	12.86	13.51	13.51	13.55	12.87	12.98	12.54	12.37	12.29	12.61	12.53	12.47	12.09	12.42	12.46	12.18	11.97	11.60	10.91	10.39	10.10
455.0	1550	3426	2820	2086	2449	2797	3124	3248	3232	3394	3704	3812	3685	3370	2875	2319	1811	1546	1476	1494	1539	1655	1813	1960	2073	2140	2173	2165	2111	2033	1876	1617	1322	1065	881.1	690.4	474.9	287.7	167.7	107.6	77.02	60.65	54.23	109.4	407.9	1071	2948	5651	1223	17.79	8.227	9.151	9.333	10.24	10.54	11.36	12.37	12.71	12.64	12.41	12.04	11.73	11.53	11.19	10.86	11.21	10.98	11.02	10.82	10.92	10.87	10.75	10.52	9.922	9.947	9.703	9.332
460.0	1206	2797	3764	2097	2309	2678	2962	3063	3003	3099	3347	3448	3330	3049	2593	2104	1660	1423	1360	1357	1394	1490	1629	1762	1859	1926	1959	1952	1918	1844	1707	1471	1209	975.1	803.0	650.7	458.1	276.7	169.9	110.9	82.46	64.10	50.59	54.34	115.2	258.2	762.9	3844	5008	182.3	14.84	9.700	9.359	10.43	10.41	11.05	12.12	12.40	12.31	12.15	11.35	11.09	10.44	10.63	10.04	10.21	10.28	9.668	10.05	9.820	9.959	9.885	10.21	9.468	9.175	8.868	8.415
465.0	1068	1907	4141	2542	2189	2522	2816	2883	2810	2860	3071	3119	3031	2764	2374	1929	1533	1304	1251	1246	1274	1353	1476	1600	1689	1748	1777	1770	1746	1686	1561	1354	1115	900.3	745.0	603.5	443.8	273.2	168.2	113.1	86.45	67.34	51.94	44.57	51.82	79.10	188.6	1082	4407	3931	162.5	13.16	9.606	10.13	9.989	10.47	11.71	11.51	11.91	11.14	11.18	10.27	9.738	9.526	9.207	9.362	9.446	9.346	9.452	9.081	9.241	8.874	9.277	8.991	8.228	8.202	7.915
470.0	992.3	1342	3052	3839	2183	2268	2523	2572	2488	2489	2648	2692	2593	2374	2047	1669	1340	1148	1094	1085	1098	1160	1261	1368	1441	1490	1523	1517	1501	1449	1341	1176	968.3	790.3	651.3	526.6	396.5	264.3	167.7	114.4	88.39	70.54	55.14	45.99	40.41	41.25	61.71	258.3	1213	3045	3421	860.8	18.40	10.05	9.634	10.08	10.80	10.88	10.88	10.44	9.972	9.561	8.856	8.777	8.392	8.576	8.355	8.427	8.221	8.424	7.985	7.844	7.933	7.676	7.430	7.218	7.231
475.0	874.4	1101	1728	4057	3029	2009	2215	2239	2136	2106	2197	2231	2138	1980	1709	1392	1131	974.5	935.5	918.3	924.5	960.7	1047	1123	1179	1220	1241	1249	1229	1187	1110	976.0	806.4	663.9	553.0	446.4	337.2	239.1	166.7	116.9	90.21	71.47	58.04	48.33	40.20	35.11	34.90	75.31	284.8	703.2	1663	3676	1192	22.36	9.626	8.927	9.637	9.694	9.840	9.306	8.430	8.039	7.618	7.544	7.019	7.089	6.924	7.187	7.071	6.694	6.914	7.139	6.830	6.573	6.243	5.814	6.092
480.0	822.0	991.2	1243	3043	4205	1996	2001	2015	1910	1844	1911	1930	1851	1687	1473	1210	996.3	870.6	824.9	807.2	801.1	830.3	897.9	956.3	1010	1042	1063	1061	1052	1017	953.3	841.0	700.2	579.3	483.8	392.6	298.0	213.6	162.6	119.2	89.91	72.19	60.38	50.39	41.41	35.39	30.88	35.50	78.90	169.4	410.8	2042	3611	986.5	17.97	9.034	9.112	9.163	8.780	8.517	7.751	7.162	6.801	6.618	6.349	6.612	6.223	6.156	6.393	6.246	5.995	6.424	6.057	5.905	5.943	5.326	5.334
485.0	744.1	923.1	1075	1926	4652	2525	1828	1825	1695	1635	1674	1697	1615	1489	1300	1074	890.1	779.0	736.7	725.5	710.6	730.8	784.3	841.6	885.3	902.0	928.9	925.5	916.8	889.4	829.9	734.7	618.0	510.6	432.0	351.4	269.8	193.8	149.9	122.6	93.03	73.34	61.97	51.36	42.74	36.60	31.19	27.89	34.17	51.10	103.5	538.6	2618	3337	199.7	14.12	9.062	8.737	8.144	7.923	7.228	6.683	6.218	6.367	5.728	5.579	5.624	5.675	5.445	5.829	5.512	5.562	5.466	5.442	5.429	5.186	4.806
490.0	655.4	881.9	955.9	1237	3273	4098	1857	1604	1488	1415	1441	1443	1380	1268	1105	916.6	771.3	680.2	644.4	629.9	611.5	622.6	668.2	714.2	748.2	769.9	786.6	784.3	775.0	754.7	709.6	626.8	531.6	442.7	375.7	310.5	239.8	177.3	135.6	115.3	97.60	76.88	62.57	52.95	45.10	38.82	33.19	28.35	26.06	26.24	35.68	131.9	677.4	1980	2301	918.4	20.53	8.920	8.097	7.200	6.601	6.106	5.951	5.567	5.219	5.106	5.090	4.943	5.022	4.773	4.783	4.568	4.664	4.692	4.651	4.420	4.560
495.0	571.6	772.8	855.8	973.4	1668	4390	2897	1406	1289	1206	1225	1226	1170	1074	934.5	777.4	659.1	584.3	553.2	534.0	518.7	527.5	559.6	600.7	629.4	644.3	656.8	658.4	651.0	638.9	599.3	534.3	453.1	379.2	325.8	270.2	214.0	159.8	123.9	103.8	94.36	80.35	64.67	54.02	47.05	40.71	34.96	30.22	25.58	21.84	22.02	42.11	161.4	453.9	1120	3201	1502	26.56	7.924	6.946	5.954	5.532	5.324	4.967	4.462	4.526	4.406	4.682	4.372	4.287	4.159	3.929	4.291	4.082	3.994	3.940	4.053
500.0	511.5	675.6	783.4	844.1	1110	3200	4268	1418	1132	1080	1090	1075	1024	936.0	814.3	679.5	578.3	513.6	482.3	469.8	453.2	462.5	490.7	520.2	544.9	561.8	569.0	569.5	566.7	554.7	526.3	467.1	398.0	341.6	289.9	240.7	192.3	147.6	115.2	96.00	86.85	79.44	67.43	53.64	46.42	41.64	35.71	30.60	25.75	21.59	19.30	21.85	46.68	111.2	272.6	1535	3420	1191	20.71	6.932	5.816	5.296	4.788	4.546	4.377	4.048	4.134	4.071	3.688	3.839	3.988	3.721	3.657	3.549	3.409	3.566	3.309
505.0	453.4	564.1	710.6	760.3	910.7	1852	4882	2034	1022	949.3	946.3	946.1	906.6	815.2	714.8	600.2	512.2	452.9	427.5	413.5	399.8	408.3	430.8	451.1	473.9	487.6	495.0	498.0	493.1	481.8	458.2	409.2	351.3	303.8	255.9	216.7	174.7	135.3	107.6	90.84	78.90	74.40	67.61	55.34	45.64	40.87	35.61	30.82	26.49	22.49	19.39	17.94	21.84	34.68	70.11	381.3	1960	3165	234.8	14.63	5.431	4.945	4.453	4.113	3.911	3.682	3.600	3.598	3.359	3.492	3.678	3.541	3.362	3.144	3.310	3.104	3.314
510.0	389.3	491.9	592.4	690.7	750.0	1061	3262	3742	1111	804.1	793.7	793.3	750.8	685.4	598.2	503.4	433.5	384.1	361.7	347.0	333.5	339.5	356.8	374.1	391.3	400.4	406.5	408.8	407.4	397.5	377.8	338.4	292.5	252.1	215.1	183.6	152.0	118.3	97.10	82.37	71.95	65.66	62.20	56.17	46.68	39.96	35.26	30.44	25.54	22.81	20.11	16.81	16.42	17.66	24.74	93.54	481.8	1545	1917	968.8	19.69	5.290	4.109	3.743	3.481	3.363	3.170	3.061	3.064	3.041	2.971	3.105	2.926	2.805	2.706	2.785	2.695
515.0	303.1	406.9	477.8	613.3	631.8	749.1	1439	4432	2233	682.9	648.4	654.8	609.2	556.9	484.9	412.2	361.2	316.3	299.3	285.1	275.2	275.7	287.6	302.6	315.7	319.8	324.2	327.2	326.4	321.2	303.4	270.4	238.8	205.2	178.1	154.5	128.5	102.7	84.98	73.49	64.19	57.68	53.55	52.34	48.29	39.39	33.73	29.56	24.81	22.43	19.99	17.13	14.79	14.08	14.49	29.03	114.6	351.5	699.5	2231	1435	26.33	4.527	3.409	3.159	3.049	3.009	2.716	2.699	2.600	2.421	2.396	2.482	2.339	2.371	2.492	2.204
520.0	268.2	352.1	420.4	532.6	585.2	634.0	821.7	3052	4072	781.3	564.0	557.6	527.1	478.7	412.0	354.9	305.5	273.0	257.6	248.0	237.1	234.0	242.4	256.4	268.0	272.8	275.7	275.3	274.0	270.1	256.2	230.5	203.1	176.4	155.1	132.6	113.5	91.30	76.89	67.84	60.56	54.28	49.46	47.24	46.80	39.10	32.72	28.36	24.45	21.48	18.97	16.94	14.86	12.78	12.00	13.98	32.32	84.73	165.4	923.1	2400	1034	20.76	3.614	2.964	2.770	2.747	2.461	2.201	2.255	2.356	2.221	2.279	2.011	2.182	2.144	2.027
525.0	256.7	299.3	347.5	442.6	558.4	552.0	623.0	1541	5043	1507	499.7	484.7	458.2	413.2	360.5	310.9	269.4	239.8	225.2	216.9	206.7	205.1	213.3	220.5	231.7	233.5	235.6	235.2	237.6	231.9	220.6	198.4	174.8	152.3	134.3	117.8	100.9	83.44	69.75	61.81	55.26	49.73	45.99	42.08	42.27	40.28	32.79	27.59	24.13	21.15	18.17	16.33	14.59	12.92	11.20	10.88	14.26	25.11	42.23	221.4	1173	2205	242.4	13.41	2.989	2.658	2.417	2.232	2.295	2.084	2.097	2.020	1.976	1.866	1.859	1.832	1.862
530.0	215.8	266.5	299.6	353.9	474.2	490.5	497.8	720.1	3220	3914	694.1	409.1	385.8	342.9	302.3	260.3	224.2	200.5	187.9	182.0	172.1	169.7	176.8	183.7	190.6	192.0	193.0	192.3	194.7	191.3	182.5	165.9	146.5	127.8	112.7	99.21	84.83	70.80	61.70	54.40	49.33	44.50	40.64	37.58	36.21	36.04	32.67	26.94	22.45	19.90	17.33	15.14	13.79	12.46	11.08	9.936	9.875	11.66	14.53	53.91	279.5	947.8	1462	833.8	18.94	3.227	2.393	2.193	2.041	1.910	1.914	1.883	1.768	1.693	1.575	1.615	1.654
535.0	193.9	229.7	255.2	291.9	376.9	447.1	417.8	460.1	1144	4645	1803	351.1	315.1	284.9	249.9	214.9	184.3	166.7	155.5	148.2	141.0	140.0	143.1	148.3	153.2	153.9	156.0	157.2	155.9	155.4	148.5	135.9	120.7	105.9	93.49	83.00	70.47	60.79	52.74	48.11	43.41	38.47	35.70	33.11	30.84	30.28	29.65	26.69	21.36	18.48	15.89	13.95	12.43	11.42	10.70	9.610	8.085	8.182	8.012	16.21	66.05	214.8	449.1	1433	1111	26.90	2.632	2.088	1.928	1.953	1.691	1.669	1.623	1.405	1.385	1.404	1.470
540.0	155.6	192.3	236.6	265.5	304.0	407.0	365.4	365.8	508.8	2951	4159	455.0	272.2	244.6	211.1	181.8	156.8	144.0	135.1	125.7	121.1	119.5	123.6	124.8	130.7	131.1	132.7	132.7	132.5	130.0	124.3	114.8	104.3	89.96	80.02	70.42	61.52	53.28	46.46	42.12	38.43	34.74	32.73	30.44	28.06	26.88	25.85	25.10	21.10	17.28	14.84	13.17	11.70	10.31	9.816	9.169	7.950	6.788	6.423	7.600	18.33	51.06	104.5	537.1	1576	789.0	19.84	2.236	1.766	1.690	1.668	1.514	1.503	1.337	1.302	1.252	1.253
545.0	152.1	171.4	195.6	224.4	258.4	350.6	351.9	301.1	325.9	1248	5218	1131	241.7	212.3	183.2	156.0	136.4	126.0	115.8	109.8	106.2	102.4	105.2	109.3	110.7	113.5	111.3	111.8	112.1	110.8	106.4	98.09	88.52	77.74	69.41	62.12	54.22	47.32	41.09	38.17	34.89	32.08	29.47	26.55	25.04	23.66	22.43	22.46	20.48	16.70	14.30	11.92	10.80	9.751	9.110	8.172	7.750	6.354	5.639	5.333	7.527	14.70	26.08	126.5	703.4	1477	243.4	11.77	1.797	1.627	1.471	1.419	1.307	1.284	1.163	1.037	1.110
550.0	123.4	156.1	167.3	187.1	206.5	258.9	314.6	256.8	241.4	458.8	3069	3619	371.2	171.7	149.4	127.7	110.6	100.9	93.71	89.17	86.60	83.61	84.59	87.43	89.44	91.13	89.97	89.99	90.27	88.98	85.12	78.40	70.57	62.75	57.57	51.10	45.17	39.12	35.08	31.83	29.46	26.82	25.25	23.20	21.65	19.94	18.92	18.06	17.83	15.94	13.11	10.66	9.518	8.680	8.020	7.189	7.018	6.153	5.049	4.564	4.734	6.044	8.282	30.64	165.5	596.2	956.9	566.9	18.20	2.037	1.472	1.318	1.202	1.086	0.983	0.965	1.049
555.0	115.8	137.1	139.7	153.5	172.4	190.8	252.5	234.3	187.4	233.9	936.1	4492	1258	142.2	117.1	102.2	87.01	81.69	74.91	71.87	67.12	67.23	66.96	68.17	70.02	70.34	70.21	69.89	69.18	68.90	66.45	61.06	55.26	49.76	44.79	39.91	37.14	31.57	28.90	26.14	23.87	22.34	20.88	19.36	18.19	16.76	15.75	14.28	14.26	13.89	12.37	9.814	8.197	7.423	6.780	6.010	5.774	5.388	4.862	4.277	3.869	3.786	4.190	8.772	39.07	134.9	287.1	887.0	697.2	25.32	1.581	1.243	1.149	0.935	0.950	0.814	0.889
560.0	105.6	119.8	121.6	123.8	147.2	157.5	200.7	227.6	164.8	164.7	330.1	2764	3466	168.1	99.30	85.57	73.19	67.71	62.30	58.20	56.07	55.09	55.32	56.18	58.13	57.63	56.59	56.74	55.81	56.44	54.56	49.78	45.51	40.29	37.42	33.35	30.00	26.47	24.34	22.22	20.34	18.71	18.18	16.62	15.74	15.04	13.34	12.52	11.81	11.72	11.12	9.460	7.473	6.572	6.029	5.752	5.308	4.627	4.514	3.883	3.141	2.973	3.061	4.001	10.58	31.82	66.47	321.6	943.2	258.9	17.32	1.451	1.082	0.986	0.913	0.660	0.886
565.0	97.71	113.4	114.5	112.9	125.3	131.0	153.7	208.5	155.6	139.6	176.6	1053	4617	699.4	85.44	70.93	62.08	55.20	52.52	49.28	47.07	45.94	45.46	46.24	47.42	48.46	46.80	47.60	46.20	47.41	45.82	42.21	38.17	34.11	31.32	28.15	25.81	22.56	21.05	19.23	17.51	15.77	15.88	14.41	13.10	12.79	11.61	10.88	9.973	9.638	9.606	8.602	6.855	6.043	5.389	4.920	4.681	4.012	4.067	3.746	3.123	2.863	2.680	2.580	3.983	8.720	16.64	75.51	404.5	815.9	221.6	8.370	1.147	0.950	0.908	0.702	0.843
570.0	101.3	107.8	99.74	94.60	104.0	106.5	122.2	162.5	160.2	116.1	121.5	334.2	2743	2852	116.5	58.55	49.99	45.42	42.66	39.38	37.44	35.83	35.80	36.07	37.35	38.06	36.28	36.90	37.40	36.80	35.62	33.08	30.23	27.68	25.05	21.99	20.61	18.51	17.04	15.74	14.38	13.37	12.90	11.80	11.09	10.82	9.705	9.099	8.254	7.646	7.544	7.568	6.757	5.314	4.603	4.229	4.025	3.552	3.586	3.299	3.162	2.694	2.460	2.241	2.549	3.569	5.296	18.44	94.89	326.6	562.3	348.3	16.42	1.280	0.840	0.777	0.791
575.0	87.95	103.1	91.16	87.91	83.12	86.13	96.55	110.2	159.8	116.0	98.47	146.1	791.2	3700	843.3	51.50	39.67	35.96	34.54	30.67	29.52	29.53	28.98	28.83	29.06	29.00	28.23	28.99	28.86	28.75	26.95	25.16	23.72	21.70	19.89	17.81	16.34	14.65	14.07	12.74	11.81	10.56	10.33	9.679	9.264	8.525	8.014	7.318	6.484	5.924	5.528	5.975	5.851	5.003	3.988	3.797	3.650	3.180	3.040	2.803	2.683	2.823	2.314	2.216	2.117	2.322	2.576	5.783	22.44	73.99	162.9	498.6	263.2	21.81	1.079	0.809	0.682
580.0	87.67	101.7	90.17	77.50	71.12	77.18	80.84	88.15	135.5	119.2	90.05	100.3	242.3	2290	2604	84.38	33.29	30.40	28.01	25.83	24.66	24.20	24.04	24.07	24.44	24.10	23.53	23.78	24.05	23.91	22.94	20.43	20.11	17.75	15.88	14.48	13.73	12.39	11.29	10.64	9.874	9.196	8.543	8.391	8.076	7.231	6.591	6.208	5.834	5.216	4.990	4.896	5.197	4.824	4.190	3.250	3.170	2.861	2.731	2.489	2.428	2.545	2.306	2.283	2.036	1.961	1.974	2.706	6.249	17.91	37.88	177.5	502.8	234.8	13.80	0.840	0.714
585.0	84.79	87.65	89.13	72.17	66.90	63.45	71.50	74.59	106.9	130.1	88.30	82.82	111.8	848.7	3573	392.2	30.67	27.12	24.95	23.07	21.06	19.61	20.16	20.54	19.79	20.77	20.00	19.72	20.95	19.28	19.10	18.09	16.62	15.17	13.26	12.80	11.83	10.41	9.755	8.983	8.778	7.835	7.859	6.791	6.636	6.599	5.733	5.436	5.146	4.599	4.516	4.061	4.374	4.240	3.898	2.963	2.801	2.704	2.475	2.220	2.035	2.168	2.284	2.204	1.867	1.791	1.676	1.800	2.650	5.292	9.591	41.85	217.0	488.7	176.8	5.718	0.768
590.0	87.12	82.93	80.78	66.90	56.73	54.48	61.18	63.59	76.66	126.0	100.1	76.56	76.03	244.7	2137	1671	61.48	22.82	20.10	18.53	17.49	16.91	16.50	16.63	16.98	16.63	16.20	16.01	16.72	15.86	15.13	14.65	13.52	12.20	11.22	10.55	9.397	8.476	7.726	7.203	7.242	6.259	6.150	5.789	5.386	5.240	5.105	4.498	4.241	3.843	3.506	3.306	3.217	3.267	3.445	3.017	2.704	2.289	2.164	1.813	1.872	1.813	1.788	1.986	1.842	1.684	1.518	1.540	1.684	2.272	3.254	10.46	50.83	190.6	336.0	151.8	14.94
595.0	82.53	82.61	76.37	56.72	50.30	49.34	53.56	56.42	64.19	94.42	117.0	76.09	66.89	94.04	594.7	2614	545.1	20.89	16.17	15.44	14.10	13.66	13.13	13.24	13.74	13.03	12.75	12.70	13.17	12.55	12.43	11.32	10.41	9.700	8.966	8.278	7.378	6.924	6.313	6.132	5.634	5.274	4.944	4.746	4.543	4.305	4.026	3.903	3.382	3.193	2.860	2.542	2.529	2.565	2.657	2.871	2.551	2.017	1.723	1.666	1.570	1.484	1.581	1.631	1.775	1.707	1.374	1.377	1.377	1.545	1.692	3.183	12.14	43.21	94.78	270.3	236.8
600.0	76.18	81.97	72.42	55.03	48.82	49.37	48.64	52.48	60.55	76.28	122.2	80.47	64.33	59.18	167.2	1730	1663	39.11	14.43	13.62	12.65	11.40	11.82	10.84	11.61	11.38	11.23	10.41	10.71	10.62	10.58	9.992	8.467	7.894	7.516	7.291	6.402	5.739	5.305	4.974	4.872	4.326	4.246	3.799	4.054	3.657	3.501	3.307	2.978	2.761	2.506	2.434	2.096	2.119	2.216	2.491	2.586	2.005	1.741	1.584	1.405	1.461	1.301	1.487	1.611	1.784	1.433	1.208	1.265	1.272	1.339	1.463	3.512	10.47	21.92	96.09	308.8
605.0	72.66	78.51	69.13	51.84	44.81	44.89	47.63	47.75	55.02	70.00	112.7	94.92	65.27	52.83	66.24	652.3	2436	91.41	13.13	12.04	11.05	9.555	10.14	9.210	9.782	10.03	9.359	9.198	9.567	8.893	8.623	8.183	7.411	6.707	6.211	6.255	5.700	5.008	4.619	4.174	4.196	3.718	3.796	3.255	3.517	3.110	2.932	2.807	2.596	2.344	2.142	2.065	1.710	1.830	1.916	1.976	2.319	2.079	1.505	1.408	1.310	1.370	1.241	1.312	1.439	1.584	1.448	1.334	1.270	1.176	1.099	1.124	1.502	2.913	5.536	22.67	126.4
610.0	73.38	77.59	68.03	49.88	41.88	41.15	46.98	51.62	56.69	69.86	97.26	115.1	74.33	54.82	46.79	181.1	1606	1138	33.96	10.10	9.222	8.305	8.163	7.756	8.146	7.897	7.875	7.647	7.820	7.242	7.282	6.750	6.085	5.638	5.091	5.020	4.737	4.253	3.815	3.577	3.331	3.143	2.973	2.913	2.848	2.553	2.375	2.380	2.237	2.021	1.796	1.813	1.495	1.528	1.494	1.502	1.778	1.802	1.503	1.343	1.078	1.269	1.207	1.201	1.216	1.343	1.413	1.400	1.285	1.243	1.149	1.103	1.023	1.356	1.854	5.642	29.66
615.0	65.61	70.54	59.16	45.93	39.54	39.10	41.83	49.98	56.90	68.36	84.88	115.5	87.14	57.29	44.07	62.82	466.6	1957	339.8	9.675	7.886	7.311	6.937	6.537	6.871	6.480	6.072	6.177	6.079	5.644	5.980	5.285	4.794	4.670	4.109	4.001	3.718	3.535	3.322	2.940	2.793	2.537	2.455	2.350	2.257	2.176	2.140	1.997	1.773	1.709	1.514	1.384	1.281	1.354	1.265	1.255	1.388	1.422	1.582	1.279	1.150	1.087	1.045	1.115	0.995	1.207	1.294	1.369	1.321	1.273	1.152	0.926	0.832	0.973	0.986	1.805	7.191
620.0	65.63	70.21	62.31	44.32	38.09	39.34	39.26	47.95	53.93	64.81	76.82	101.9	94.89	57.13	41.64	35.87	130.4	1428	1095	17.71	7.613	6.688	5.886	6.295	5.603	5.423	5.273	5.340	5.244	5.306	4.908	4.669	4.605	3.947	3.465	3.306	3.303	2.923	2.763	2.566	2.300	2.131	2.108	2.038	1.933	2.048	1.718	1.633	1.520	1.511	1.399	1.218	1.172	1.172	1.110	1.031	1.196	1.279	1.478	1.323	1.066	0.944	1.028	1.078	1.026	1.003	1.040	1.085	1.300	1.188	1.065	0.910	0.771	0.807	0.795	0.966	2.030
625.0	73.99	65.12	58.31	43.02	36.96	36.63	40.24	45.46	52.22	63.06	71.69	84.62	100.0	60.64	41.65	29.49	47.56	585.1	1789	64.99	6.829	5.692	5.194	5.489	5.156	4.754	4.748	4.714	4.653	4.358	4.394	3.715	3.720	3.238	3.198	3.020	2.702	2.476	2.569	2.307	2.020	1.791	1.684	1.886	1.593	1.728	1.470	1.427	1.351	1.331	1.201	1.142	1.020	1.064	1.015	0.884	0.957	1.081	1.154	1.303	1.011	0.965	0.882	1.007	1.041	0.966	0.984	1.000	1.158	1.122	0.995	0.903	0.721	0.780	0.745	0.720	0.903
630.0	69.31	67.13	59.55	41.62	35.60	34.71	37.44	43.74	51.30	59.19	69.57	77.36	91.84	69.21	40.69	28.53	27.29	157.6	1332	809.2	17.07	5.440	4.828	4.721	4.236	3.988	4.142	4.010	3.784	3.573	3.782	3.272	3.192	2.693	2.659	2.430	2.340	2.086	1.966	2.146	1.680	1.543	1.584	1.488	1.396	1.400	1.368	1.277	1.108	1.069	1.022	0.895	0.999	0.858	0.860	0.883	0.881	0.940	0.938	1.124	0.986	0.905	0.862	0.919	0.857	0.813	0.939	0.885	0.926	1.028	1.026	0.849	0.784	0.682	0.603	0.639	0.631
635.0	69.62	69.13	61.00	42.55	35.88	34.86	35.35	41.45	48.44	57.29	68.88	74.62	80.03	79.90	44.86	29.42	22.94	46.57	404.0	1532	69.89	5.318	4.207	4.048	3.467	3.569	3.392	3.317	3.155	3.205	2.975	2.771	2.600	2.322	2.163	1.950	1.940	1.749	1.771	1.582	1.485	1.314	1.242	1.332	1.348	1.181	1.146	1.073	0.938	0.905	0.848	0.725	0.837	0.706	0.792	0.780	0.777	0.770	0.818	0.904	0.824	0.936	0.766	0.731	0.859	0.829	0.811	0.850	0.859	0.804	0.995	0.874	0.753	0.674	0.484	0.688	0.507
640.0	62.76	65.72	61.57	43.10	36.99	33.82	34.72	41.09	48.80	56.65	64.03	73.87	73.62	78.01	53.03	31.31	23.52	23.02	106.3	1227	519.1	9.163	3.950	3.556	3.344	3.412	3.127	2.897	2.955	2.888	2.855	2.551	2.172	2.043	1.852	1.835	1.638	1.636	1.498	1.428	1.189	1.308	1.112	1.220	1.094	1.033	0.999	0.913	0.854	0.830	0.809	0.774	0.737	0.629	0.619	0.689	0.685	0.710	0.675	0.814	0.767	0.832	0.766	0.744	0.770	0.743	0.791	0.771	0.798	0.853	0.817	0.849	0.738	0.684	0.588	0.612	0.522
645.0	61.41	70.36	63.99	44.01	36.91	31.58	37.33	40.38	48.06	55.38	65.24	71.59	71.96	73.67	59.22	31.67	24.18	18.33	32.11	557.7	1268	45.15	3.677	3.435	3.135	2.906	2.714	2.576	2.731	2.554	2.331	2.075	2.229	2.026	1.602	1.641	1.616	1.384	1.334	1.151	1.010	1.287	1.000	1.032	0.985	0.977	0.802	0.844	0.750	0.654	0.699	0.678	0.651	0.635	0.666	0.603	0.673	0.636	0.624	0.700	0.677	0.747	0.760	0.739	0.661	0.793	0.671	0.717	0.711	0.778	0.715	0.755	0.728	0.673	0.645	0.658	0.443
650.0	64.26	73.49	66.45	48.97	35.76	31.22	37.72	40.19	45.78	54.47	64.73	68.92	67.87	67.63	63.01	35.40	24.53	16.94	15.76	163.5	1356	314.6	4.624	3.243	3.164	2.838	2.658	2.543	2.490	2.318	2.203	2.147	1.789	1.779	1.686	1.591	1.497	1.272	1.291	0.983	1.032	1.024	1.121	0.869	1.010	0.954	0.775	0.894	0.777	0.605	0.707	0.650	0.650	0.658	0.634	0.608	0.616	0.595	0.587	0.614	0.706	0.612	0.734	0.712	0.756	0.695	0.708	0.690	0.728	0.707	0.754	0.704	0.692	0.784	0.520	0.494	0.513
