Sample:	'1
File name:	G2025070803ÕÅ¹Ù×¯.FD3
Run date:	'12:36:52, 07/09/2025
Operator:	Administrator
Comment:	'

Instrument
Model:	F-2700 FL Spectrophotometer
Serial number:	23B8-004
ROM Version:	4J14000 07

Instrument parameters
Measurement type:	3-D scan
Data mode:	Fluorescence
EX  Start WL:	220.0 nm
EX  End WL:	600.0 nm
EX Sampling interval:	5.0 nm
EM  Start WL:	230.0 nm
EM  End WL:	650.0 nm
EM Sampling interval:	5.0 nm
Scan speed:	12000 nm/min
EX Slit:	5.0 nm
EM Slit:	5.0 nm
PMT Voltage:	700 V
Response:	Auto 
Corrected spectra:	Off
Contour interval:	50.000

Peak integration
Integration method:	Rectangular
Sensitivity:	1
Threshold:	1.000

Peaks
No.	ApexEX/EM(nm)	Height(Data)
1	225.0/575.0	85.37
2	225.0/585.0	79.48
3	225.0/605.0	68.31
4	225.0/640.0	61.66
5	230.0/345.0	2228
6	230.0/615.0	60.08
7	240.0/265.0	373.7
8	245.0/270.0	376.5
9	245.0/535.0	250.4
10	245.0/605.0	34.59
11	250.0/275.0	486.2
12	250.0/550.0	194.8
13	255.0/285.0	574.1
14	255.0/560.0	158.9
15	260.0/290.0	585.8
16	260.0/575.0	126.5
17	265.0/295.0	796.6
18	265.0/380.0	1188
19	265.0/585.0	112.8
20	270.0/300.0	1114
21	270.0/375.0	1191
22	270.0/600.0	105.5
23	275.0/310.0	1289
24	275.0/340.0	1343
25	275.0/410.0	1413
26	275.0/610.0	99.78
27	280.0/315.0	1262
28	280.0/625.0	86.68
29	285.0/320.0	1270
30	285.0/635.0	66.66
31	455.0/540.0	14.49
32	460.0/340.0	6.749
33	475.0/350.0	6.443
34	495.0/270.0	2.271
35	505.0/275.0	3.405
36	510.0/280.0	3.943
37	520.0/285.0	3.885
38	530.0/290.0	4.038
39	545.0/300.0	6.185
40	550.0/305.0	7.387
41	560.0/310.0	7.003
42	570.0/315.0	7.327
43	575.0/320.0	7.263
44	585.0/325.0	6.999

Data points
	220.0	225.0	230.0	235.0	240.0	245.0	250.0	255.0	260.0	265.0	270.0	275.0	280.0	285.0	290.0	295.0	300.0	305.0	310.0	315.0	320.0	325.0	330.0	335.0	340.0	345.0	350.0	355.0	360.0	365.0	370.0	375.0	380.0	385.0	390.0	395.0	400.0	405.0	410.0	415.0	420.0	425.0	430.0	435.0	440.0	445.0	450.0	455.0	460.0	465.0	470.0	475.0	480.0	485.0	490.0	495.0	500.0	505.0	510.0	515.0	520.0	525.0	530.0	535.0	540.0	545.0	550.0	555.0	560.0	565.0	570.0	575.0	580.0	585.0	590.0	595.0	600.0
230.0	56.73	1026	2348	604.0	27.32	8.242	6.893	5.774	5.069	4.637	4.580	3.884	3.547	3.114	2.911	2.200	1.997	1.726	1.609	1.592	1.366	1.245	1.330	1.192	1.052	0.971	0.948	0.905	0.976	0.813	0.847	0.789	0.711	0.671	0.595	0.556	0.558	0.533	0.497	0.475	0.486	0.570	0.585	0.512	0.469	0.450	1.570	5.784	8.950	6.219	2.203	0.597	0.377	0.371	0.340	0.349	0.366	0.371	0.368	0.367	0.343	0.327	0.358	0.325	0.355	0.381	0.368	0.376	0.350	0.371	0.364	0.342	0.361	0.365	0.358	0.355	0.385
235.0	93.94	294.7	1623	2614	486.3	38.36	9.213	6.518	6.413	4.861	4.773	4.478	3.929	3.450	2.727	2.155	2.137	1.787	1.710	1.610	1.208	1.275	1.281	1.124	1.006	0.935	0.894	0.820	0.965	0.851	0.878	0.808	0.697	0.670	0.609	0.498	0.581	0.619	0.540	0.488	0.495	0.581	0.554	0.650	0.654	0.522	0.692	1.736	3.947	7.291	10.56	9.768	4.001	0.972	0.358	0.370	0.403	0.435	0.380	0.355	0.382	0.398	0.331	0.326	0.345	0.407	0.368	0.365	0.349	0.352	0.343	0.358	0.353	0.387	0.418	0.367	0.368
240.0	156.6	138.5	527.9	2515	2841	379.9	17.09	8.202	6.681	5.096	4.750	4.257	3.996	3.447	2.777	2.438	2.119	1.950	1.815	1.627	1.396	1.195	1.336	1.010	1.008	1.041	0.975	0.873	0.969	0.946	0.870	0.783	0.755	0.688	0.706	0.535	0.572	0.560	0.473	0.492	0.533	0.541	0.459	0.562	0.680	0.854	0.622	0.730	1.181	2.336	6.388	14.26	16.10	9.987	3.230	0.684	0.381	0.433	0.389	0.373	0.435	0.430	0.330	0.327	0.343	0.357	0.371	0.340	0.360	0.367	0.323	0.340	0.356	0.391	0.381	0.354	0.342
245.0	128.4	184.9	178.3	948.3	3535	2820	267.1	12.18	7.967	5.934	5.919	4.753	4.148	3.432	2.806	2.672	2.323	1.722	1.779	1.646	1.402	1.287	1.218	1.275	1.054	1.080	0.969	0.941	0.918	0.871	1.022	0.722	0.744	0.656	0.684	0.611	0.562	0.511	0.558	0.526	0.481	0.540	0.502	0.489	0.558	0.945	0.847	0.919	0.668	0.799	1.748	5.155	12.79	20.26	18.35	8.830	2.170	0.536	0.420	0.393	0.472	0.451	0.361	0.357	0.370	0.355	0.361	0.360	0.349	0.370	0.397	0.399	0.300	0.370	0.406	0.333	0.363
250.0	65.30	162.1	234.3	293.2	1253	3417	3726	979.9	46.51	8.050	7.399	5.465	4.560	3.948	3.153	2.807	2.237	2.089	1.909	1.669	1.552	1.371	1.232	1.244	1.206	1.141	1.052	0.980	1.000	0.903	0.873	0.733	0.745	0.638	0.692	0.624	0.612	0.542	0.571	0.543	0.505	0.534	0.543	0.569	0.486	0.632	0.675	0.988	1.020	0.955	0.870	1.535	3.403	7.234	13.12	19.46	23.26	17.71	9.416	2.391	0.581	0.498	0.366	0.350	0.428	0.383	0.353	0.367	0.358	0.393	0.369	0.380	0.392	0.349	0.373	0.360	0.420
255.0	44.63	62.36	203.2	313.5	349.8	945.4	3779	5905	1298	39.41	8.726	7.104	5.571	4.711	3.426	3.097	2.203	2.302	2.051	1.938	1.519	1.434	1.516	1.325	1.310	1.073	0.953	0.961	0.974	1.008	0.907	0.816	0.763	0.707	0.751	0.632	0.676	0.535	0.612	0.605	0.511	0.475	0.495	0.497	0.524	0.499	0.483	0.597	0.655	1.082	1.332	1.458	1.299	2.005	3.322	5.088	9.973	23.63	38.89	26.99	14.19	2.381	0.497	0.371	0.432	0.368	0.361	0.437	0.404	0.422	0.406	0.358	0.483	0.326	0.385	0.421	0.353
260.0	40.20	42.42	94.69	303.9	286.8	257.0	1285	5903	6163	237.8	21.07	9.016	6.879	5.138	3.723	3.392	2.859	2.523	2.226	1.958	1.659	1.553	1.419	1.285	1.237	1.175	0.990	0.937	0.935	0.973	0.867	0.940	0.695	0.723	0.681	0.640	0.711	0.570	0.574	0.534	0.504	0.503	0.506	0.485	0.501	0.497	0.421	0.445	0.499	0.613	1.006	2.046	1.754	1.196	1.240	1.534	2.692	6.904	18.73	36.76	47.58	25.23	9.909	1.275	0.462	0.382	0.425	0.407	0.486	0.405	0.367	0.421	0.404	0.397	0.406	0.458	0.495
265.0	42.46	28.88	41.50	165.8	373.7	215.2	330.3	2266	7957	5585	180.6	13.63	8.640	6.602	4.607	3.579	3.223	2.729	2.472	1.936	1.700	1.470	1.303	1.460	1.299	1.059	1.088	1.199	0.960	0.932	0.919	0.837	0.809	0.818	0.697	0.586	0.605	0.610	0.584	0.555	0.486	0.591	0.525	0.523	0.568	0.515	0.450	0.502	0.441	0.496	0.568	1.199	1.982	2.097	1.466	0.831	1.024	2.003	4.840	11.81	30.13	50.20	52.87	21.56	5.251	0.659	0.429	0.380	0.474	0.398	0.419	0.419	0.441	0.424	0.433	0.391	0.426
270.0	57.01	53.23	41.34	67.91	211.5	376.5	257.5	564.3	2782	7228	7660	744.5	39.59	9.259	5.928	4.856	3.565	3.219	2.762	2.333	1.854	1.752	1.557	1.610	1.362	1.280	1.252	1.171	1.083	1.126	1.011	0.873	0.847	0.801	0.765	0.669	0.602	0.662	0.578	0.603	0.543	0.615	0.636	0.521	0.585	0.542	0.474	0.535	0.468	0.505	0.414	0.633	0.956	1.405	1.982	2.271	1.959	1.247	1.625	3.089	7.575	15.55	29.36	42.56	41.56	42.57	14.84	5.319	0.739	0.470	0.458	0.469	0.447	0.404	0.438	0.406	0.450
275.0	127.0	124.2	95.10	63.69	86.83	215.4	486.2	316.4	675.6	1900	6993	9999.9	1021	32.98	8.515	6.173	4.854	3.694	3.241	2.560	2.257	1.976	1.691	1.658	1.379	1.334	1.325	1.307	1.093	1.159	1.064	1.012	0.900	1.010	0.965	0.748	0.745	0.656	0.742	0.706	0.573	0.610	0.664	0.543	0.731	0.701	0.628	0.695	0.594	0.530	0.498	0.568	0.641	0.674	0.838	1.411	2.732	3.405	2.224	1.517	2.296	4.059	7.146	10.27	14.60	36.77	67.41	70.27	23.34	5.115	0.585	0.494	0.514	0.416	0.469	0.413	0.458
280.0	203.7	220.0	170.5	93.58	71.80	100.4	378.4	534.6	284.9	509.6	2166	9999.9	8984	143.7	17.08	7.922	5.580	4.290	3.460	3.206	2.547	2.099	1.798	1.919	1.603	1.425	1.499	1.302	1.074	1.168	0.919	1.126	0.956	1.008	0.928	0.903	0.908	0.856	0.810	0.687	0.584	0.657	0.871	0.757	0.815	0.835	0.999	0.906	0.894	0.713	0.593	0.636	0.627	0.607	0.615	0.799	1.462	2.696	3.943	2.931	1.702	1.607	2.263	3.023	4.031	9.760	26.01	58.40	80.77	32.65	17.35	1.981	0.552	0.478	0.548	0.488	0.495
285.0	299.1	335.5	254.4	147.4	81.16	77.84	192.0	574.1	330.5	249.3	621.9	3437	9999.9	6721	105.8	11.96	7.356	5.391	3.972	3.197	2.755	2.161	1.920	1.985	1.559	1.543	1.358	1.411	1.328	1.193	1.080	1.028	0.984	1.206	1.015	1.051	0.978	0.906	0.808	0.862	0.794	0.859	0.891	0.915	1.035	1.057	1.144	1.245	1.135	0.910	0.835	0.846	0.606	0.650	0.612	0.682	0.869	1.259	2.411	3.686	3.885	2.287	1.400	1.629	1.700	3.212	6.780	16.19	38.30	67.09	83.30	28.52	10.75	1.012	0.650	0.552	0.530
290.0	414.4	469.9	366.0	222.4	123.4	104.7	137.1	303.1	585.8	504.7	384.3	989.4	3448	8968	8064	430.6	25.91	7.480	5.132	3.832	3.210	2.753	2.391	2.078	1.880	1.683	1.561	1.512	1.536	1.208	1.237	1.144	1.114	1.182	1.179	1.169	1.117	1.015	0.932	0.952	0.884	0.925	1.061	1.034	1.185	1.377	1.512	1.693	1.489	1.126	1.013	0.914	0.820	0.856	0.741	0.717	0.844	1.028	1.464	1.911	2.884	3.828	4.038	3.014	2.011	2.195	2.775	4.922	9.977	18.59	35.38	49.14	63.52	52.99	18.80	8.571	1.144
295.0	485.0	576.1	466.8	289.8	174.3	151.6	170.7	234.6	377.7	796.6	730.7	564.4	1026	2341	6868	9999.9	603.7	21.54	7.638	4.958	4.100	3.263	2.915	2.374	2.235	1.839	1.579	1.771	1.433	1.361	1.262	1.212	1.140	1.157	1.277	1.236	1.170	1.194	0.944	1.064	0.984	0.995	1.017	1.203	1.571	1.555	1.783	1.845	1.861	1.417	1.455	1.234	1.131	1.102	0.955	0.898	1.084	1.151	1.447	1.570	1.849	2.233	3.533	4.935	5.243	3.733	2.609	2.936	4.081	5.795	9.328	12.26	17.71	33.19	64.87	82.41	29.32
300.0	519.1	641.6	535.8	349.3	222.4	209.4	233.9	290.1	351.6	662.7	1114	746.7	598.8	775.1	2055	9163	5729	86.70	13.00	6.749	4.792	3.995	2.789	2.522	2.584	2.169	1.721	1.558	1.539	1.491	1.353	1.235	1.146	1.314	1.260	1.308	1.331	1.304	1.135	1.143	1.039	1.073	1.262	1.324	1.578	1.737	2.012	2.178	1.936	1.592	1.463	1.382	1.363	1.362	1.285	1.413	1.442	1.484	1.649	1.740	1.973	2.255	2.595	3.667	5.448	6.185	5.097	3.481	3.553	3.564	4.021	4.414	5.446	8.989	21.12	50.75	80.39
305.0	556.7	658.0	602.6	414.0	289.8	288.8	325.0	401.7	500.0	680.4	1109	1247	730.2	558.7	718.8	3019	9841	4605	68.59	9.683	6.357	4.902	3.649	2.836	2.829	2.389	1.809	1.667	1.586	1.509	1.389	1.408	1.006	1.498	1.407	1.419	1.395	1.464	1.274	1.114	1.150	1.207	1.270	1.392	1.609	1.918	2.142	2.204	2.198	1.793	1.585	1.663	1.533	1.397	1.353	1.689	1.805	2.019	2.040	2.285	2.464	2.644	3.020	3.637	4.311	5.574	7.387	6.364	4.672	3.741	3.650	3.150	3.381	3.920	6.338	13.61	31.61
310.0	575.1	703.1	654.1	481.6	349.1	354.7	412.4	502.2	612.6	768.7	992.1	1289	1201	715.9	524.5	907.6	3171	7016	6370	302.7	20.07	6.668	4.352	3.420	2.963	2.478	2.233	1.851	1.877	1.584	1.462	1.430	1.264	1.371	1.484	1.444	1.443	1.410	1.245	1.199	1.180	1.252	1.292	1.485	1.630	1.855	2.115	2.386	2.291	1.948	1.784	1.856	1.795	1.699	1.699	1.843	2.145	2.445	2.560	2.698	2.993	3.305	3.681	4.050	4.314	5.056	5.730	6.739	7.003	6.639	5.316	3.989	3.519	3.382	3.488	4.740	8.640
315.0	612.8	784.1	734.0	541.6	420.9	417.8	477.2	575.6	678.5	841.5	1002	1128	1262	1124	624.3	504.5	933.3	1797	5316	8301	470.2	17.86	6.485	4.499	3.470	2.683	2.676	2.263	1.900	1.882	1.593	1.627	1.318	1.414	1.477	1.407	1.327	1.253	1.346	1.245	1.359	1.412	1.278	1.669	1.760	2.069	2.390	2.543	2.445	2.174	1.821	2.104	2.046	1.970	2.034	2.214	2.455	2.484	2.844	3.208	3.255	3.567	4.307	4.371	4.488	5.011	5.552	5.433	6.036	6.471	7.327	6.811	4.968	3.931	3.389	3.304	3.999
320.0	740.6	987.6	926.6	636.3	496.4	477.5	529.8	626.5	744.0	917.0	1055	1157	1171	1270	904.1	500.0	499.1	576.4	1520	7012	4278	66.08	11.45	5.854	4.228	3.313	2.906	2.352	2.017	1.957	1.868	1.696	1.476	1.411	1.498	1.417	1.483	1.349	1.343	1.244	1.314	1.386	1.482	1.738	2.010	2.422	2.798	3.072	2.976	2.606	2.328	2.382	2.164	2.144	2.162	2.403	2.456	2.797	3.105	3.477	3.472	3.804	4.330	4.657	4.866	5.172	5.474	5.803	5.828	5.975	6.273	7.263	7.245	5.665	4.137	3.405	3.401
325.0	953.2	1330	1196	829.5	587.8	545.5	598.9	686.0	803.5	969.0	1119	1230	1198	1176	1148	657.4	455.3	347.7	466.6	2193	7334	3680	56.30	8.385	5.559	4.123	2.905	2.626	2.207	1.896	1.918	1.778	1.481	1.417	1.491	1.382	1.483	1.570	1.455	1.322	1.360	1.432	1.748	2.080	2.633	2.887	3.839	3.883	4.033	3.549	2.957	2.863	2.654	2.396	2.489	2.674	2.847	3.057	3.320	3.686	3.798	3.969	4.261	4.879	5.583	5.615	5.999	6.085	6.132	6.290	6.478	6.377	6.908	6.999	5.859	4.261	3.695
330.0	1080	1615	1723	1224	803.8	658.1	651.7	726.9	842.7	1009	1176	1276	1252	1159	1078	923.9	610.4	364.0	284.8	616.4	2280	5295	5132	1114	18.72	5.258	4.088	3.079	2.540	2.154	2.067	1.808	1.638	1.554	1.499	1.487	1.425	1.440	1.297	1.346	1.427	1.437	1.695	2.003	2.714	3.470	4.259	5.324	5.407	4.853	4.095	4.275	3.518	3.184	3.036	2.939	3.269	3.289	3.632	3.810	3.927	4.166	4.709	5.119	5.565	5.745	6.120	6.272	6.601	6.734	6.607	6.229	6.308	6.325	6.355	6.294	5.510
335.0	1211	1897	2066	1563	1087	789.0	731.1	787.2	897.5	1060	1215	1335	1318	1219	1053	921.3	866.0	515.0	314.5	318.1	627.2	1320	4121	7165	411.9	19.15	5.724	3.902	3.059	2.513	2.188	1.909	1.632	1.551	1.385	1.447	1.608	1.442	1.251	1.385	1.419	1.494	1.694	2.248	2.894	3.679	4.622	6.078	6.210	5.696	4.995	5.579	4.741	4.161	3.669	3.148	3.339	3.609	3.963	4.001	4.247	4.721	5.144	5.448	5.936	6.157	6.338	6.679	6.733	6.994	7.021	6.307	6.335	6.496	5.973	6.037	6.124
340.0	1226	2009	2218	1765	1210	889.8	784.4	822.7	922.1	1070	1228	1343	1338	1247	1074	895.9	869.3	705.4	388.6	290.8	291.8	396.8	1160	5626	6088	338.7	10.40	5.034	3.869	2.959	2.623	2.178	1.884	1.788	1.458	1.442	1.547	1.423	1.303	1.483	1.495	1.731	2.075	2.266	3.094	3.966	4.995	6.400	6.749	6.117	5.527	6.110	4.984	4.542	3.892	3.704	3.560	3.609	3.988	4.214	4.453	4.733	4.776	5.237	5.851	6.453	6.533	6.708	6.895	6.925	7.003	6.982	6.497	6.451	6.085	5.842	5.928
345.0	1252	1974	2228	1822	1296	955.9	833.3	841.9	924.4	1067	1206	1307	1314	1241	1080	888.6	783.6	767.5	524.0	321.6	246.3	217.6	350.2	1697	6332	3301	51.29	6.910	4.617	3.491	2.672	2.243	1.909	1.973	1.557	1.559	1.526	1.341	1.492	1.403	1.401	1.689	1.837	2.158	3.130	3.940	4.946	6.034	6.693	6.015	5.846	6.198	5.370	4.947	4.278	3.905	3.653	3.749	3.946	4.243	4.315	4.670	4.794	5.340	5.914	6.025	6.093	6.375	6.569	6.814	6.863	7.007	6.594	6.182	6.148	5.839	5.520
350.0	1189	1835	2100	1835	1387	1043	902.4	891.2	950.7	1062	1168	1256	1264	1205	1079	911.5	779.4	701.5	655.0	482.3	310.3	236.2	219.8	476.8	1868	4160	4252	1091	18.53	4.742	3.537	2.759	2.047	2.083	1.677	1.436	1.500	1.444	1.433	1.348	1.423	1.569	1.736	2.164	2.808	3.790	4.630	5.882	6.357	5.904	5.593	6.443	5.510	5.133	4.668	4.126	4.182	4.191	4.256	4.407	4.515	4.719	5.030	5.166	5.538	5.764	6.267	6.209	6.296	6.392	6.758	6.714	6.603	6.181	6.378	5.766	5.915
355.0	1112	1694	1999	1779	1445	1146	999.0	974.1	997.2	1096	1174	1224	1233	1182	1078	936.1	820.9	713.5	641.8	643.8	467.2	312.2	246.8	250.9	512.1	1020	2955	5917	393.6	21.07	4.883	3.504	2.384	1.991	1.899	1.616	1.527	1.484	1.386	1.302	1.262	1.577	1.775	2.003	2.575	3.517	4.088	5.474	5.813	5.512	5.683	6.338	5.515	5.395	5.016	4.707	4.637	4.399	4.649	4.833	5.068	5.135	5.305	5.331	5.960	5.652	5.835	5.546	6.177	6.194	6.484	6.421	6.120	6.370	5.981	6.360	6.403
360.0	1023	1527	1854	1759	1459	1196	1058	1034	1055	1114	1175	1204	1211	1170	1081	956.0	861.8	749.0	664.4	653.3	608.8	415.1	301.1	242.1	242.6	311.6	799.6	4141	5378	347.1	12.10	4.203	2.919	2.325	2.149	1.790	1.724	1.534	1.502	1.486	1.348	1.647	1.835	2.112	2.416	3.364	3.992	5.190	5.199	5.332	5.430	6.398	5.673	5.755	5.272	4.972	4.831	4.829	4.882	4.994	5.090	5.276	5.544	5.608	5.867	5.630	5.963	5.886	6.131	6.308	6.363	6.555	6.419	6.589	6.370	6.575	6.383
365.0	959.5	1434	1751	1699	1471	1240	1114	1078	1104	1141	1181	1197	1189	1153	1082	967.5	891.2	790.6	704.4	652.3	655.1	556.1	376.4	279.9	217.6	180.9	248.8	1182	4964	3146	50.50	7.494	3.894	2.825	2.106	1.924	1.680	1.417	1.355	1.580	1.449	1.561	1.790	1.889	2.620	3.254	3.563	4.679	5.101	5.089	5.221	6.180	5.754	5.682	5.124	5.102	5.260	5.097	5.142	5.187	5.481	5.688	5.824	5.779	5.863	5.651	5.885	6.000	5.791	6.077	6.050	6.496	6.229	6.546	6.089	6.163	6.695
370.0	919.4	1334	1651	1625	1478	1296	1175	1137	1155	1178	1185	1187	1161	1137	1065	984.6	916.9	840.5	770.2	705.1	656.6	642.1	526.8	368.5	266.1	193.9	161.3	335.0	1405	3514	3916	1078	17.87	4.110	2.820	2.350	1.867	1.644	1.612	1.547	1.470	1.688	1.788	1.946	2.541	2.968	3.493	4.438	4.786	4.843	4.787	6.126	5.760	5.759	5.442	5.252	5.574	5.302	5.458	5.442	5.675	5.670	5.651	5.876	6.042	5.908	5.925	5.949	6.006	6.036	6.202	6.316	6.162	6.372	6.073	6.306	6.564
375.0	888.3	1305	1545	1601	1471	1326	1236	1176	1172	1182	1191	1183	1144	1110	1043	989.1	927.2	879.3	821.4	759.4	696.0	646.7	620.2	505.9	339.0	244.7	183.2	178.4	383.6	850.4	2466	5239	1469	20.64	4.153	2.829	2.308	1.796	1.648	1.668	1.568	1.642	1.726	1.990	2.242	2.866	3.592	3.941	4.642	4.587	4.636	5.905	5.543	5.909	5.704	5.526	5.677	5.318	5.608	5.579	5.660	5.471	5.379	5.998	5.732	5.641	5.824	5.735	5.829	5.837	5.961	6.134	6.314	6.357	6.031	6.408	6.480
380.0	857.1	1232	1440	1553	1466	1343	1247	1204	1176	1188	1182	1166	1134	1091	1034	980.7	934.1	889.3	847.2	788.8	731.5	665.1	616.2	589.5	422.2	293.7	218.0	169.0	177.5	251.3	658.8	3464	4755	299.0	10.75	3.728	2.849	2.248	1.976	1.679	1.454	1.672	1.864	1.959	2.238	2.926	3.166	4.040	4.230	4.206	4.373	5.547	5.569	6.047	5.774	5.712	5.746	5.418	5.680	5.484	5.604	5.716	5.762	6.054	5.987	5.635	5.853	5.663	5.739	6.124	5.979	5.863	6.019	6.147	6.042	6.062	6.534
385.0	847.3	1172	1400	1487	1443	1337	1258	1211	1186	1179	1167	1156	1123	1066	1021	972.6	933.7	893.8	857.3	804.7	751.9	690.4	622.3	592.7	513.6	354.0	256.8	195.5	156.8	139.3	206.9	967.1	3915	2637	227.3	6.651	3.693	2.616	2.205	1.630	1.539	1.825	1.794	1.982	2.273	2.597	3.044	3.700	4.283	4.184	4.284	5.442	5.504	5.835	5.548	5.543	5.647	5.719	5.675	5.409	5.802	5.685	6.150	5.793	5.538	5.724	5.656	5.761	5.843	5.792	5.980	5.616	5.914	5.973	6.056	6.038	6.726
390.0	789.1	1134	1323	1427	1409	1351	1257	1218	1185	1176	1170	1156	1109	1065	1007	957.0	914.7	886.3	854.0	815.0	773.6	716.7	652.6	592.6	551.9	464.6	336.8	252.1	200.9	158.3	141.2	281.5	1086	2634	2974	849.9	17.13	4.729	2.818	2.040	1.777	1.658	1.865	1.913	2.180	2.660	2.985	3.597	3.968	3.847	4.121	5.257	5.488	5.634	5.557	5.512	5.666	5.868	5.693	5.521	5.675	5.544	5.969	5.941	5.766	5.826	5.569	5.642	5.625	5.839	5.749	5.689	6.107	5.852	5.767	5.998	6.293
395.0	752.0	1046	1291	1375	1375	1338	1270	1223	1202	1197	1197	1192	1143	1087	1021	960.1	913.4	884.8	851.8	823.5	789.2	747.6	697.9	634.8	580.7	547.3	465.1	358.9	290.6	240.1	193.9	182.1	328.5	662.0	1815	3777	1172	20.97	4.776	2.792	2.176	1.902	1.918	2.108	2.337	2.579	2.827	3.367	3.865	3.946	4.119	5.396	5.237	5.684	5.582	5.378	5.677	5.918	5.667	5.603	5.529	5.665	5.888	5.910	5.645	5.568	5.529	5.839	5.682	5.973	5.958	5.796	5.937	5.914	5.983	6.182	6.129
400.0	722.8	1031	1248	1356	1342	1342	1277	1233	1227	1241	1266	1267	1218	1153	1065	977.3	916.5	875.7	854.4	832.0	809.8	779.7	743.0	695.3	640.5	601.0	584.6	468.1	391.9	334.3	274.4	224.8	206.7	246.5	523.4	2470	3496	259.8	12.93	3.902	2.502	2.051	2.016	2.097	2.290	2.536	2.942	3.393	3.588	3.881	4.214	5.396	5.354	5.430	5.484	5.634	6.097	6.200	5.803	5.711	5.537	5.518	5.991	5.904	5.758	5.779	5.729	5.799	5.889	6.016	5.991	5.653	5.963	5.893	5.898	6.076	6.098
405.0	769.3	1009	1233	1330	1338	1315	1281	1246	1263	1299	1349	1349	1296	1222	1122	1004	926.0	881.7	853.5	846.4	827.3	817.6	793.2	756.3	716.8	673.9	653.8	625.5	515.6	438.2	371.8	297.4	234.4	194.4	226.3	737.6	2855	2223	198.4	6.644	3.188	2.444	2.069	2.125	2.392	2.549	2.975	3.329	3.662	3.854	3.974	5.205	5.339	5.501	5.422	5.493	5.677	5.924	5.947	5.921	5.852	5.834	5.808	5.901	6.014	5.963	6.126	5.915	6.045	6.157	5.981	5.640	5.974	5.952	6.043	5.650	6.024
410.0	713.1	972.7	1150	1295	1301	1297	1276	1261	1285	1342	1407	1413	1358	1280	1152	1013	914.8	862.4	836.0	830.0	826.5	825.4	821.6	804.9	779.4	740.2	712.3	701.0	649.7	550.2	464.4	379.1	291.7	226.0	191.3	271.9	826.5	1987	2314	697.6	13.86	3.177	2.493	2.181	2.431	2.571	2.882	3.339	3.481	3.604	3.991	5.246	5.069	5.526	5.654	5.533	5.994	6.005	6.044	5.811	5.836	6.062	5.931	6.186	6.375	5.917	5.826	6.073	5.991	6.162	5.820	5.700	6.103	6.082	5.884	5.798	5.907
415.0	665.0	920.3	1119	1214	1253	1251	1251	1239	1270	1316	1369	1386	1317	1244	1109	971.7	875.3	819.1	791.4	786.5	789.3	792.8	801.8	797.6	777.5	747.2	719.4	691.8	667.7	617.5	502.5	407.0	314.3	240.9	190.4	172.5	258.7	495.3	1327	2742	261.0	15.52	3.109	2.510	2.516	2.599	2.780	3.249	3.603	3.329	3.862	4.801	5.082	5.019	5.434	5.192	5.822	5.946	5.891	5.913	5.456	6.031	6.045	5.923	5.972	5.930	5.661	5.967	5.927	6.026	5.641	5.815	5.568	5.654	5.602	5.443	5.863
420.0	625.6	879.5	1087	1160	1198	1205	1244	1217	1231	1281	1317	1319	1269	1176	1054	934.1	822.3	770.1	751.9	748.1	753.0	756.7	772.1	770.8	754.8	730.4	700.1	669.5	636.1	620.4	524.4	410.7	316.2	244.7	191.7	148.3	131.9	152.0	350.9	1768	2123	225.6	7.685	2.968	2.668	2.730	2.553	3.252	3.374	3.500	3.855	4.472	4.801	4.867	5.462	5.082	5.458	5.792	5.840	5.683	5.551	5.686	5.984	5.679	6.148	5.770	5.314	5.521	5.334	5.634	5.376	5.519	5.640	5.320	5.101	5.429	5.430
425.0	594.0	847.9	1018	1134	1173	1191	1214	1200	1203	1244	1294	1289	1225	1142	1022	890.9	790.0	746.9	716.3	710.8	717.8	729.0	740.3	744.4	737.2	716.9	693.1	661.0	617.5	599.7	550.7	428.4	323.9	249.7	195.1	146.6	105.4	78.17	102.9	486.5	1938	1920	34.68	4.232	3.027	2.883	2.851	3.145	3.341	3.402	3.662	4.322	4.431	4.986	5.049	5.147	5.397	5.377	5.360	5.408	5.478	5.543	5.605	5.570	5.951	5.701	5.277	5.446	5.240	5.377	4.872	5.185	5.451	5.504	5.105	5.292	5.011
430.0	644.0	809.1	969.5	1082	1144	1156	1200	1190	1195	1229	1275	1276	1211	1119	998.8	861.3	760.4	707.3	681.3	679.5	685.3	700.4	715.7	728.0	729.5	718.0	700.0	675.9	634.4	597.1	559.4	480.1	362.0	272.7	214.9	163.0	112.9	70.43	53.14	126.2	532.4	1520	1782	541.0	12.20	3.402	3.086	3.162	3.303	3.269	3.523	4.365	4.549	4.738	4.950	5.086	5.283	5.488	5.462	5.214	5.648	5.625	5.366	5.406	5.739	5.591	5.534	5.491	5.235	5.259	5.382	5.200	5.349	5.115	5.031	5.081	4.867
435.0	966.9	766.6	929.9	1045	1093	1130	1170	1172	1177	1213	1263	1251	1180	1093	968.8	829.7	724.7	669.0	648.2	644.2	654.2	668.6	687.5	708.2	710.2	709.0	699.0	681.0	647.2	608.9	550.4	491.7	406.6	300.3	230.7	178.1	124.8	77.53	47.96	50.13	134.4	357.1	1055	2118	242.9	13.49	3.427	3.364	3.408	3.157	3.232	4.131	4.484	4.562	4.955	5.074	5.281	5.429	5.487	5.521	5.763	5.365	5.159	5.607	5.538	5.558	5.088	5.079	5.178	4.904	4.982	5.139	5.177	4.938	5.040	4.927	4.925
440.0	1214	842.8	897.3	1018	1065	1127	1145	1159	1156	1179	1217	1199	1140	1043	926.5	798.3	689.9	642.4	619.3	611.2	619.9	636.8	656.8	675.2	686.4	687.6	674.9	659.5	631.9	595.6	538.0	467.5	405.2	317.5	237.0	182.8	129.6	81.80	50.73	36.99	47.37	92.86	277.3	1506	1934	201.0	6.808	3.937	3.480	3.193	3.261	4.203	4.271	4.443	4.797	4.854	5.351	5.381	5.381	5.429	5.678	5.413	5.093	5.497	5.248	5.319	5.203	5.156	5.015	4.995	4.906	4.843	4.633	4.580	4.604	4.720	4.598
445.0	1278	1060	860.9	963.9	1034	1085	1110	1130	1117	1129	1163	1143	1074	981.0	867.5	750.0	654.6	604.0	581.0	579.9	582.7	592.8	615.5	635.0	640.5	645.3	632.5	621.4	596.8	561.8	507.2	438.6	377.5	320.8	239.6	179.7	130.1	84.76	54.60	36.34	30.83	35.21	73.55	426.4	1810	1696	29.05	4.684	3.745	3.186	3.297	4.243	4.025	4.529	4.556	5.001	5.226	5.300	5.471	5.382	5.314	5.441	5.163	5.255	4.815	4.855	4.823	4.910	5.031	4.680	4.795	4.651	4.518	4.197	4.439	4.559	4.241
450.0	969.0	1586	958.4	899.8	967.8	1044	1065	1077	1045	1050	1061	1035	975.0	887.7	782.7	679.1	594.8	549.7	530.3	526.7	524.3	535.2	551.2	566.6	574.9	575.8	568.8	559.1	539.2	508.2	461.0	399.8	334.9	289.4	240.9	179.5	128.2	85.71	57.64	40.49	30.51	25.57	29.76	105.7	503.0	1385	1585	463.5	10.82	3.561	3.330	4.108	4.324	4.279	4.427	4.681	4.868	5.001	5.068	4.912	4.887	4.840	4.842	4.947	4.766	4.543	4.650	4.587	4.611	4.274	4.442	4.313	4.297	4.143	4.076	4.295	3.830
455.0	582.3	1691	1567	848.4	894.2	973.6	1002	995.3	968.2	970.2	978.3	941.7	870.2	794.3	701.4	603.6	535.5	495.5	479.7	470.1	464.5	477.3	489.1	503.1	506.5	512.4	506.5	497.1	485.1	460.3	420.4	366.6	305.4	254.9	222.3	188.3	129.5	87.32	60.62	45.20	33.81	26.39	22.75	35.45	121.7	324.8	895.4	1822	199.1	11.59	3.587	4.082	3.858	3.805	4.303	4.386	4.601	4.687	4.678	4.620	4.891	4.948	4.735	4.650	4.362	4.330	4.163	4.067	4.135	4.049	3.569	4.045	3.898	3.884	3.816	3.770	3.636
460.0	429.0	1310	2166	897.3	858.8	895.9	942.3	930.2	927.4	904.9	906.2	880.1	808.9	732.7	639.5	556.9	491.7	454.6	440.2	431.7	424.7	433.5	442.1	459.2	466.2	468.4	466.1	458.5	443.8	428.4	392.8	343.9	286.7	238.2	201.3	183.9	137.6	90.18	63.06	48.05	36.64	28.39	22.87	21.10	37.60	81.02	229.0	1207	1562	156.0	6.835	4.186	3.878	3.905	3.796	4.199	4.372	4.576	4.653	4.738	4.454	4.554	4.190	4.403	3.994	4.286	3.756	3.901	3.901	3.715	3.606	3.694	3.537	3.425	3.360	3.434	3.512
465.0	395.6	832.0	2378	1344	797.0	839.3	880.9	879.6	862.1	850.3	843.3	811.0	753.4	674.6	595.1	519.4	454.2	421.5	405.8	397.1	393.0	398.9	406.8	422.1	426.7	428.5	428.4	422.9	416.5	398.5	365.5	321.6	271.1	224.4	190.6	169.4	140.8	94.92	65.31	49.61	38.33	31.04	24.47	20.02	20.27	27.51	59.20	335.9	1401	1270	124.8	5.383	3.942	3.989	3.899	4.210	4.374	4.473	4.046	4.422	4.348	4.376	4.154	3.950	3.893	3.904	3.715	3.718	3.617	3.428	3.544	3.502	3.294	3.224	3.246	3.231	3.231
470.0	371.3	539.9	1604	2231	893.4	762.3	800.6	809.1	784.5	764.2	754.5	722.5	674.7	603.4	526.7	461.8	407.1	373.2	357.9	351.5	346.0	348.2	356.2	367.5	375.1	378.3	375.4	372.6	366.1	349.2	324.3	288.8	244.6	204.5	172.7	147.5	127.5	101.0	69.76	51.46	40.77	32.97	26.46	21.74	17.79	17.26	22.22	82.54	384.9	999.4	1144	382.1	11.02	4.067	3.863	3.764	4.019	4.123	4.040	4.052	3.937	3.808	3.797	3.682	3.590	3.388	3.282	3.368	3.350	3.289	3.315	3.194	3.028	2.988	2.948	2.901	2.873
475.0	362.1	428.8	807.7	2309	1618	686.5	704.5	716.7	701.7	674.1	662.3	631.5	589.2	525.0	462.3	398.2	354.3	328.9	314.9	302.5	300.0	299.1	307.3	317.4	321.2	324.4	323.1	318.7	313.6	303.5	281.5	250.1	216.0	182.7	155.1	130.7	108.9	95.18	77.78	54.96	41.74	33.26	27.41	22.84	18.32	16.15	14.74	26.85	92.59	232.2	567.0	1254	200.6	13.05	3.921	3.653	3.442	3.750	3.543	3.558	3.664	3.391	3.477	3.327	3.320	3.298	3.005	3.086	3.028	2.989	2.999	2.959	3.033	2.754	2.520	2.690	2.786
480.0	341.5	382.7	535.7	1632	2421	757.7	647.7	657.9	636.8	614.4	601.5	571.7	529.6	475.7	415.7	358.5	320.0	295.7	282.5	274.6	269.8	268.3	273.0	281.8	285.5	287.2	286.3	285.1	278.6	270.2	252.0	224.1	194.7	165.9	141.4	120.0	100.0	85.50	77.60	58.78	43.39	34.07	28.35	23.69	18.97	16.39	13.56	14.95	27.58	57.67	142.1	715.0	1156	180.3	7.063	3.481	3.534	3.571	3.466	3.300	3.133	3.178	3.253	3.245	3.009	2.885	2.849	2.869	2.720	2.629	2.884	2.404	2.670	2.398	2.401	2.398	2.574
485.0	310.8	388.8	446.7	952.6	2691	1208	616.5	600.8	589.9	575.6	553.1	525.7	482.6	430.1	376.9	329.7	294.3	270.8	257.1	254.6	243.6	243.1	245.3	252.5	258.5	258.3	259.6	255.1	251.3	245.9	230.9	202.8	180.0	153.5	131.7	112.8	92.63	77.41	69.92	62.11	46.55	35.23	28.30	24.34	20.60	17.97	14.39	12.14	13.61	18.82	37.04	192.6	911.5	1055	28.69	4.680	3.426	3.371	3.319	3.127	3.104	3.001	3.096	2.862	2.754	2.643	2.717	2.732	2.605	2.445	2.643	2.388	2.414	2.444	2.197	2.390	2.337
490.0	259.9	400.9	415.0	560.9	1829	2247	688.2	555.6	536.3	516.4	497.3	474.5	431.4	386.1	335.3	294.3	265.4	242.7	231.3	224.7	218.5	216.6	217.4	224.0	226.5	226.7	226.7	226.6	223.0	216.5	205.7	182.9	162.4	139.6	121.9	103.7	86.42	71.75	62.53	58.79	52.63	39.44	29.86	25.54	21.52	18.15	15.53	13.10	11.28	11.05	14.00	48.14	242.0	697.5	926.2	364.7	12.40	3.347	3.175	2.859	2.835	2.831	2.742	2.742	2.558	2.539	2.501	2.511	2.369	2.263	2.262	2.287	2.209	2.251	2.059	2.075	2.239
495.0	224.9	354.9	413.6	423.1	836.4	2484	1383	498.8	476.2	463.6	446.6	423.4	385.5	341.6	297.9	259.8	234.3	215.2	204.9	195.6	191.3	190.4	191.2	192.5	196.4	198.5	199.6	197.3	195.1	189.9	181.1	160.8	144.5	124.6	109.8	94.27	79.80	67.06	57.27	51.24	50.58	44.42	32.13	26.06	21.98	19.06	16.06	13.92	11.62	9.754	9.178	15.99	58.47	161.6	467.9	1147	227.8	14.48	3.283	3.002	2.722	2.399	2.612	2.647	2.514	2.192	2.562	2.242	2.103	2.050	2.092	2.011	2.075	1.746	1.850	1.864	1.961
500.0	187.1	309.7	407.2	375.0	498.0	1797	2295	531.9	442.0	418.8	407.9	383.2	349.0	308.3	270.4	236.0	211.4	196.3	185.1	176.6	173.8	170.8	171.4	177.1	175.9	178.2	178.7	174.9	175.7	170.8	162.7	147.3	131.6	115.3	99.80	86.71	73.80	62.69	54.01	47.13	44.82	44.44	35.74	26.59	22.29	18.98	16.48	14.34	12.12	9.918	8.317	8.928	17.82	40.08	116.2	620.0	1105	202.4	8.290	2.980	2.590	2.341	2.618	2.547	2.293	2.028	2.115	1.940	2.040	1.898	1.861	1.811	1.840	1.671	1.619	1.525	1.867
505.0	185.9	272.8	377.4	353.4	386.7	983.2	2768	893.9	402.1	384.5	370.9	345.2	316.1	278.0	244.4	214.8	188.2	176.5	169.3	162.0	154.7	152.9	152.1	155.4	157.7	158.6	159.1	158.2	155.6	154.0	145.2	131.8	118.4	103.5	90.94	79.97	69.26	60.09	50.30	43.95	39.79	40.39	38.19	28.22	21.92	18.77	16.27	13.99	12.13	10.30	8.476	7.652	8.730	13.47	29.85	162.2	771.6	1002	31.80	4.376	2.644	2.306	2.240	2.241	1.994	1.969	2.101	1.966	2.010	1.926	1.816	1.847	1.646	1.608	1.612	1.539	1.748
510.0	156.9	223.4	320.1	361.7	332.4	490.8	1905	2046	461.3	339.6	325.9	310.3	277.1	243.0	213.4	185.2	165.6	153.8	146.1	140.7	133.7	132.7	131.3	133.3	134.8	136.9	135.3	135.5	133.7	131.1	126.3	115.9	103.6	90.64	80.52	70.57	61.44	53.07	46.08	40.40	35.95	33.95	34.45	30.10	23.46	18.88	16.19	13.80	11.84	10.27	8.887	7.535	6.888	7.335	10.46	39.77	198.8	591.2	774.5	310.4	12.29	2.493	2.184	2.025	1.916	1.867	1.914	1.684	1.663	1.786	1.634	1.638	1.440	1.530	1.474	1.460	1.515
515.0	138.2	195.4	245.7	341.6	295.9	326.0	781.4	2581	1086	300.2	285.9	267.4	236.7	210.7	180.5	160.9	141.5	130.5	127.3	118.3	113.5	112.1	111.9	113.3	113.5	114.1	113.1	113.5	114.1	111.4	107.0	98.42	87.74	78.14	70.29	61.35	54.49	47.07	41.44	36.91	31.98	29.49	28.31	29.36	26.11	19.44	15.69	13.45	11.54	10.02	8.722	8.522	6.578	5.870	6.175	12.37	47.75	135.7	323.5	845.8	233.9	15.71	2.268	1.946	1.925	1.678	1.700	1.657	1.413	1.580	1.497	1.375	1.506	1.323	1.343	1.410	1.389
520.0	124.9	173.7	195.6	297.4	291.6	269.1	395.1	1861	2111	337.8	252.5	235.0	211.2	187.3	162.4	142.5	126.3	118.4	110.4	105.6	100.3	100.4	99.80	99.75	101.7	99.04	99.36	98.86	98.52	97.19	93.75	87.07	77.35	69.21	61.91	54.17	49.48	43.33	38.44	34.54	30.24	27.56	25.10	25.11	25.94	20.97	15.84	12.72	11.60	9.700	8.599	8.015	6.551	5.754	5.331	6.376	13.79	33.35	78.12	405.5	806.3	202.9	9.191	1.875	1.759	1.571	1.540	1.465	1.363	1.400	1.436	1.244	1.342	1.268	1.198	1.283	1.290
525.0	114.4	147.3	170.6	242.5	292.3	242.5	270.3	913.8	2795	684.8	229.0	212.8	192.3	168.6	144.3	127.0	115.2	106.8	98.55	93.12	89.35	88.40	87.35	88.22	88.77	87.01	88.23	88.51	86.99	86.43	83.54	76.80	69.21	61.92	55.83	49.85	44.21	38.96	34.95	31.51	28.06	25.24	23.14	21.55	23.17	22.26	16.68	12.49	11.00	9.488	8.487	7.611	6.947	5.982	5.053	4.940	6.207	10.39	20.42	100.8	473.2	737.2	159.3	4.159	1.780	1.630	1.369	1.382	1.315	1.287	1.251	1.276	1.239	1.153	1.173	1.205	1.173
530.0	104.3	131.8	152.3	188.9	271.0	238.2	217.1	380.0	1913	2002	301.3	183.7	164.7	145.2	126.6	110.0	98.92	90.94	85.97	81.07	76.61	75.22	75.04	76.99	75.70	74.11	74.21	74.25	73.60	73.56	70.14	65.72	60.24	53.03	47.90	43.29	39.20	34.16	31.17	27.90	24.93	22.62	20.70	19.09	18.62	19.67	17.88	13.17	10.67	8.965	7.890	6.948	6.475	6.097	5.214	4.566	4.677	5.238	7.098	24.85	116.8	369.5	557.9	255.0	12.90	1.743	1.403	1.268	1.277	1.170	1.176	1.120	1.083	1.043	1.063	1.078	1.123
535.0	106.8	112.8	139.0	146.7	205.1	250.4	184.9	228.0	675.1	2625	980.4	159.5	137.9	123.6	105.2	93.10	84.58	76.42	71.94	69.36	66.03	64.21	62.96	62.79	63.53	62.90	61.58	62.01	62.26	61.83	58.33	55.11	51.64	44.01	40.47	36.86	33.21	29.45	27.13	24.14	22.13	19.65	17.86	16.57	15.77	15.91	17.08	14.41	10.53	8.329	7.586	6.600	5.797	5.439	5.538	4.696	4.048	3.974	4.135	7.749	28.24	84.57	189.4	549.2	238.3	17.33	1.482	1.254	1.139	1.069	1.038	0.942	1.000	0.993	1.037	0.949	0.999
540.0	83.25	111.2	125.4	127.5	158.4	237.1	188.2	168.3	281.0	1759	1859	190.3	125.0	107.8	92.93	80.68	72.83	68.67	62.52	58.94	57.34	56.65	55.42	54.14	55.38	54.26	53.35	53.00	54.51	53.80	50.29	47.64	44.32	38.32	35.77	32.29	29.64	26.87	24.06	22.13	20.12	18.00	16.53	15.06	13.98	12.95	14.45	14.49	11.23	8.055	7.042	6.022	5.459	4.819	5.007	4.752	3.904	3.640	3.401	3.919	8.394	20.77	45.00	223.8	555.7	206.4	10.40	1.426	1.226	1.103	0.991	0.982	1.023	0.965	0.904	0.836	0.943
545.0	78.70	98.32	106.8	114.2	127.6	197.7	193.9	144.2	169.7	734.5	2717	496.7	111.0	93.21	84.66	72.25	63.63	59.69	55.67	50.92	50.85	49.45	48.73	47.57	47.42	47.34	47.09	47.73	48.54	47.30	45.08	42.27	38.32	34.27	31.27	28.28	26.10	23.28	21.83	19.68	17.62	16.32	14.57	13.97	12.69	11.50	11.69	12.92	11.65	8.451	6.282	5.542	5.101	4.666	4.537	4.443	4.105	3.473	2.954	2.962	3.776	6.511	11.71	53.76	269.8	523.3	157.3	4.777	1.149	1.092	0.900	0.908	1.019	0.829	0.826	0.847	0.932
550.0	71.35	87.17	93.95	99.16	108.5	137.4	194.8	130.5	127.2	262.3	1665	1744	143.5	79.30	69.27	59.89	54.16	49.79	46.08	44.15	41.08	39.65	39.74	39.08	39.51	39.11	38.62	38.70	38.82	38.06	37.01	34.55	31.37	28.78	26.69	23.52	21.67	19.77	18.37	16.52	14.94	13.63	12.64	11.83	11.26	9.923	9.415	9.758	10.29	8.900	6.728	5.249	4.599	4.122	3.942	3.602	3.743	3.440	2.819	2.497	2.626	3.151	4.227	13.50	64.27	219.9	368.7	141.4	13.92	1.277	0.971	0.840	0.899	0.788	0.823	0.822	0.790
555.0	71.44	88.31	86.77	88.02	87.29	96.97	155.5	140.5	97.42	129.6	512.5	2288	694.8	68.38	55.16	50.08	43.66	40.91	36.83	35.75	32.83	32.12	31.73	31.98	31.77	31.16	30.68	30.67	30.75	30.20	29.66	28.06	25.23	23.21	20.91	19.32	17.97	16.12	14.95	13.37	12.61	11.60	11.02	9.847	9.027	8.371	7.827	7.523	7.758	8.306	6.962	5.214	4.051	3.713	3.514	3.120	3.085	3.317	2.968	2.405	2.309	2.148	2.427	4.197	15.52	50.17	108.6	310.7	229.8	18.56	1.081	0.858	0.786	0.822	0.704	0.696	0.706
560.0	71.13	83.13	87.07	79.42	73.07	74.98	120.2	158.9	90.84	91.81	186.4	1423	1407	95.01	48.50	42.01	37.48	35.06	31.45	30.05	28.53	27.03	27.09	27.30	25.96	25.97	24.93	24.75	24.79	25.12	24.72	22.79	21.18	19.69	17.44	16.21	15.16	13.69	12.50	11.47	10.80	10.10	9.047	8.625	8.068	7.339	6.646	6.071	5.882	6.841	6.568	5.099	3.727	3.303	3.095	2.747	2.810	2.767	2.957	2.571	2.034	1.955	1.817	2.043	4.640	12.27	25.45	112.0	335.8	187.3	11.31	0.897	0.819	0.857	0.611	0.633	0.709
565.0	76.01	76.45	82.70	69.34	62.73	67.01	85.62	155.7	98.50	77.73	99.87	539.6	2192	320.1	42.97	36.39	31.58	29.53	26.23	24.73	23.57	23.48	22.11	22.78	22.24	22.35	22.11	21.21	21.57	21.20	20.54	19.49	17.58	16.63	14.96	13.90	13.08	11.87	10.63	9.947	9.308	8.577	8.013	7.247	6.843	6.475	5.705	5.485	4.945	5.051	5.740	5.070	3.838	3.015	2.669	2.470	2.449	2.399	2.488	2.484	2.054	1.568	1.655	1.647	1.995	3.839	6.771	26.60	135.3	318.4	126.3	4.378	0.740	0.777	0.670	0.664	0.688
570.0	78.64	80.27	72.56	62.95	56.33	55.30	61.19	114.2	117.9	70.13	72.97	178.1	1316	1310	74.14	29.79	26.17	23.72	22.12	20.18	19.57	18.91	18.42	18.06	17.77	18.06	17.72	16.82	17.24	17.08	16.44	15.46	14.38	13.26	12.11	11.58	10.34	9.942	8.872	8.032	7.531	7.055	6.589	6.171	5.589	5.390	4.839	4.485	4.165	3.868	4.184	4.633	3.875	2.900	2.395	2.153	2.071	1.977	2.095	2.157	2.136	1.722	1.508	1.460	1.457	1.785	2.469	6.934	31.86	116.8	210.7	123.8	13.45	0.946	0.615	0.574	0.573
575.0	75.52	85.37	68.32	56.33	48.02	46.49	48.85	72.90	126.5	75.96	63.75	83.29	380.7	1709	480.6	25.69	20.42	19.58	18.09	16.18	16.12	15.45	14.99	14.07	13.81	13.85	14.31	13.76	13.45	13.55	13.52	12.24	11.92	10.71	9.559	9.129	8.345	7.979	7.104	6.710	6.036	5.750	5.257	5.036	4.710	4.362	4.022	3.675	3.701	3.069	3.033	3.400	3.548	3.164	2.471	1.909	1.958	1.671	1.794	1.587	1.800	1.807	1.699	1.481	1.298	1.356	1.443	2.453	8.128	26.84	56.80	169.0	170.7	17.18	0.665	0.551	0.630
580.0	69.86	74.17	73.62	54.72	44.17	44.05	46.21	55.79	110.3	97.29	62.40	62.34	122.8	1055	1017	41.37	18.33	16.85	15.74	14.05	13.03	12.18	12.66	11.78	11.53	11.51	11.88	11.36	10.91	11.36	10.74	10.26	9.911	8.956	7.613	7.621	6.933	6.767	5.899	5.717	5.272	5.146	4.795	4.143	3.920	3.917	3.292	3.330	3.159	2.567	2.520	2.524	3.148	3.061	2.280	1.794	1.772	1.573	1.635	1.505	1.397	1.593	1.782	1.405	1.216	1.190	1.179	1.371	2.665	6.926	13.52	55.85	195.4	125.3	8.486	0.780	0.617
585.0	72.31	79.48	70.83	52.23	42.51	37.12	39.87	46.84	84.51	112.8	62.54	55.85	62.90	395.7	1561	106.3	16.52	14.92	13.18	11.91	11.51	10.36	10.62	10.14	10.19	10.33	9.729	10.16	9.080	10.11	9.110	8.588	8.529	7.419	6.783	6.783	5.830	5.826	5.010	4.915	4.740	4.439	4.187	3.545	3.544	3.426	3.038	2.973	2.757	2.421	2.122	2.004	2.482	2.741	2.356	1.886	1.568	1.376	1.415	1.518	1.341	1.419	1.734	1.490	1.114	0.991	1.021	1.114	1.494	2.379	3.755	13.49	73.83	187.5	35.64	3.167	0.661
590.0	71.88	70.74	64.43	47.06	38.58	34.54	36.06	40.87	58.64	108.9	77.02	53.71	47.09	120.2	934.7	817.1	35.75	12.42	10.95	10.18	9.602	9.033	8.676	8.469	8.325	8.136	7.919	7.885	8.139	8.188	7.441	6.838	6.777	6.498	5.615	5.552	4.965	4.456	4.307	3.996	3.720	3.546	3.305	3.125	3.047	2.950	2.513	2.468	2.302	2.125	1.803	1.774	1.731	1.945	2.237	2.025	1.607	1.201	1.302	1.178	1.133	1.167	1.323	1.423	1.334	0.987	1.025	1.013	1.019	1.284	1.526	3.617	17.48	66.29	115.7	79.66	11.70
595.0	62.14	66.55	58.76	45.59	35.14	34.90	33.36	35.74	46.65	79.58	100.7	54.13	43.52	51.56	264.3	1126	250.0	11.02	9.393	8.811	7.945	7.578	6.888	6.943	6.824	6.437	6.717	6.927	6.346	6.371	6.171	5.611	5.502	5.186	4.550	4.213	4.133	3.705	3.467	2.896	3.071	2.936	2.584	2.697	2.496	2.546	2.228	2.060	1.915	1.608	1.503	1.586	1.427	1.432	1.864	2.054	1.637	1.250	1.151	1.067	0.988	1.021	1.001	1.191	1.464	1.194	0.989	0.911	0.933	0.849	0.954	1.348	4.392	15.32	31.16	97.51	103.8
600.0	61.52	62.59	51.77	41.71	32.18	31.50	31.20	34.27	41.85	61.55	105.5	61.41	42.17	36.84	80.71	731.9	672.1	19.16	7.654	7.820	7.053	6.334	5.708	6.260	5.941	5.756	5.686	5.583	5.712	5.435	5.131	4.766	4.683	4.138	4.108	3.864	3.466	3.287	3.088	2.958	2.738	2.668	2.275	2.316	2.190	2.108	1.874	1.919	1.687	1.487	1.328	1.301	1.199	1.296	1.442	1.718	1.590	1.328	1.072	1.015	0.925	0.870	1.043	0.988	1.314	1.348	1.072	0.893	0.970	0.836	0.834	0.875	1.504	3.921	7.507	31.46	114.2
605.0	65.81	68.31	55.87	40.30	32.11	34.59	31.27	37.39	41.15	54.17	98.90	79.40	44.37	34.64	37.26	280.1	994.2	70.51	7.223	6.927	6.445	5.795	5.425	5.271	5.294	4.871	4.879	4.794	4.716	4.759	4.620	4.254	4.167	3.649	3.554	3.181	3.078	2.792	2.841	2.554	2.278	2.267	2.200	2.060	1.998	1.857	1.647	1.613	1.411	1.237	1.185	1.273	1.092	1.040	1.122	1.519	1.682	1.272	1.136	0.906	0.926	0.921	0.850	0.850	0.913	1.176	1.103	0.892	0.921	0.754	0.827	0.691	0.973	1.306	2.139	7.555	41.77
610.0	59.60	60.87	54.28	39.58	33.61	33.85	32.66	38.56	44.25	54.57	78.29	99.78	54.93	38.62	31.01	82.85	645.5	488.5	17.20	5.772	5.195	4.892	4.744	4.416	4.286	3.926	4.188	4.124	3.951	4.067	3.545	3.619	3.453	3.046	3.020	2.607	2.609	2.264	2.277	2.012	1.844	1.922	1.577	1.708	1.606	1.548	1.443	1.441	1.358	1.113	1.087	1.078	1.003	0.930	0.969	1.107	1.312	1.269	1.191	0.895	0.844	0.858	0.823	0.851	0.824	0.955	1.091	1.106	0.970	0.825	0.761	0.718	0.684	0.765	1.034	2.096	9.922
615.0	52.99	58.67	60.08	39.20	34.41	29.41	33.11	38.29	42.74	51.64	62.90	94.68	69.71	38.69	29.62	33.46	190.6	759.0	76.75	5.182	4.144	4.030	4.024	3.539	3.325	3.459	3.446	3.390	3.402	3.339	2.870	2.890	2.727	2.405	2.343	2.239	2.250	1.905	1.858	1.686	1.673	1.454	1.430	1.376	1.454	1.226	1.295	1.151	1.126	0.990	1.006	0.916	0.820	0.821	0.798	0.800	0.998	1.078	1.155	0.985	0.842	0.773	0.760	0.801	0.824	0.831	0.800	0.910	0.983	0.806	0.842	0.681	0.702	0.670	0.704	0.870	2.598
620.0	54.58	57.87	50.93	35.64	30.42	26.72	33.17	35.51	42.37	50.03	56.10	79.93	80.02	41.28	29.79	23.04	58.03	538.6	415.8	8.398	4.267	3.663	3.652	3.300	3.014	3.186	2.727	3.023	2.806	2.812	2.554	2.639	2.340	2.077	2.077	1.850	1.953	1.595	1.603	1.662	1.287	1.305	1.340	1.308	1.257	1.222	1.180	1.108	1.024	0.901	0.818	0.882	0.846	0.788	0.655	0.740	0.802	0.900	1.151	1.022	0.878	0.690	0.798	0.750	0.775	0.745	0.759	0.829	0.933	0.909	0.701	0.642	0.692	0.600	0.579	0.645	0.958
625.0	59.70	58.81	49.31	39.44	30.52	25.66	31.43	37.02	41.21	49.70	54.85	68.32	86.68	44.63	29.24	20.39	25.86	219.0	677.0	41.36	3.689	3.394	3.022	2.698	2.648	2.610	2.673	2.447	2.542	2.658	2.336	2.085	2.169	1.813	1.742	1.604	1.705	1.458	1.359	1.536	1.198	1.233	1.144	1.068	1.081	0.981	0.935	0.918	0.807	0.861	0.771	0.838	0.736	0.674	0.718	0.779	0.669	0.795	0.967	0.994	0.857	0.756	0.719	0.674	0.771	0.701	0.818	0.713	0.851	0.986	0.765	0.667	0.647	0.593	0.584	0.562	0.649
630.0	56.26	53.66	47.28	35.50	30.87	28.09	31.23	35.35	39.76	45.89	50.43	58.62	76.08	54.14	29.86	20.31	18.00	62.67	487.7	323.7	8.263	2.998	2.784	2.477	2.522	2.198	2.296	2.198	2.152	2.260	2.092	1.860	1.831	1.645	1.565	1.497	1.407	1.292	1.237	1.195	1.113	1.018	0.955	1.028	0.963	0.858	0.908	0.822	0.751	0.746	0.702	0.669	0.678	0.625	0.651	0.633	0.634	0.692	0.758	0.827	0.829	0.693	0.733	0.653	0.701	0.687	0.713	0.759	0.673	0.813	0.793	0.679	0.675	0.565	0.566	0.552	0.589
635.0	49.14	54.46	39.96	36.50	29.55	26.49	28.07	31.98	37.83	46.33	49.19	54.84	61.65	66.66	34.12	20.77	16.40	22.52	147.6	564.0	56.60	2.980	2.540	2.091	2.069	2.017	1.829	1.818	1.878	1.867	1.815	1.749	1.584	1.390	1.415	1.209	1.193	1.176	1.045	1.136	0.940	0.998	0.792	0.936	0.882	0.744	0.798	0.702	0.668	0.579	0.580	0.640	0.610	0.517	0.569	0.556	0.576	0.718	0.622	0.760	0.695	0.689	0.748	0.738	0.757	0.662	0.647	0.695	0.663	0.642	0.730	0.806	0.681	0.480	0.538	0.517	0.516
640.0	48.68	61.66	47.75	34.47	31.68	28.16	29.31	31.81	35.07	45.81	49.33	56.74	54.75	66.24	40.09	22.05	17.52	13.96	40.91	444.2	261.8	4.650	2.285	2.098	1.877	1.625	1.656	1.679	1.600	1.570	1.603	1.567	1.638	1.285	1.197	1.250	1.026	1.170	1.006	0.942	0.809	0.879	0.842	0.811	0.758	0.734	0.666	0.747	0.610	0.513	0.522	0.596	0.557	0.527	0.515	0.595	0.530	0.737	0.538	0.631	0.700	0.727	0.740	0.655	0.594	0.662	0.573	0.635	0.702	0.638	0.652	0.750	0.769	0.548	0.541	0.507	0.479
645.0	50.56	57.68	52.85	39.54	30.23	27.16	28.43	32.96	35.33	42.57	46.56	53.75	52.87	57.72	46.73	23.42	18.07	13.00	15.27	196.0	473.3	22.30	2.303	2.030	1.807	1.615	1.416	1.375	1.487	1.505	1.356	1.503	1.478	1.308	1.189	1.151	0.908	1.075	0.935	0.759	0.726	0.812	0.778	0.729	0.694	0.711	0.617	0.769	0.563	0.541	0.496	0.586	0.556	0.483	0.612	0.513	0.571	0.586	0.535	0.576	0.682	0.642	0.798	0.761	0.562	0.638	0.574	0.600	0.671	0.645	0.633	0.685	0.690	0.656	0.593	0.520	0.470
650.0	59.95	63.21	58.19	38.82	29.98	26.52	28.30	31.64	36.03	41.73	47.62	51.52	49.72	51.76	52.27	25.58	18.49	12.94	9.865	59.70	488.2	66.05	2.109	1.660	1.608	1.598	1.400	1.381	1.334	1.451	1.207	1.418	1.363	1.092	1.154	0.968	0.836	0.929	0.861	0.716	0.728	0.747	0.663	0.754	0.640	0.702	0.591	0.663	0.596	0.494	0.475	0.550	0.531	0.552	0.541	0.476	0.538	0.517	0.582	0.579	0.595	0.543	0.737	0.762	0.555	0.620	0.618	0.631	0.609	0.598	0.617	0.600	0.653	0.706	0.611	0.584	0.463
