Sample:	'1
File name:	T2025042701新河东村01.FD3
Run date:	'09:17:23, 04/29/2025
Operator:	Administrator
Comment:	'

Instrument
Model:	F-2700 FL Spectrophotometer
Serial number:	23B8-004
ROM Version:	4J14000 07

Instrument parameters
Measurement type:	3-D scan
Data mode:	Fluorescence
EX  Start WL:	220.0 nm
EX  End WL:	600.0 nm
EX Sampling interval:	5.0 nm
EM  Start WL:	230.0 nm
EM  End WL:	650.0 nm
EM Sampling interval:	5.0 nm
Scan speed:	12000 nm/min
EX Slit:	5.0 nm
EM Slit:	5.0 nm
PMT Voltage:	700 V
Response:	Auto 
Corrected spectra:	Off
Contour interval:	50.000

Peak integration
Integration method:	Rectangular
Sensitivity:	1
Threshold:	1.000

Peaks
No.	ApexEX/EM(nm)	Height(Data)
1	225.0/575.0	57.56
2	225.0/585.0	56.07
3	225.0/610.0	54.84
4	225.0/625.0	57.16
5	230.0/340.0	1759
6	230.0/565.0	55.82
7	230.0/590.0	54.83
8	230.0/600.0	55.10
9	230.0/615.0	53.87
10	230.0/635.0	49.93
11	235.0/510.0	265.4
12	240.0/525.0	235.5
13	245.0/535.0	196.0
14	250.0/550.0	159.0
15	255.0/280.0	574.9
16	255.0/560.0	135.0
17	260.0/290.0	580.6
18	260.0/575.0	111.4
19	265.0/585.0	100.7
20	270.0/300.0	1175
21	270.0/600.0	104.3
22	275.0/310.0	1408
23	275.0/335.0	1587
24	275.0/615.0	99.82
25	280.0/315.0	1509
26	280.0/625.0	93.11
27	285.0/320.0	1487
28	285.0/635.0	75.61
29	315.0/355.0	443.3
30	320.0/365.0	426.0
31	325.0/370.0	393.1
32	330.0/375.0	384.2
33	335.0/380.0	367.4
34	350.0/400.0	319.4
35	410.0/480.0	58.67
36	425.0/500.0	36.48
37	440.0/520.0	21.71
38	455.0/340.0	5.562
39	455.0/540.0	12.28
40	460.0/345.0	5.515
41	505.0/275.0	3.347
42	510.0/280.0	3.318
43	520.0/285.0	3.705
44	530.0/290.0	3.827
45	540.0/295.0	5.465
46	545.0/300.0	6.631
47	550.0/305.0	7.195
48	560.0/310.0	7.923
49	565.0/340.0	8.318
50	570.0/315.0	8.445
51	580.0/320.0	8.073

Data points
	220.0	225.0	230.0	235.0	240.0	245.0	250.0	255.0	260.0	265.0	270.0	275.0	280.0	285.0	290.0	295.0	300.0	305.0	310.0	315.0	320.0	325.0	330.0	335.0	340.0	345.0	350.0	355.0	360.0	365.0	370.0	375.0	380.0	385.0	390.0	395.0	400.0	405.0	410.0	415.0	420.0	425.0	430.0	435.0	440.0	445.0	450.0	455.0	460.0	465.0	470.0	475.0	480.0	485.0	490.0	495.0	500.0	505.0	510.0	515.0	520.0	525.0	530.0	535.0	540.0	545.0	550.0	555.0	560.0	565.0	570.0	575.0	580.0	585.0	590.0	595.0	600.0
230.0	52.49	1894	5249	1858	64.90	7.792	5.480	5.042	4.415	4.512	4.433	3.746	3.566	3.146	2.915	2.465	2.196	2.328	1.987	1.949	1.541	1.404	1.241	1.221	1.325	1.265	1.002	0.968	0.847	0.801	0.902	0.752	0.787	0.694	0.598	0.605	0.576	0.493	0.466	0.467	0.445	0.504	0.510	0.419	0.372	0.421	1.688	8.781	17.06	13.82	5.862	1.149	0.315	0.243	0.275	0.214	0.206	0.213	0.231	0.197	0.166	0.178	0.135	0.148	0.127	0.109	0.112	0.097	0.128	0.108	0.098	0.097	0.078	0.072	0.071	0.071	0.066
235.0	92.08	525.8	3585	6273	2319	113.7	10.15	6.401	5.250	5.339	4.882	4.605	3.418	3.877	3.175	2.792	2.546	2.289	2.059	1.862	1.595	1.748	1.524	1.441	1.375	1.471	1.018	1.019	0.760	0.798	0.869	0.628	0.794	0.641	0.724	0.608	0.584	0.453	0.563	0.442	0.462	0.422	0.504	0.531	0.475	0.475	0.715	2.424	6.430	12.62	20.30	21.37	11.49	2.627	0.421	0.237	0.205	0.256	0.238	0.172	0.128	0.186	0.126	0.159	0.215	0.101	0.124	0.104	0.086	0.097	0.142	0.117	0.086	0.047	0.066	0.058	0.077
240.0	142.6	205.5	1080	5990	7650	514.6	53.93	8.600	7.161	6.540	5.620	5.335	4.324	4.356	3.198	2.878	2.672	2.351	2.279	1.989	1.568	1.750	1.543	1.253	1.439	1.558	1.110	0.948	0.963	0.817	0.823	0.705	0.830	0.658	0.722	0.646	0.613	0.607	0.543	0.431	0.533	0.425	0.408	0.489	0.679	0.682	0.675	0.894	1.772	3.681	10.66	27.26	28.75	22.42	9.512	1.416	0.249	0.229	0.249	0.194	0.150	0.166	0.181	0.180	0.177	0.090	0.147	0.106	0.127	0.101	0.131	0.083	0.058	0.091	0.094	0.063	0.088
245.0	118.8	211.6	308.8	2098	8398	7705	395.1	23.12	9.925	8.620	6.850	6.210	4.513	4.248	3.342	2.769	2.963	2.626	2.432	2.377	1.631	1.530	1.463	1.523	1.445	1.731	1.180	1.053	0.990	0.946	0.980	0.767	0.780	0.794	0.603	0.658	0.580	0.595	0.541	0.490	0.466	0.472	0.405	0.421	0.518	0.792	0.921	0.825	0.827	1.086	2.714	8.741	22.17	43.18	45.52	19.93	6.578	0.637	0.311	0.268	0.186	0.242	0.223	0.201	0.128	0.165	0.216	0.107	0.170	0.135	0.155	0.078	0.085	0.094	0.111	0.074	0.072
250.0	48.94	162.7	270.7	566.5	2703	8136	9999.9	1455	99.30	14.06	10.02	8.363	5.997	5.052	3.986	3.986	3.207	3.041	2.666	2.421	1.815	1.677	1.481	1.581	1.471	1.763	1.246	1.127	1.233	0.922	0.966	0.783	0.847	0.737	0.707	0.627	0.669	0.594	0.572	0.469	0.501	0.555	0.445	0.394	0.476	0.538	0.655	0.885	1.140	0.964	1.166	2.379	5.468	13.44	26.08	38.48	41.41	45.78	15.60	6.314	0.710	0.308	0.265	0.232	0.251	0.142	0.186	0.172	0.194	0.120	0.140	0.118	0.126	0.145	0.131	0.102	0.071
255.0	30.88	62.61	207.3	382.8	691.6	2061	8281	9999.9	2107	115.4	16.74	12.02	8.351	6.409	5.308	4.955	3.720	3.562	3.280	2.662	2.079	1.830	1.606	2.003	1.593	1.906	1.175	1.145	1.285	1.229	1.225	0.871	0.955	0.857	0.822	0.617	0.707	0.635	0.651	0.574	0.544	0.523	0.550	0.474	0.543	0.521	0.532	0.506	0.762	0.979	1.541	1.623	1.737	3.361	6.168	9.223	15.70	44.32	79.29	81.74	24.03	7.302	0.612	0.313	0.344	0.226	0.194	0.214	0.144	0.152	0.160	0.141	0.153	0.117	0.147	0.160	0.122
260.0	32.51	37.53	92.32	321.1	400.5	515.5	2517	9999.9	9999.9	1626	64.93	16.14	11.19	8.262	6.939	5.423	3.857	3.817	3.411	3.019	2.333	1.856	1.700	2.038	1.595	1.924	1.452	1.309	1.247	1.140	1.069	0.977	1.011	0.864	0.791	0.668	0.727	0.640	0.621	0.475	0.643	0.585	0.548	0.516	0.600	0.555	0.446	0.399	0.523	0.605	0.962	1.708	1.899	1.687	1.774	2.419	3.977	11.68	33.84	77.02	103.8	31.94	19.06	3.095	0.398	0.378	0.260	0.242	0.226	0.214	0.180	0.153	0.188	0.136	0.170	0.199	0.204
265.0	37.44	31.02	39.77	157.6	408.8	303.9	616.6	3777	9999.9	9999.9	1158	31.08	15.98	11.57	8.925	6.498	5.091	4.528	3.719	3.554	2.643	2.163	2.037	1.899	1.819	1.952	1.591	1.302	1.276	1.224	1.133	1.106	1.134	0.863	0.929	0.678	0.791	0.734	0.616	0.549	0.646	0.680	0.619	0.707	0.563	0.589	0.539	0.521	0.425	0.407	0.528	1.004	1.833	2.301	1.653	1.096	1.330	3.011	8.217	21.79	56.62	104.4	125.8	29.63	13.31	1.194	0.382	0.362	0.281	0.336	0.259	0.233	0.190	0.190	0.183	0.201	0.158
270.0	58.39	49.10	43.78	65.69	209.2	407.7	351.6	917.8	4028	9999.9	9999.9	4286	71.73	18.39	13.24	8.974	6.623	5.727	4.320	3.907	3.160	2.613	2.480	2.310	2.132	2.176	1.705	1.548	1.477	1.542	1.411	1.312	1.184	1.057	0.997	0.905	0.838	0.774	0.653	0.598	0.689	0.761	0.642	0.682	0.541	0.644	0.632	0.632	0.517	0.449	0.471	0.548	0.841	1.357	1.883	2.147	1.978	1.631	2.324	5.344	13.49	30.45	62.22	90.14	118.7	94.92	18.77	9.035	1.115	0.381	0.295	0.319	0.233	0.237	0.198	0.188	0.208
275.0	102.0	107.6	85.19	64.12	76.72	209.9	522.8	425.2	961.9	2667	9999.9	9999.9	1285	79.20	21.22	13.28	9.433	7.548	5.971	4.710	3.911	3.089	2.824	2.638	2.606	2.564	1.797	1.793	1.745	1.653	1.487	1.350	1.372	1.206	1.227	1.052	0.940	0.929	0.735	0.664	0.708	0.724	0.717	0.748	0.710	0.858	0.699	0.728	0.654	0.600	0.593	0.575	0.642	0.719	0.828	1.245	2.425	3.347	2.250	1.927	3.586	7.220	14.48	21.16	35.55	80.85	160.0	161.2	29.35	10.99	0.801	0.508	0.316	0.239	0.262	0.236	0.238
280.0	155.2	180.3	142.6	89.99	55.77	94.79	363.3	574.9	365.0	686.2	3262	9999.9	9999.9	986.4	49.47	18.11	12.09	10.21	6.944	4.966	4.583	3.792	3.174	3.222	2.903	2.841	2.151	1.850	1.890	1.685	1.865	1.395	1.588	1.371	1.232	1.058	1.189	1.010	0.865	0.640	0.889	0.911	0.764	0.935	0.857	1.008	0.934	0.843	0.749	0.714	0.679	0.617	0.571	0.593	0.604	0.731	1.234	2.447	3.318	3.049	1.786	2.217	3.838	5.474	8.631	20.35	58.93	132.1	183.2	154.5	24.02	5.153	0.708	0.400	0.406	0.304	0.292
285.0	215.8	262.5	219.2	125.5	73.11	71.81	168.0	556.9	365.1	290.5	868.7	4411	9999.9	9999.9	671.4	29.25	17.12	12.28	9.089	6.714	5.350	4.334	3.656	3.353	2.976	3.145	2.512	2.209	1.906	1.578	1.822	1.628	1.622	1.621	1.467	1.316	1.170	1.043	0.997	0.871	0.915	0.979	0.861	1.000	1.134	1.203	1.037	1.246	0.953	0.855	0.658	0.685	0.614	0.574	0.580	0.643	0.732	1.131	2.015	3.343	3.705	2.382	1.731	1.978	2.674	5.402	14.24	34.78	82.60	178.2	205.8	33.83	17.11	1.779	0.522	0.510	0.402
290.0	326.5	383.7	342.8	209.1	116.8	91.75	122.5	281.6	580.6	531.7	448.8	1232	4665	9999.9	9999.9	2754	49.75	20.15	13.33	9.534	7.063	5.499	4.551	4.066	3.405	3.586	2.721	2.335	2.402	2.080	2.077	1.848	1.708	1.722	1.495	1.328	1.355	1.239	1.124	0.988	1.060	1.047	1.081	1.170	1.309	1.478	1.360	1.513	1.358	1.274	1.126	0.947	0.812	0.727	0.731	0.730	0.795	0.920	1.144	1.626	2.653	3.748	3.827	3.112	2.255	2.498	4.512	9.136	20.00	46.75	85.67	113.9	160.4	121.9	87.66	12.47	2.481
295.0	417.7	548.1	494.5	325.5	173.8	136.1	156.7	228.2	371.8	802.3	807.7	664.6	1365	2794	9999.9	9999.9	3770	55.37	19.53	13.39	9.525	7.058	5.630	5.010	4.223	4.407	3.232	2.658	2.619	2.545	2.369	2.289	2.088	1.826	1.626	1.594	1.568	1.432	1.458	1.226	1.554	1.290	1.176	1.396	1.481	1.622	1.901	1.867	1.915	1.758	1.445	1.332	1.139	1.038	0.966	0.967	1.160	1.071	1.165	1.452	1.630	2.322	3.029	4.938	5.465	3.848	3.493	4.041	6.406	12.18	20.69	26.93	43.14	81.02	184.4	224.4	35.10
300.0	496.1	655.2	642.9	415.2	236.2	188.1	211.0	263.2	356.6	655.0	1175	845.4	760.8	955.9	3302	9999.9	9999.9	614.3	37.26	18.99	12.18	8.732	7.264	5.754	4.516	4.911	3.544	3.016	2.963	2.798	2.571	2.181	1.953	1.931	1.735	1.795	1.850	1.749	1.501	1.436	1.388	1.267	1.327	1.494	1.665	2.052	2.062	2.365	2.318	2.055	1.724	1.634	1.346	1.213	1.247	1.220	1.447	1.371	1.654	1.683	1.743	2.090	2.585	3.618	5.461	6.631	5.136	4.119	4.115	5.433	6.915	7.991	11.35	20.45	57.00	140.9	213.6
305.0	590.7	790.1	774.5	509.1	292.1	239.2	281.7	348.5	460.6	640.0	1108	1344	852.1	674.0	1053	4443	9999.9	9999.9	438.0	27.94	16.61	11.49	8.387	7.083	5.468	5.550	3.838	3.526	3.306	2.968	2.616	2.393	1.905	2.089	1.893	1.864	2.009	1.713	1.688	1.514	1.446	1.429	1.428	1.515	1.973	2.369	2.330	2.674	2.789	2.294	1.876	1.812	1.509	1.380	1.391	1.383	1.657	1.633	1.960	2.149	2.315	2.475	3.022	3.545	4.457	5.806	7.195	6.944	5.309	4.701	4.767	4.438	4.799	6.513	14.40	35.59	82.11
310.0	699.2	897.9	924.3	600.6	364.6	319.7	361.1	452.7	591.1	763.0	1036	1408	1380	862.9	676.2	1234	4644	9999.9	9999.9	2050	38.42	16.74	11.42	8.851	6.923	6.779	4.865	3.995	3.619	3.583	2.965	2.809	2.340	2.259	2.068	1.864	2.117	1.826	1.759	1.722	1.545	1.506	1.625	1.692	2.050	2.446	2.776	3.249	3.147	2.563	2.343	2.119	1.886	1.724	1.627	1.688	2.070	2.132	2.341	2.458	2.714	3.105	3.741	4.163	4.623	5.143	6.119	7.141	7.923	7.803	6.130	4.734	4.278	4.246	5.310	9.594	19.73
315.0	773.7	1047	1070	691.1	434.9	377.0	442.3	550.5	717.4	905.7	1150	1337	1509	1282	778.1	575.1	1204	2663	9999.9	9999.9	2981	41.06	16.97	12.53	9.474	8.530	5.654	4.581	4.291	3.891	3.639	2.949	2.591	2.476	2.300	2.160	2.279	1.925	1.817	1.881	1.627	1.701	1.766	1.992	2.323	2.718	3.354	3.729	3.462	2.953	2.660	2.342	2.246	2.126	1.947	1.898	2.156	2.619	2.884	2.948	3.281	3.606	4.263	4.707	5.095	5.505	6.145	6.233	7.021	7.814	8.445	7.384	5.612	4.471	3.946	4.167	6.095
320.0	857.8	1167	1225	775.6	501.3	429.9	506.5	622.1	802.4	996.4	1245	1414	1448	1487	1048	502.1	480.8	729.0	3198	9999.9	9999.9	463.0	29.13	16.64	11.94	10.16	6.469	5.323	4.784	4.434	3.906	3.113	2.700	2.744	2.574	2.219	2.252	2.031	2.075	1.873	1.810	1.812	2.005	1.981	2.607	3.229	3.354	4.066	4.069	3.370	2.803	2.673	2.460	2.083	2.228	2.103	2.426	2.687	2.952	3.214	3.538	4.108	5.091	5.047	5.977	6.073	6.673	6.477	7.091	7.334	7.419	8.040	8.073	6.115	4.533	3.414	3.289
325.0	933.9	1339	1399	889.3	558.2	480.1	540.3	660.3	874.5	1075	1333	1495	1485	1401	1294	637.4	365.0	317.7	821.6	4411	9999.9	9999.9	348.5	23.99	14.97	12.60	7.683	6.988	5.463	4.854	4.152	3.438	3.039	2.963	2.714	2.353	2.200	2.182	2.203	1.811	1.858	1.890	2.046	2.158	2.706	3.614	3.980	4.596	4.561	3.756	3.059	2.850	2.698	2.412	2.354	2.362	2.639	2.729	3.126	3.484	3.857	4.475	5.273	5.297	5.975	6.425	7.198	6.988	7.467	7.835	7.221	7.161	8.060	7.714	6.057	4.056	3.097
330.0	1010	1503	1609	1058	642.7	538.2	588.1	701.8	915.0	1135	1401	1563	1551	1361	1201	872.1	482.8	262.0	306.1	1091	4370	9999.9	9999.9	1703	33.55	18.40	10.96	8.279	6.708	5.858	4.867	3.925	3.418	3.044	2.848	2.514	2.437	2.223	2.246	1.915	1.890	2.105	2.089	2.225	2.883	3.592	4.155	5.192	4.969	4.394	3.684	3.455	2.904	2.701	2.598	2.698	2.823	3.092	3.248	3.626	4.078	4.647	5.389	5.710	6.170	7.148	7.454	7.295	7.611	8.045	7.733	7.269	7.018	6.947	6.411	5.743	4.673
335.0	1044	1581	1736	1190	741.3	602.0	642.9	736.4	946.3	1171	1417	1587	1568	1372	1130	817.8	701.2	366.1	228.7	359.6	1055	2576	9999.9	9999.9	2691	41.29	15.95	11.50	8.541	7.000	5.661	4.927	4.103	3.416	2.930	2.527	2.760	2.271	2.104	2.283	2.118	2.214	2.211	2.299	3.137	3.848	4.351	5.526	5.319	4.905	3.938	3.903	3.351	3.138	2.838	2.938	3.072	3.312	3.524	3.729	4.247	4.931	5.568	5.949	6.432	7.173	7.256	7.287	7.738	8.299	8.042	7.171	6.952	6.657	5.432	5.042	4.921
340.0	1039	1605	1759	1251	802.3	643.2	667.2	750.1	938.5	1156	1395	1551	1543	1370	1111	753.3	675.7	522.6	256.1	217.5	329.5	646.8	3122	9999.9	9999.9	408.2	26.91	14.66	10.73	8.618	6.393	5.256	4.553	3.783	3.163	2.812	2.658	2.478	2.262	2.108	2.303	2.014	2.202	2.280	3.061	3.748	4.273	5.562	5.334	4.724	4.123	4.353	3.419	3.223	2.983	3.033	3.347	3.608	3.802	3.799	4.170	4.848	5.359	5.710	6.246	6.642	7.146	7.156	7.424	8.318	7.685	6.897	6.744	6.437	5.502	4.601	4.023
345.0	1050	1567	1750	1277	844.5	673.4	672.9	754.7	923.4	1115	1345	1482	1479	1318	1090	734.5	575.0	577.3	370.4	209.0	185.1	227.6	768.5	4343	9999.9	9999.9	316.4	19.84	12.89	10.69	7.396	5.649	5.067	3.817	3.430	2.944	2.958	2.444	2.330	2.324	2.134	2.149	2.098	2.426	3.013	3.649	4.437	5.245	5.515	4.757	4.151	4.459	3.474	3.133	2.930	3.254	3.335	3.221	3.589	3.819	4.198	4.694	5.125	5.331	6.231	6.370	6.971	6.916	7.545	7.856	7.590	6.880	6.830	6.235	5.355	4.643	4.189
350.0	949.7	1404	1606	1252	875.1	705.4	684.3	745.8	884.4	1056	1248	1368	1383	1237	1032	721.2	539.6	479.9	467.8	325.7	191.3	159.4	254.4	1049	4581	9999.9	9999.9	1509	29.24	14.49	9.888	7.156	5.771	4.626	3.786	3.147	3.029	2.479	2.440	1.999	2.118	2.165	2.094	2.388	2.866	3.516	4.116	4.850	4.941	4.596	3.956	4.249	3.791	3.230	3.135	3.180	3.370	3.394	3.531	3.792	3.981	4.594	5.016	5.281	5.675	6.086	6.468	6.424	6.846	7.135	6.812	6.690	6.541	5.952	5.135	4.490	4.209
355.0	869.0	1312	1459	1186	885.0	729.0	716.7	754.9	863.1	988.6	1150	1255	1262	1143	981.3	713.2	551.7	446.8	410.6	443.3	294.6	178.5	164.6	315.9	1084	2684	9999.9	9999.9	2406	34.19	13.87	9.537	7.449	5.622	4.318	3.419	3.273	2.616	2.702	2.148	2.039	2.061	2.091	2.342	2.712	3.239	3.774	4.435	4.642	4.078	3.898	4.157	3.746	3.428	3.308	3.331	3.385	3.474	3.510	3.723	3.956	4.350	4.769	4.779	5.566	5.542	5.701	5.894	6.642	6.452	6.408	5.887	6.017	5.612	4.797	4.423	4.230
360.0	799.1	1187	1368	1159	898.4	760.9	726.5	755.7	855.2	947.4	1087	1165	1165	1069	934.3	703.0	559.7	456.6	392.8	415.5	408.4	236.9	167.9	172.6	317.7	664.6	3041	9999.9	9999.9	384.0	25.54	12.43	9.131	6.546	4.812	3.776	3.606	3.069	2.682	2.196	2.197	2.103	2.137	2.180	2.658	3.235	3.448	4.036	4.305	4.044	3.794	4.221	3.610	3.607	3.377	3.412	3.609	3.452	3.686	4.016	4.061	4.453	4.540	4.672	4.924	5.370	5.717	5.450	5.944	5.871	6.114	5.689	5.937	5.265	4.772	4.180	4.261
365.0	761.6	1080	1261	1116	894.8	780.2	743.1	757.9	829.5	911.7	1036	1094	1093	1014	888.2	689.8	565.2	476.0	409.4	381.4	426.0	339.9	201.8	158.1	162.2	220.6	737.1	4087	9999.9	9999.9	309.4	18.28	11.15	7.998	5.566	4.301	3.827	3.361	2.648	2.315	2.114	2.192	2.110	2.240	2.709	2.930	3.467	3.986	4.262	3.770	3.646	3.830	3.638	3.565	3.446	3.518	3.467	3.345	3.829	3.827	4.170	4.228	4.331	4.696	4.833	5.053	5.346	5.147	5.360	5.635	5.651	5.496	5.624	5.192	4.648	4.520	4.370
370.0	718.3	995.7	1154	1045	886.7	785.0	740.6	760.7	809.9	876.7	965.0	1016	1006	937.2	829.2	678.1	573.7	495.2	435.4	391.2	378.4	393.1	311.5	199.2	154.6	140.5	230.7	975.1	4202	9999.9	9999.9	1395	26.37	11.69	7.819	5.631	4.761	3.625	3.084	2.573	2.377	2.432	2.119	2.395	2.492	2.871	3.091	3.630	3.804	3.510	3.562	3.861	3.645	3.719	3.524	3.394	3.422	3.444	3.574	3.541	4.140	4.063	4.245	4.354	4.547	4.777	4.870	4.889	4.902	5.006	5.266	5.080	5.129	4.753	4.470	4.258	4.164
375.0	640.7	884.3	1062	992.9	883.4	796.0	766.8	757.2	798.8	837.9	901.8	932.0	927.6	859.1	780.2	648.9	575.0	512.1	461.6	419.7	378.9	353.6	384.2	299.0	187.6	148.7	138.6	283.8	987.6	2584	9999.9	9999.9	2243	29.32	10.74	7.549	5.588	4.446	3.503	3.038	2.758	2.544	2.198	2.596	2.679	2.724	2.918	3.360	3.558	3.304	3.347	3.751	3.658	3.703	3.437	3.617	3.689	3.633	3.578	3.999	4.209	3.873	3.927	4.448	4.433	4.346	4.376	4.434	4.591	4.819	4.817	4.619	4.754	4.614	4.231	4.273	4.087
380.0	593.8	858.4	1005	951.6	860.8	801.8	760.6	750.2	784.7	809.4	862.9	880.9	874.2	826.7	740.6	631.8	573.4	517.4	476.5	433.2	395.8	354.8	357.9	367.4	244.5	166.5	133.6	142.1	281.7	628.7	3033	9999.9	9999.9	325.7	20.55	9.502	6.911	5.381	4.023	3.252	2.818	2.665	2.449	2.444	2.714	2.709	2.867	3.238	3.317	3.234	3.364	3.627	3.724	3.706	3.640	3.642	3.582	3.565	3.699	3.688	3.840	3.939	4.005	4.265	4.054	4.226	4.664	4.562	4.170	4.794	4.383	4.395	4.387	4.568	4.016	4.234	4.111
385.0	566.8	788.8	920.7	914.9	860.8	783.2	759.7	746.0	780.9	790.8	836.3	837.7	826.2	781.4	710.7	616.4	568.6	521.2	487.7	445.0	404.4	367.6	343.3	364.3	319.8	203.0	150.3	127.7	137.8	197.6	729.8	3860	9999.9	9999.9	266.3	14.23	9.271	6.105	4.782	3.742	3.096	2.898	2.495	2.516	2.556	2.766	2.967	3.406	3.300	3.097	3.322	3.630	3.614	3.675	3.360	3.731	3.593	3.697	3.657	3.544	3.822	3.851	3.838	3.931	4.012	3.870	4.005	4.272	3.937	4.434	4.330	4.203	4.187	4.254	4.156	4.134	4.065
390.0	539.8	746.1	871.4	892.7	850.0	788.1	753.2	738.3	756.1	767.0	787.1	795.9	772.5	734.8	674.0	598.6	554.6	518.2	487.7	453.8	421.1	383.6	350.2	332.6	339.6	289.0	194.8	148.5	124.9	118.2	219.8	913.0	3744	9999.9	9999.9	1135	22.18	9.044	6.324	4.563	3.669	3.389	2.707	2.681	2.845	2.685	2.905	3.257	3.163	2.960	3.027	3.442	3.468	3.584	3.461	3.571	3.621	3.680	3.769	3.540	3.763	3.787	3.791	3.768	3.858	4.001	3.864	4.035	3.835	4.139	4.355	4.087	3.999	4.051	4.017	4.154	3.922
395.0	510.5	683.4	816.4	867.4	817.8	789.2	752.6	726.9	734.9	740.0	746.5	747.0	726.9	691.8	640.9	572.7	544.3	506.2	485.6	458.3	425.5	398.3	364.9	335.5	314.9	324.3	276.0	185.4	144.5	120.5	121.2	256.6	873.1	2451	9657	9999.9	2012	26.26	9.071	6.026	5.024	3.917	3.247	3.068	3.048	2.928	2.968	3.280	2.940	2.961	3.043	3.395	3.159	3.445	3.339	3.371	3.780	3.583	3.767	3.594	3.597	3.733	3.733	3.532	3.706	3.798	3.813	3.565	3.553	3.767	3.874	4.009	3.769	3.908	3.858	3.884	3.821
400.0	484.0	662.6	799.4	839.6	803.4	778.6	757.4	724.2	718.3	711.6	726.7	724.6	699.3	666.8	620.9	558.5	526.6	498.2	477.8	453.8	427.5	403.4	375.4	345.4	313.6	304.5	319.4	237.0	170.0	136.2	112.8	120.2	238.6	581.6	2645	9999.9	9999.9	1552	19.87	7.832	6.174	4.594	3.684	3.326	3.222	2.915	2.805	3.091	2.943	3.160	2.981	3.323	3.277	3.627	3.618	3.290	3.617	3.465	3.606	3.556	3.761	3.565	3.674	3.719	3.706	3.649	3.696	3.547	3.570	3.664	3.594	3.747	3.839	3.979	3.405	3.710	3.742
405.0	461.8	643.8	771.1	809.7	784.2	769.9	734.5	719.6	717.9	702.0	706.8	697.0	680.4	644.6	596.4	543.2	509.6	489.9	467.0	450.5	431.4	406.1	383.4	356.8	323.0	296.4	307.9	291.9	202.3	152.8	120.3	97.70	104.7	166.3	623.0	3141	9999.9	9999.9	255.3	13.18	6.836	5.310	4.126	3.422	3.114	3.020	2.793	2.966	2.982	2.877	3.077	3.301	3.195	3.505	3.466	3.436	3.725	3.519	3.728	3.484	3.438	3.690	3.715	3.338	3.332	3.326	3.334	3.432	3.575	3.747	3.342	3.555	3.635	3.536	3.405	3.510	3.508
410.0	431.6	624.6	739.0	774.1	761.7	752.9	731.2	717.1	698.3	689.6	687.4	674.1	645.3	619.8	571.4	526.6	495.3	471.7	453.6	439.2	420.0	399.3	383.1	359.4	332.9	302.9	285.6	291.0	263.5	188.8	137.8	104.8	83.92	82.83	172.2	730.6	3176	9999.9	9999.9	3177	20.38	7.407	5.244	4.182	3.634	3.388	2.903	3.325	3.006	2.846	2.958	3.340	3.313	3.375	3.345	3.272	3.387	3.578	3.703	3.518	3.591	3.475	3.466	3.421	3.379	3.270	3.294	3.378	3.315	3.363	3.284	3.460	3.430	3.267	3.263	3.424	3.347
415.0	432.0	587.9	698.8	739.0	746.3	733.6	704.3	703.0	685.6	667.0	662.2	643.8	615.9	583.3	544.5	495.8	473.7	450.2	436.5	421.5	403.2	390.5	376.8	356.9	337.9	309.5	284.3	270.0	272.4	241.5	162.7	116.7	89.28	71.33	76.32	192.3	730.5	2347	7130	9999.9	1883	25.67	7.609	5.411	4.506	4.029	3.162	3.245	3.062	2.739	2.997	3.347	3.289	3.240	3.254	3.243	3.565	3.535	3.562	3.346	3.634	3.384	3.601	3.453	3.326	3.299	3.185	3.355	3.061	3.314	3.290	3.197	3.230	3.162	3.246	3.222	3.162
420.0	408.6	553.6	677.0	715.4	716.3	711.4	699.3	688.2	671.6	649.7	644.2	627.2	596.7	558.7	519.3	475.1	449.6	434.6	417.7	406.2	388.0	378.1	368.7	355.2	334.9	312.4	286.5	265.4	251.9	260.0	199.3	132.1	96.94	74.85	60.75	74.98	187.8	543.5	1858	8595	9999.9	1575	19.82	6.862	5.514	4.490	3.501	3.473	3.297	2.831	2.929	3.232	3.384	3.327	3.457	3.307	3.485	3.571	3.487	3.369	3.619	3.381	3.520	3.458	3.197	3.220	3.012	2.949	3.099	3.077	3.321	3.222	3.500	2.953	3.179	2.952	3.183
425.0	385.1	523.1	637.4	691.4	704.8	708.4	686.5	679.1	656.1	648.9	635.3	605.7	568.4	534.7	500.2	457.4	434.3	415.9	401.1	388.0	376.9	364.9	358.0	346.1	328.1	309.0	286.0	265.4	241.8	242.0	227.4	152.8	105.0	79.95	61.28	53.10	70.37	142.6	433.7	2465	9999.9	9999.9	249.2	13.40	7.000	4.911	3.983	3.684	3.417	2.954	2.977	3.173	3.181	3.210	3.306	3.226	3.522	3.637	3.465	3.536	3.409	3.395	3.470	3.423	3.163	3.170	2.945	2.980	2.798	3.047	2.933	3.099	3.067	2.995	3.233	3.074	2.922
430.0	445.0	491.3	611.3	660.2	667.7	694.9	681.8	665.4	650.4	628.1	610.4	591.8	548.3	515.3	474.4	435.1	410.7	398.3	382.6	371.3	354.3	349.7	342.7	334.4	320.0	302.5	284.9	264.3	243.3	225.7	218.7	187.6	127.9	90.15	68.05	53.76	48.05	55.89	116.1	567.2	2795	8767	9999.9	3293	21.17	7.236	5.104	4.409	3.559	3.055	3.041	3.251	3.350	3.322	3.384	3.277	3.402	3.609	3.479	3.557	3.127	3.264	3.313	3.229	3.334	3.103	3.048	2.785	2.878	2.967	2.937	2.949	2.943	2.842	2.904	2.921	2.840
435.0	772.1	466.0	570.2	633.5	652.2	674.8	665.5	656.0	642.7	625.6	590.6	569.5	531.3	491.8	448.4	414.2	386.7	378.3	360.8	350.3	336.2	329.9	328.7	319.6	311.8	293.0	281.4	260.6	242.4	221.8	201.0	187.7	161.9	106.6	77.26	60.01	48.05	40.84	47.97	143.6	637.3	2023	5738	9999.9	1904	26.27	7.246	5.593	4.494	3.517	3.196	3.559	3.404	3.572	3.497	3.444	3.450	3.388	3.594	3.382	3.270	3.463	3.491	3.291	3.179	2.931	2.975	2.622	2.697	2.612	2.838	2.872	2.596	2.604	2.715	2.921	2.834
440.0	1224	588.8	546.1	608.4	638.1	634.0	653.9	647.2	635.9	613.1	584.8	557.3	514.2	470.9	435.0	396.1	376.5	361.3	346.2	332.8	322.9	315.5	315.1	309.5	300.9	288.7	272.8	259.6	240.9	222.3	195.7	175.0	168.2	130.1	85.63	65.49	51.52	40.05	35.01	51.67	157.6	465.2	1456	7832	9999.9	1605	19.17	7.081	5.028	3.994	3.588	3.595	3.393	3.424	3.555	3.526	3.545	3.407	3.575	3.501	3.238	3.555	3.098	3.176	3.111	2.964	2.944	2.750	2.691	2.642	2.828	2.707	2.627	2.697	2.639	2.721	2.800
445.0	1516	947.1	546.5	592.1	607.6	639.1	629.7	630.1	613.9	602.4	576.4	531.0	497.4	452.6	412.7	376.7	356.8	346.1	328.1	318.1	310.2	300.9	303.3	295.6	289.3	277.1	262.9	253.3	240.4	219.2	196.4	166.2	156.5	144.6	98.42	71.15	56.55	42.59	34.23	32.22	51.72	118.5	339.4	2197	9999.9	9999.9	219.9	15.17	6.094	4.322	3.804	3.868	3.447	3.660	3.602	3.583	3.415	3.280	3.577	3.327	3.393	3.416	3.271	3.244	3.049	2.831	2.771	2.945	2.760	2.566	2.593	2.649	2.333	2.820	2.540	2.655	2.629
450.0	1085	2010	761.3	558.3	572.7	593.4	598.8	600.4	589.8	571.2	547.9	504.5	472.0	424.0	385.3	350.8	333.9	321.2	306.9	296.8	285.7	283.1	279.2	276.9	268.3	260.5	250.6	240.9	229.4	214.0	190.7	162.9	141.7	134.8	117.0	82.20	60.13	46.91	37.25	30.95	30.99	42.17	89.43	504.1	2702	8083	9999.9	3342	17.86	5.971	4.605	4.285	3.771	3.603	3.508	3.409	3.589	3.337	3.308	3.215	3.400	3.307	3.107	3.054	2.895	2.843	2.612	2.654	2.577	2.564	2.432	2.473	2.332	2.551	2.331	2.397	2.606
455.0	501.6	2400	1968	528.4	532.8	552.3	570.8	564.4	562.0	535.5	510.1	465.1	439.6	399.0	356.9	327.4	302.7	289.8	277.8	267.4	260.0	254.4	253.7	249.6	244.5	241.0	233.8	226.0	214.2	202.8	181.5	156.8	133.4	118.2	112.3	98.99	69.51	50.10	40.37	32.73	27.72	26.48	34.42	124.6	613.6	1855	5007	9999.9	1572	20.52	6.441	4.998	4.084	3.848	3.659	3.350	3.412	3.132	3.385	3.019	3.220	2.921	2.825	3.191	2.771	2.721	2.561	2.468	2.489	2.438	2.309	2.341	2.431	2.360	2.137	2.134	2.166
460.0	313.6	1734	3438	762.7	508.9	522.1	533.7	534.8	534.3	501.9	491.4	442.2	411.4	371.2	336.9	300.2	282.8	271.2	257.6	247.5	239.1	234.8	233.7	233.0	231.2	223.1	218.1	211.6	200.5	190.6	173.5	150.1	129.6	113.1	101.6	101.7	79.79	53.52	41.46	35.07	28.59	23.59	23.29	40.66	148.5	425.0	1227	6497	9999.9	1269	17.46	6.054	4.802	4.215	3.895	3.716	3.501	3.471	3.384	3.084	3.118	2.779	2.832	2.671	2.760	2.636	2.601	2.521	2.437	2.371	2.298	2.255	2.350	2.357	2.022	1.950	2.049
465.0	269.5	912.0	4206	1879	471.7	485.1	497.0	511.8	492.7	475.2	467.9	426.3	384.3	348.1	311.4	276.7	260.0	252.7	239.6	230.2	221.6	218.0	218.2	217.9	212.7	207.8	201.8	196.8	190.4	180.9	165.3	144.3	124.6	108.5	92.88	90.94	85.39	60.52	44.08	36.13	29.30	24.36	21.12	22.55	45.01	105.9	285.1	1740	7850	8731	1041	15.42	5.850	4.854	4.098	4.023	3.443	3.278	3.319	2.855	3.123	3.028	2.739	2.691	2.599	2.631	2.337	2.410	2.268	2.333	2.115	1.975	2.012	2.008	1.905	1.830	1.853
470.0	249.2	448.9	2687	4365	864.8	437.9	453.0	464.2	455.7	441.8	421.6	384.8	351.1	313.0	282.9	253.9	237.2	227.2	215.5	207.2	200.0	194.5	193.8	193.7	190.3	185.9	182.2	178.7	173.1	165.6	153.1	134.5	118.5	102.3	86.69	77.40	76.65	68.36	49.40	37.33	30.40	24.71	21.24	18.95	22.21	34.76	73.21	398.4	2054	5792	7758	2824	18.82	6.430	4.766	4.207	3.607	3.464	3.390	2.862	2.998	3.007	2.610	2.575	2.458	2.444	2.241	2.145	2.239	2.072	2.075	2.028	1.949	1.982	1.799	1.703	1.955
475.0	246.2	307.1	975.8	4728	2752	437.5	412.2	416.1	410.9	394.7	381.3	354.2	322.1	282.1	250.0	229.8	211.0	204.7	191.4	183.5	175.7	172.8	169.3	171.1	170.9	165.7	160.4	159.7	156.1	149.0	137.8	121.5	108.4	94.75	80.44	70.52	63.78	63.26	58.07	39.75	30.76	25.71	21.33	18.71	17.57	18.39	25.67	97.07	464.9	1314	3372	7775	1610	24.78	5.745	4.136	3.924	3.279	3.154	2.853	2.839	2.729	2.617	2.543	2.091	2.315	2.069	1.973	1.970	1.964	1.884	1.723	1.562	1.759	1.641	1.646	1.676
480.0	237.0	281.1	457.4	3115	4898	572.6	381.5	393.0	386.2	366.7	352.7	327.3	295.4	263.7	236.9	213.2	197.1	186.5	175.7	167.3	160.5	156.9	154.1	156.7	153.9	150.2	147.0	146.1	142.9	138.9	128.1	116.7	101.7	89.33	77.88	67.58	57.99	55.16	58.67	45.86	31.70	25.84	21.73	19.22	16.88	15.15	15.22	29.91	111.0	299.7	810.8	4001	7562	1464	19.58	5.462	4.282	3.770	3.414	3.046	2.673	2.553	2.214	2.353	2.154	2.168	1.959	1.858	2.087	1.853	1.887	1.688	1.523	1.736	1.542	1.564	1.477
485.0	228.3	284.8	328.1	1402	5729	1839	359.6	363.6	358.9	347.0	337.7	306.0	272.1	247.6	217.9	198.5	183.7	173.0	164.1	155.2	148.7	145.6	144.6	145.5	143.8	141.4	136.7	134.6	133.5	130.1	119.8	110.8	97.84	84.61	74.68	65.59	56.57	50.30	52.39	50.01	35.79	26.35	21.86	19.12	16.78	14.91	13.49	15.38	32.10	73.60	188.3	1023	5318	7606	1120	15.05	4.977	4.053	3.497	3.000	2.790	2.446	2.466	2.346	2.133	2.039	2.066	1.790	1.894	1.689	1.801	1.608	1.558	1.605	1.466	1.483	1.501
490.0	178.6	284.0	286.0	549.6	3568	4591	714.3	337.6	330.8	321.1	306.9	280.1	253.3	225.9	200.5	182.4	167.2	157.9	149.1	141.7	134.6	130.9	131.4	132.7	128.9	126.8	125.0	123.5	121.7	119.1	110.9	101.5	89.85	79.45	70.46	61.06	54.13	46.96	44.49	45.58	41.65	29.76	22.97	19.71	16.58	14.73	13.11	12.24	14.88	22.73	48.18	234.6	1361	4476	6541	2769	20.01	5.591	3.977	3.419	2.920	2.548	2.533	2.300	2.171	2.011	2.053	1.645	1.727	1.621	1.555	1.431	1.350	1.545	1.331	1.392	1.349
495.0	149.9	250.2	284.3	313.2	1210	5369	2594	333.1	303.9	294.0	279.0	258.2	230.4	207.3	180.5	166.3	151.0	141.4	135.7	126.8	119.8	118.6	115.6	116.9	114.5	113.3	111.3	110.9	108.5	107.9	99.82	91.28	79.90	73.09	64.42	57.50	51.03	45.40	40.48	38.12	39.41	35.76	24.83	19.32	16.77	14.40	12.82	11.68	11.18	11.61	16.55	57.97	308.7	1012	2924	7505	1803	27.57	5.536	3.891	3.161	2.632	2.573	2.280	1.956	1.803	1.963	1.826	1.597	1.519	1.550	1.561	1.311	1.406	1.157	1.280	1.159
500.0	124.2	207.2	313.1	265.7	469.5	3599	5068	405.6	278.4	270.7	256.4	239.8	211.9	190.2	168.3	150.7	138.7	130.2	121.8	114.8	111.8	107.5	104.5	108.1	104.1	102.0	101.4	99.28	97.87	97.59	92.44	84.88	75.63	67.07	60.50	53.94	48.37	42.08	37.44	33.89	34.48	36.48	28.33	20.05	17.27	15.06	13.09	11.58	10.26	9.159	9.352	18.31	74.10	231.2	697.5	3690	7519	1628	22.57	4.848	3.580	2.839	2.672	2.319	1.830	1.754	1.747	1.612	1.532	1.380	1.404	1.400	1.280	1.292	1.259	1.299	1.248
505.0	117.6	169.2	293.5	251.9	282.5	1618	6312	1526	255.4	249.3	238.7	228.1	195.7	172.9	154.6	138.8	126.7	117.2	110.1	104.7	100.4	98.57	95.65	97.13	94.83	93.46	91.38	91.02	90.55	88.74	85.49	77.29	70.13	61.88	55.50	49.94	45.07	39.26	35.06	31.77	29.87	32.23	30.58	22.61	17.06	14.76	12.66	11.17	10.07	8.996	7.856	9.446	21.45	56.65	161.4	923.0	4750	7096	1277	15.22	4.368	3.369	2.804	2.251	2.180	1.802	1.540	1.452	1.387	1.333	1.416	1.237	1.247	1.295	1.146	1.077	1.169
510.0	98.83	147.3	233.2	265.4	219.4	555.0	4097	4225	522.4	222.9	213.3	198.7	174.5	153.1	135.1	120.2	111.2	102.7	97.01	93.60	87.78	85.64	84.66	84.07	82.57	81.18	80.54	80.33	80.44	78.46	75.07	68.67	62.49	55.90	50.28	45.69	40.73	36.04	32.24	29.27	26.58	25.88	27.38	25.68	18.60	14.64	12.59	11.36	10.05	8.431	7.648	6.885	9.384	17.04	40.61	210.5	1185	3844	5826	2293	19.92	4.617	3.018	2.419	2.151	1.849	1.609	1.468	1.480	1.283	1.259	1.191	1.151	1.172	1.054	0.969	0.984
515.0	88.88	126.1	170.5	264.9	201.4	270.7	1317	5855	2052	211.7	187.9	172.2	153.8	135.0	120.0	105.1	95.71	90.53	83.39	81.22	75.75	73.86	73.97	72.10	71.83	70.49	69.32	69.09	70.39	68.92	65.86	58.88	54.66	48.33	44.46	39.97	36.60	32.65	28.78	26.62	24.32	22.45	21.08	24.36	21.15	15.67	12.47	11.10	9.413	8.106	7.418	6.771	6.308	7.924	12.95	50.98	267.9	865.6	2248	5925	1834	27.63	4.311	2.859	2.343	1.864	1.622	1.563	1.447	1.240	1.266	1.092	1.009	1.106	0.923	0.948	1.036
520.0	70.77	109.1	139.6	229.0	220.7	187.9	438.8	4051	4950	285.4	173.1	161.1	142.6	121.0	107.6	95.96	85.31	80.51	74.67	72.29	68.82	65.38	65.67	65.03	63.25	63.51	61.83	61.46	62.20	60.79	58.49	55.13	50.00	43.88	40.52	36.63	33.04	30.02	27.03	24.98	21.68	20.27	18.87	20.08	21.71	17.12	12.44	10.06	9.086	7.807	7.082	6.523	6.029	5.390	6.663	14.87	63.44	197.0	526.2	2790	5884	1568	21.65	3.755	2.535	2.131	1.861	1.421	1.319	1.116	1.180	1.098	0.869	0.927	0.839	0.944	0.879
525.0	75.36	99.88	116.1	180.5	235.5	167.5	218.2	1747	6809	1328	157.7	147.2	130.2	112.5	96.05	86.22	79.56	74.52	69.49	65.58	61.82	59.68	59.83	57.62	56.84	56.25	54.44	55.69	54.99	54.60	52.23	48.73	44.67	40.50	36.86	33.89	30.57	27.90	24.71	22.77	20.78	19.00	17.02	16.96	19.52	18.66	13.22	10.24	8.403	7.317	6.528	6.170	5.949	5.012	5.054	6.845	17.66	47.37	121.5	684.1	3443	5535	1183	14.06	2.974	2.344	1.844	1.566	1.289	1.209	1.182	1.008	0.919	0.887	0.845	0.809	0.823
530.0	60.45	85.36	104.3	133.6	204.4	178.8	154.8	533.0	4563	4892	398.0	130.9	112.8	99.99	84.65	76.99	68.72	64.33	59.84	56.72	53.97	52.43	50.92	50.04	49.04	49.14	48.00	47.68	47.94	47.61	45.62	42.83	39.43	35.73	32.38	29.91	27.24	25.03	22.68	20.11	18.55	16.75	15.25	14.12	14.76	16.86	15.27	10.76	8.113	7.024	6.187	5.681	5.378	5.237	4.582	4.638	6.980	13.72	30.28	156.1	844.1	2866	4151	1081	19.13	3.749	2.036	1.612	1.223	1.225	1.130	0.952	0.849	0.941	0.822	0.808	0.745
535.0	57.93	71.89	88.90	108.6	158.4	196.0	128.5	212.3	1396	6652	1671	123.0	98.67	85.30	74.32	65.97	59.07	56.11	51.04	48.52	45.82	44.80	43.56	42.57	42.82	42.03	40.81	40.36	40.97	40.11	38.71	37.27	33.74	30.36	27.65	26.09	23.44	21.28	19.74	18.05	16.03	15.07	13.75	12.53	11.93	12.64	14.36	12.15	8.450	6.449	5.860	5.217	4.820	4.553	4.395	4.060	4.374	5.934	9.319	37.50	190.7	644.3	1486	4046	1754	27.39	3.033	1.843	1.597	1.158	1.204	0.927	0.816	0.895	0.747	0.799	0.663
540.0	50.81	67.98	77.48	94.61	112.0	190.7	133.4	134.3	409.4	4419	5053	195.1	92.63	76.51	67.04	57.70	51.31	49.02	44.98	42.77	40.63	39.57	38.65	37.73	37.35	37.60	36.04	35.40	36.09	35.29	34.07	31.85	29.99	26.98	24.57	23.27	21.48	18.94	17.75	16.08	14.77	13.52	12.41	11.26	10.69	10.27	11.48	12.28	9.153	6.141	5.543	4.921	4.326	4.280	4.091	4.052	3.817	3.978	4.479	10.71	44.78	146.3	343.9	1817	4121	1509	20.06	2.764	1.698	1.187	1.303	1.021	0.754	0.758	0.687	0.734	0.635
545.0	50.29	58.19	67.34	79.44	90.41	161.1	139.5	104.6	171.2	1726	7047	968.3	84.66	68.23	57.73	51.30	46.57	44.28	42.08	37.99	35.43	33.60	33.82	33.53	33.17	32.22	31.40	31.17	32.60	31.44	30.42	28.70	26.54	24.11	22.29	20.21	18.64	17.45	15.90	14.10	13.26	11.87	11.19	10.49	9.549	8.859	8.959	10.97	9.621	6.947	5.273	4.653	4.144	3.793	3.502	3.911	3.772	3.452	3.096	4.589	11.97	34.88	79.49	437.0	2224	4142	253.0	13.04	2.219	1.485	1.320	1.046	0.894	0.796	0.622	0.752	0.681
550.0	46.62	54.75	63.20	73.43	71.59	103.9	159.0	97.19	103.7	484.3	4354	4305	142.2	60.30	52.05	42.83	40.54	36.74	34.98	31.60	29.77	29.04	28.80	28.08	27.90	26.61	26.08	26.36	26.70	26.70	25.54	23.88	21.87	20.41	18.28	17.57	15.79	14.51	13.42	12.18	11.17	10.24	9.489	8.913	8.238	7.591	7.230	7.935	8.712	7.438	5.504	4.313	3.620	3.454	3.040	3.227	3.335	3.108	2.800	2.880	4.556	9.813	19.58	99.75	534.9	1930	2736	1055	19.64	2.432	1.462	1.113	0.849	0.857	0.727	0.554	0.626
555.0	40.84	51.25	58.13	56.55	57.72	69.66	133.0	116.6	76.68	164.9	1222	5967	1181	56.53	43.12	36.64	33.42	30.41	28.65	26.22	23.42	23.15	23.04	22.86	22.16	21.65	22.02	20.85	21.57	21.79	20.82	19.11	17.44	16.45	15.80	14.22	13.21	11.62	11.24	10.40	9.106	8.406	7.946	7.557	7.019	6.701	6.045	5.760	6.215	7.123	5.813	4.163	3.464	3.033	2.826	2.812	2.687	2.755	2.648	2.176	2.595	3.735	5.810	23.93	120.9	432.9	943.2	2595	1607	26.15	2.238	1.347	1.011	0.903	0.693	0.584	0.630
560.0	42.41	47.44	52.83	48.73	52.75	55.54	93.24	135.0	72.07	87.39	335.4	3810	4231	116.0	38.46	31.80	29.10	25.92	23.91	22.36	19.81	20.15	19.10	19.04	18.79	18.73	18.09	17.76	17.92	18.08	17.41	15.87	15.25	14.26	13.03	11.76	11.28	10.02	9.361	8.705	8.167	7.492	7.157	6.533	6.117	5.794	5.228	5.010	4.905	5.816	5.754	4.405	3.148	2.768	2.366	2.448	2.273	2.343	2.747	2.078	2.011	2.243	2.772	6.681	28.45	98.34	216.7	1079	2757	1164	20.88	1.789	1.018	0.781	0.639	0.496	0.430
565.0	45.92	53.29	55.82	44.95	44.10	45.57	64.61	134.7	74.79	62.52	121.9	1409	6096	694.0	35.50	28.42	25.57	22.92	20.60	19.46	18.38	16.72	16.38	15.84	15.50	15.37	15.05	15.26	15.23	15.22	14.27	13.22	12.49	11.76	10.62	10.15	9.519	8.767	7.966	7.726	7.000	6.400	6.178	5.531	5.311	4.959	4.816	4.355	4.194	4.340	4.971	4.493	3.131	2.494	2.176	2.192	2.143	2.060	2.258	2.233	1.999	1.749	1.964	2.898	7.727	23.58	49.88	254.7	1341	2546	259.4	11.52	1.230	0.940	0.626	0.578	0.534
570.0	44.00	55.95	50.51	41.51	37.31	37.26	44.97	103.4	103.9	54.61	68.19	378.4	3762	3641	84.06	24.60	21.62	18.70	17.46	16.19	15.22	13.77	13.77	13.22	13.04	12.85	12.55	12.77	12.48	12.38	11.81	10.74	10.52	9.485	8.777	8.329	7.625	7.283	6.985	6.216	6.016	5.475	5.127	4.541	4.491	4.128	3.862	3.680	3.306	3.168	3.561	3.975	3.439	2.370	1.955	1.870	1.792	1.718	1.849	1.966	2.021	1.733	1.402	1.702	2.944	6.496	12.50	58.23	316.6	1110	1669	868.2	18.18	1.667	0.828	0.660	0.568
575.0	41.77	57.56	48.86	39.51	30.89	32.84	37.38	56.68	111.4	61.37	52.28	122.7	1035	5084	861.4	24.70	18.98	15.95	15.05	13.25	12.10	10.89	11.07	10.60	10.27	10.66	9.754	10.03	9.913	9.683	9.721	8.981	8.527	7.892	7.449	6.750	6.047	6.126	5.440	4.987	4.818	4.763	3.993	3.848	3.805	3.313	3.146	3.004	2.701	2.530	2.404	2.891	3.298	2.746	1.827	1.695	1.523	1.600	1.596	1.442	1.632	1.799	1.432	1.289	1.652	2.391	3.956	14.17	71.73	248.8	521.4	1554	1122	26.09	1.271	0.653	0.715
580.0	39.59	52.25	51.37	40.54	34.73	29.65	30.11	39.85	99.48	81.46	50.47	64.22	274.7	3225	3346	67.51	17.35	14.49	13.44	11.85	10.58	10.11	9.485	9.110	8.962	8.891	8.348	8.448	8.267	8.422	8.025	7.791	7.211	6.513	6.232	5.966	5.183	5.099	4.637	4.373	4.079	3.810	3.438	3.199	3.325	2.921	2.812	2.546	2.407	2.262	1.931	2.274	2.822	2.624	2.102	1.613	1.411	1.379	1.573	1.179	1.402	1.533	1.723	1.298	1.182	1.416	1.999	4.022	17.07	56.60	119.0	594.2	1661	812.2	19.51	0.982	0.772
585.0	37.17	56.07	54.16	38.98	28.32	27.15	27.56	38.10	71.93	100.7	52.18	50.31	96.17	1167	4816	440.7	15.87	12.55	11.79	10.60	9.108	8.791	8.270	8.180	8.070	7.673	7.306	6.845	7.176	7.523	6.813	6.623	6.190	5.614	5.083	5.161	4.448	4.324	3.963	3.874	3.472	3.331	3.119	2.880	2.683	2.450	2.548	2.177	1.998	1.843	1.709	1.735	2.225	2.384	2.147	1.660	1.411	1.283	1.267	1.113	1.168	1.334	1.608	1.423	1.081	1.220	1.457	1.964	4.820	13.70	27.70	138.5	740.8	1594	255.0	11.11	0.858
590.0	41.08	51.09	54.83	36.64	26.06	25.58	27.14	33.47	47.27	99.76	71.53	49.49	55.60	306.2	2925	2466	52.99	11.69	10.33	9.001	7.982	7.600	7.028	6.883	6.547	6.346	6.015	5.980	5.932	5.951	5.866	5.258	4.900	4.663	4.302	4.141	3.635	3.589	3.442	3.149	2.880	2.751	2.670	2.442	2.437	2.198	2.119	1.908	1.813	1.575	1.579	1.388	1.513	1.736	2.101	1.788	1.343	1.145	1.015	1.009	1.033	1.080	1.289	1.314	1.172	1.057	1.100	1.240	1.859	3.854	7.059	31.82	172.4	641.9	966.8	579.2	18.94
595.0	39.34	49.99	51.97	39.45	26.14	23.15	24.18	29.59	37.61	75.87	98.70	53.15	47.56	95.77	788.2	3483	611.3	12.65	8.827	7.924	6.835	6.108	5.788	5.952	5.363	5.202	5.135	4.826	4.555	5.143	4.810	4.500	4.185	4.071	3.662	3.417	3.094	2.962	2.677	2.499	2.539	2.321	2.196	2.074	2.095	1.930	1.722	1.591	1.677	1.468	1.295	1.178	1.136	1.250	1.709	1.864	1.316	1.178	0.952	0.939	0.864	0.861	0.910	1.012	1.290	1.233	1.004	0.877	1.156	1.534	2.417	7.717	38.99	143.8	278.6	851.8	798.7
600.0	42.73	46.90	55.10	41.18	24.08	22.16	23.85	28.93	35.06	56.50	104.3	63.76	47.86	51.35	203.2	2267	2220	40.32	8.199	6.676	6.139	5.470	4.931	5.015	4.889	4.960	4.148	4.175	4.014	4.295	3.986	3.790	3.739	3.535	3.198	3.107	2.910	2.324	2.192	2.362	2.333	2.093	1.988	1.743	1.754	1.539	1.462	1.360	1.401	1.249	0.978	1.106	1.091	0.958	1.227	1.545	1.555	1.187	0.962	0.892	0.901	0.758	0.752	0.960	1.095	1.180	1.028	0.832	0.874	0.927	1.260	2.293	9.312	32.60	63.31	300.0	1055
605.0	40.57	48.93	51.79	39.08	24.99	23.52	25.08	27.12	32.38	47.80	95.10	81.19	48.38	44.41	66.33	841.5	3295	286.5	8.578	5.956	5.566	4.958	4.632	4.465	4.304	4.256	3.882	3.616	3.530	3.631	3.502	3.295	3.382	2.881	2.627	2.509	2.579	2.319	2.022	1.914	1.986	1.672	1.828	1.595	1.503	1.469	1.358	1.373	1.165	1.183	0.977	0.896	0.905	0.860	0.847	1.089	1.505	1.240	0.920	0.726	0.806	0.833	0.738	0.829	0.805	1.081	1.086	0.829	0.866	0.769	0.901	1.143	2.685	7.796	14.78	69.21	433.5
610.0	42.72	54.84	50.40	35.26	24.18	23.25	25.09	28.06	34.42	45.00	73.93	99.39	56.81	43.05	38.45	216.9	2132	1837	34.77	5.774	4.846	4.154	4.106	3.803	3.508	3.619	3.261	3.195	3.050	3.168	2.983	2.782	2.670	2.533	2.307	2.193	2.123	2.056	1.683	1.645	1.615	1.469	1.414	1.421	1.265	1.281	1.275	1.162	1.028	1.003	0.947	0.817	0.763	0.743	0.667	0.876	1.071	1.230	0.924	0.806	0.667	0.690	0.691	0.699	0.766	0.813	1.101	1.043	0.814	0.690	0.812	0.789	1.086	2.206	3.721	15.99	99.68
615.0	41.34	52.75	53.87	32.37	23.91	20.17	22.59	30.71	35.32	47.46	63.16	99.82	72.82	44.67	32.92	63.88	589.4	2808	452.5	6.395	5.032	3.948	3.789	3.279	2.863	3.082	2.830	2.515	2.573	2.675	2.570	2.352	2.104	2.218	1.905	2.210	1.869	1.630	1.442	1.275	1.312	1.332	1.277	1.222	1.031	1.142	1.040	1.049	0.868	0.885	0.774	0.679	0.742	0.634	0.532	0.639	0.791	1.010	0.951	0.798	0.659	0.651	0.656	0.635	0.577	0.771	0.665	1.020	0.870	0.692	0.711	0.644	0.658	0.942	1.213	3.932	22.55
620.0	41.42	54.03	50.64	32.87	24.73	21.80	22.25	29.45	36.86	45.52	59.08	84.39	88.36	47.00	32.87	29.15	147.7	1945	1634	18.87	4.824	3.911	3.582	2.853	2.472	2.595	2.496	2.306	2.320	2.392	2.335	2.110	1.961	1.811	1.658	1.804	1.557	1.430	1.239	1.204	1.077	1.128	1.138	0.900	1.022	1.087	1.044	0.944	0.863	0.733	0.693	0.657	0.584	0.608	0.570	0.546	0.669	0.700	0.825	0.884	0.679	0.651	0.638	0.672	0.614	0.634	0.649	0.773	0.941	0.758	0.671	0.532	0.479	0.603	0.634	1.202	5.379
625.0	32.04	57.16	48.60	32.38	24.88	21.54	22.66	28.62	36.26	47.82	57.41	70.39	93.11	53.69	33.36	20.51	43.50	756.8	2583	70.44	5.194	3.700	3.655	2.824	2.638	2.495	2.104	2.453	2.049	2.062	2.099	2.145	1.755	1.750	1.673	1.489	1.352	1.292	1.230	1.069	0.976	1.048	1.044	0.913	0.902	0.933	0.885	0.906	0.800	0.717	0.691	0.570	0.572	0.642	0.522	0.525	0.570	0.594	0.767	0.851	0.672	0.638	0.571	0.648	0.611	0.633	0.613	0.638	0.761	0.926	0.727	0.627	0.448	0.506	0.430	0.494	1.463
630.0	36.29	51.82	49.65	32.44	23.98	21.51	23.68	28.51	36.81	48.54	55.56	65.51	84.42	65.85	34.68	20.05	19.60	190.4	1803	1063	20.35	3.768	3.248	2.666	2.298	2.391	1.937	1.931	1.873	1.955	1.728	1.838	1.560	1.468	1.392	1.363	1.224	1.066	1.173	0.996	0.950	0.862	0.857	0.795	0.791	0.742	0.795	0.756	0.725	0.609	0.530	0.558	0.536	0.549	0.467	0.506	0.462	0.490	0.612	0.715	0.731	0.706	0.530	0.609	0.575	0.620	0.615	0.545	0.670	0.721	0.794	0.572	0.493	0.405	0.393	0.393	0.543
635.0	35.32	45.75	49.93	33.89	24.43	22.72	22.66	29.96	35.63	46.94	56.29	64.05	70.08	75.61	39.32	21.55	14.59	49.45	517.6	2012	289.7	4.072	2.821	2.388	2.243	2.081	1.787	1.672	1.692	1.542	1.392	1.332	1.445	1.183	1.216	1.192	1.080	0.962	0.934	0.796	0.798	0.746	0.728	0.749	0.664	0.698	0.770	0.693	0.719	0.505	0.486	0.545	0.406	0.540	0.478	0.479	0.445	0.456	0.464	0.632	0.621	0.679	0.608	0.550	0.574	0.544	0.532	0.495	0.645	0.556	0.665	0.605	0.531	0.394	0.362	0.317	0.364
640.0	34.24	42.32	47.69	38.09	23.07	23.08	24.23	30.50	33.99	44.94	55.60	60.62	63.53	72.03	46.50	21.72	14.50	17.75	128.0	1545	1043	9.574	3.073	2.407	2.426	1.793	1.701	1.525	1.484	1.419	1.420	1.270	1.423	1.277	1.238	1.338	1.058	0.840	0.897	0.803	0.676	0.763	0.712	0.565	0.641	0.805	0.663	0.592	0.590	0.507	0.495	0.508	0.397	0.487	0.438	0.384	0.408	0.457	0.381	0.510	0.522	0.639	0.520	0.533	0.453	0.520	0.587	0.508	0.530	0.595	0.623	0.688	0.535	0.482	0.296	0.297	0.295
645.0	37.85	47.39	52.65	38.11	20.73	20.80	22.03	27.96	34.72	45.67	54.78	64.18	61.39	65.96	54.56	23.18	13.48	11.07	35.13	665.7	1821	51.27	3.293	2.447	2.224	2.027	1.657	1.426	1.398	1.348	1.378	1.154	1.177	1.384	1.107	1.143	0.996	0.822	0.844	0.783	0.676	0.693	0.762	0.534	0.659	0.764	0.645	0.691	0.558	0.534	0.517	0.481	0.379	0.461	0.418	0.368	0.417	0.446	0.480	0.397	0.502	0.555	0.533	0.478	0.431	0.473	0.652	0.577	0.457	0.440	0.551	0.585	0.645	0.448	0.383	0.274	0.254
650.0	41.89	52.55	53.09	37.17	20.01	20.87	23.50	28.12	33.64	46.21	55.38	62.25	58.36	56.14	57.13	25.65	14.37	9.778	13.46	184.7	1820	404.7	4.093	2.601	2.203	1.989	1.549	1.645	1.284	1.387	1.394	1.203	1.306	1.128	1.029	1.020	0.962	0.859	0.793	0.701	0.653	0.647	0.655	0.591	0.615	0.630	0.554	0.637	0.587	0.492	0.508	0.361	0.410	0.379	0.350	0.330	0.429	0.452	0.485	0.392	0.433	0.468	0.552	0.451	0.462	0.497	0.486	0.502	0.456	0.479	0.506	0.488	0.526	0.452	0.446	0.326	0.228
