Sample:	'1
File name:	Default_20230129_094047.FD3
Run date:	'09:34:25, 01/29/2023
Operator:	user
Comment:	'

Instrument
Model:	F-2700 FL Spectrophotometer
Serial number:	2190-003
ROM Version:	4J14000 07

Instrument parameters
Measurement type:	3-D scan
Data mode:	Fluorescence
EX  Start WL:	220.0 nm
EX  End WL:	600.0 nm
EX Sampling interval:	5.0 nm
EM  Start WL:	230.0 nm
EM  End WL:	650.0 nm
EM Sampling interval:	5.0 nm
Scan speed:	12000 nm/min
EX Slit:	5.0 nm
EM Slit:	5.0 nm
PMT Voltage:	700 V
Response:	Auto 
Corrected spectra:	Off
Contour interval:	50.000

Peak integration
Integration method:	Rectangular
Sensitivity:	1
Threshold:	1.000

Peaks
No.	ApexEX/EM(nm)	Height(Data)
1	245.0/265.0	-22.30
2	250.0/270.0	54.64
3	250.0/370.0	719.0
4	250.0/545.0	-84.36
5	255.0/280.0	320.6
6	255.0/555.0	-61.59
7	270.0/295.0	 1868
8	270.0/425.0	239.1
9	270.0/445.0	250.9
10	270.0/590.0	62.97
11	275.0/300.0	 1848
12	275.0/580.0	26.90
13	275.0/605.0	42.81
14	280.0/365.0	286.9
15	280.0/400.0	244.8
16	280.0/415.0	235.9
17	280.0/425.0	231.3
18	285.0/435.0	224.0
19	285.0/625.0	-16.30
20	290.0/320.0	594.5
21	290.0/375.0	263.3
22	290.0/385.0	258.7
23	290.0/640.0	-19.86
24	295.0/395.0	259.2
25	300.0/335.0	364.4
26	305.0/340.0	393.2
27	305.0/400.0	261.4
28	310.0/345.0	348.1
29	310.0/390.0	264.4
30	320.0/360.0	310.9
31	320.0/400.0	251.8
32	325.0/365.0	317.6
33	330.0/370.0	278.7
34	335.0/380.0	281.9
35	335.0/595.0	-14.64
36	340.0/385.0	290.2
37	345.0/390.0	252.3
38	350.0/395.0	244.7
39	355.0/405.0	244.9
40	360.0/410.0	214.2
41	365.0/415.0	211.7
42	370.0/425.0	196.3
43	375.0/430.0	169.2
44	380.0/435.0	156.8
45	385.0/445.0	139.0
46	400.0/465.0	79.45
47	405.0/625.0	-8.204
48	415.0/485.0	40.55
49	420.0/490.0	32.84
50	425.0/495.0	26.69
51	430.0/505.0	19.54
52	440.0/515.0	11.47
53	445.0/525.0	8.938
54	450.0/530.0	6.107
55	455.0/535.0	4.755
56	460.0/545.0	3.071
57	465.0/550.0	1.161
58	495.0/600.0	-5.168
59	510.0/280.0	-5.403
60	540.0/295.0	-3.059
61	545.0/300.0	-2.922
62	550.0/305.0	-3.083
63	575.0/320.0	-5.090
64	580.0/325.0	-5.484

Data points
	220.0	225.0	230.0	235.0	240.0	245.0	250.0	255.0	260.0	265.0	270.0	275.0	280.0	285.0	290.0	295.0	300.0	305.0	310.0	315.0	320.0	325.0	330.0	335.0	340.0	345.0	350.0	355.0	360.0	365.0	370.0	375.0	380.0	385.0	390.0	395.0	400.0	405.0	410.0	415.0	420.0	425.0	430.0	435.0	440.0	445.0	450.0	455.0	460.0	465.0	470.0	475.0	480.0	485.0	490.0	495.0	500.0	505.0	510.0	515.0	520.0	525.0	530.0	535.0	540.0	545.0	550.0	555.0	560.0	565.0	570.0	575.0	580.0	585.0	590.0	595.0	600.0
230.0	-623.3	-462.3	197.9	266.5	-230.4	-226.4	-192.3	-169.5	-156.8	-134.0	-116.9	-102.5	-85.55	-72.59	-57.74	-48.55	-39.98	-34.48	-30.48	-27.13	-24.77	-22.32	-20.35	-18.82	-18.23	-16.74	-15.66	-15.71	-14.86	-14.72	-14.21	-13.46	-12.69	-11.82	-11.21	-9.957	-9.880	-9.667	-9.338	-8.927	-8.613	-8.949	-8.516	-8.509	-8.006	-7.690	-6.887	-6.564	-5.270	-4.421	-5.069	-6.917	-6.382	-6.833	-6.525	-6.753	-7.106	-7.193	-7.143	-6.993	-7.118	-7.058	-7.081	-7.374	-7.272	-7.319	-7.415	-7.499	-7.690	-7.597	-7.483	-7.535	-7.568	-7.482	-7.738	-8.030	-8.337
235.0	-598.6	-493.2	-161.6	823.0	673.5	-151.3	-197.0	-170.1	-151.6	-128.8	-118.1	-106.5	-91.73	-74.77	-55.46	-45.75	-41.75	-33.15	-30.34	-28.47	-24.91	-22.90	-20.28	-20.31	-17.66	-16.49	-15.86	-15.88	-15.37	-14.61	-14.46	-12.79	-12.76	-11.30	-11.33	-9.532	-9.792	-9.736	-9.358	-9.127	-9.187	-8.833	-8.544	-8.654	-8.357	-8.067	-6.987	-6.834	-6.302	-4.448	-3.633	-4.277	-5.424	-6.567	-6.918	-6.563	-7.107	-7.120	-7.190	-6.958	-6.694	-7.381	-6.965	-7.107	-7.528	-7.299	-7.534	-7.383	-7.508	-7.348	-7.159	-7.196	-7.654	-7.206	-7.896	-7.667	-7.797
240.0	-603.2	-510.0	-361.7	294.4	 1673	681.0	-153.0	-169.2	-146.6	-130.1	-120.4	-109.8	-82.26	-70.94	-55.89	-47.21	-41.21	-33.99	-30.25	-26.99	-26.00	-23.11	-22.04	-19.86	-17.44	-16.94	-16.94	-15.84	-14.80	-15.73	-13.36	-13.91	-12.25	-11.66	-11.42	-10.12	-9.638	-9.740	-8.991	-8.819	-9.372	-8.810	-9.049	-8.369	-7.870	-8.049	-7.349	-7.092	-6.228	-5.337	-4.470	-3.673	-2.412	-4.021	-5.888	-6.972	-7.132	-6.803	-6.702	-6.879	-7.006	-6.932	-7.143	-7.191	-7.209	-7.474	-7.180	-7.418	-7.644	-7.650	-7.382	-7.377	-7.219	-7.102	-7.898	-7.851	-8.179
245.0	-601.9	-496.2	-397.4	-157.2	891.6	 2129	533.7	-156.0	-150.5	-132.4	-116.3	-101.8	-84.55	-73.33	-57.35	-50.40	-40.63	-34.98	-30.93	-26.58	-24.18	-23.57	-20.76	-19.78	-17.64	-16.70	-15.96	-15.62	-14.33	-14.34	-14.12	-12.88	-13.07	-11.77	-11.52	-9.989	-9.517	-9.599	-9.357	-8.677	-8.999	-8.966	-9.078	-8.676	-8.114	-7.655	-7.066	-7.144	-6.696	-5.518	-5.246	-5.741	-4.561	-2.475	-2.053	-4.324	-7.006	-7.014	-6.598	-7.114	-6.410	-6.611	-7.615	-7.331	-6.898	-7.239	-7.462	-7.345	-7.779	-7.423	-7.526	-7.247	-7.209	-7.246	-7.971	-7.784	-8.010
250.0	-617.7	-515.0	-346.8	-253.4	19.06	 1064	 1983	 1001	24.44	-126.6	-118.7	-101.3	-84.06	-70.65	-54.43	-49.41	-39.45	-34.44	-30.32	-27.35	-23.51	-22.81	-20.71	-19.65	-17.06	-16.64	-16.05	-15.31	-15.25	-14.83	-14.21	-13.28	-13.09	-12.29	-10.37	-9.881	-10.08	-9.393	-9.328	-9.181	-8.728	-9.016	-8.903	-8.469	-8.017	-7.662	-6.563	-7.289	-6.027	-5.372	-5.404	-6.360	-6.149	-5.464	-3.929	-2.304	-1.814	-2.700	-4.428	-6.723	-6.895	-7.043	-7.502	-7.493	-7.245	-7.250	-7.162	-7.496	-7.383	-7.385	-7.364	-7.547	-7.600	-7.428	-7.702	-8.059	-8.220
255.0	-599.7	-545.9	-371.8	-174.9	-116.3	65.57	660.5	 2876	 1484	67.08	-114.5	-95.14	-82.22	-67.21	-59.16	-49.11	-38.14	-35.04	-29.30	-26.93	-24.81	-21.28	-20.46	-18.79	-17.49	-15.86	-16.18	-15.11	-15.91	-15.46	-14.06	-13.03	-12.86	-11.59	-10.94	-10.09	-10.22	-10.01	-9.354	-9.227	-8.681	-8.782	-8.655	-8.503	-8.102	-7.693	-6.721	-7.004	-6.494	-5.623	-5.478	-5.855	-6.603	-6.417	-6.040	-5.727	-5.376	-2.122	2.157	1.427	-3.773	-7.138	-7.099	-7.333	-7.046	-7.385	-7.212	-7.701	-7.590	-7.194	-7.370	-8.038	-7.359	-7.717	-7.229	-8.232	-8.021
260.0	-559.9	-536.9	-400.9	-249.0	-75.11	-114.5	25.21	 1247	 3699	 1261	-22.33	-92.46	-82.81	-69.74	-61.34	-46.65	-40.08	-35.59	-30.32	-25.19	-24.70	-23.70	-20.06	-18.95	-17.55	-16.99	-16.43	-15.58	-15.88	-15.11	-14.14	-12.58	-12.66	-11.58	-11.35	-9.937	-10.35	-10.06	-9.298	-8.821	-8.478	-8.773	-8.700	-8.656	-8.071	-7.887	-7.094	-6.997	-6.497	-5.464	-5.523	-6.113	-6.104	-6.214	-6.163	-6.427	-7.019	-5.667	-2.782	1.486	4.261	0.237	-4.687	-7.143	-7.095	-7.357	-6.886	-7.387	-7.346	-7.600	-7.324	-7.591	-7.574	-7.660	-7.504	-7.367	-8.146
265.0	-581.1	-493.9	-419.6	-301.3	-106.5	-22.30	-115.0	198.5	 1906	 4469	 1005	-55.41	-81.71	-70.16	-56.07	-44.31	-38.15	-35.83	-31.22	-23.86	-25.23	-22.63	-21.78	-19.37	-18.25	-17.40	-15.82	-15.64	-16.05	-15.06	-13.98	-13.45	-12.73	-12.12	-11.43	-9.807	-10.18	-9.755	-9.631	-9.094	-8.638	-8.502	-8.267	-8.734	-7.896	-8.005	-7.241	-6.936	-6.380	-5.746	-5.375	-6.470	-5.825	-6.162	-6.236	-6.697	-7.437	-6.904	-6.002	-4.539	-0.621	4.259	5.319	-1.534	-6.578	-7.163	-7.532	-7.498	-7.958	-7.688	-7.154	-7.507	-7.666	-7.366	-7.937	-7.518	-7.892
270.0	-594.6	-514.3	-420.3	-325.7	-218.9	-24.30	54.64	-27.27	365.1	 1959	 4371	 3031	197.8	-64.72	-53.92	-46.26	-37.97	-34.09	-28.77	-25.82	-24.54	-21.76	-21.29	-19.28	-17.98	-17.06	-15.84	-15.44	-14.82	-15.10	-14.13	-13.48	-12.87	-11.78	-11.07	-9.858	-9.665	-9.581	-9.460	-9.287	-8.529	-8.997	-8.447	-8.105	-8.173	-7.557	-6.621	-7.185	-6.065	-5.452	-5.500	-6.616	-6.088	-6.598	-6.149	-6.247	-6.805	-6.918	-6.716	-6.471	-5.491	-3.392	-0.498	3.310	3.996	2.147	-3.098	-6.626	-7.437	-7.495	-7.740	-7.583	-7.885	-7.532	-7.728	-7.962	-8.160
275.0	-638.7	-477.7	-402.5	-315.2	-263.1	-166.2	39.94	196.6	76.80	438.9	 1447	 5284	 4833	238.6	-49.09	-43.14	-37.26	-34.13	-29.94	-25.77	-22.43	-20.30	-20.92	-18.70	-17.70	-16.71	-15.84	-15.67	-15.20	-15.50	-14.01	-13.06	-13.27	-11.81	-11.35	-10.18	-10.24	-10.36	-8.981	-9.506	-9.106	-8.829	-8.358	-8.247	-8.214	-7.721	-6.702	-6.820	-6.628	-5.436	-5.470	-6.353	-6.485	-6.947	-6.885	-6.759	-6.128	-5.721	-6.147	-6.714	-6.668	-5.897	-5.528	-4.954	-2.504	3.139	11.68	9.878	-1.909	-7.154	-7.480	-7.434	-7.641	-7.978	-7.690	-7.984	-7.972
280.0	-583.7	-444.3	-357.2	-309.0	-242.8	-178.0	-54.42	320.6	312.8	305.3	624.9	 2282	 6943	 3802	63.76	-40.65	-37.57	-34.49	-28.11	-26.84	-23.12	-21.78	-19.44	-19.57	-17.76	-16.03	-15.37	-15.30	-14.96	-14.60	-13.56	-13.16	-13.01	-11.15	-10.80	-10.03	-10.13	-10.09	-9.211	-8.666	-9.246	-7.983	-8.687	-8.274	-7.708	-7.728	-7.264	-6.860	-6.008	-5.336	-5.727	-6.438	-6.171	-6.518	-6.400	-6.994	-6.511	-6.618	-5.403	-5.476	-6.363	-6.437	-6.261	-6.147	-5.543	-3.714	1.726	10.39	13.74	4.484	-5.267	-7.325	-7.613	-7.699	-7.893	-8.136	-8.074
285.0	-594.5	-444.2	-332.5	-305.1	-231.2	-161.6	-55.19	240.1	689.2	616.2	714.5	 1074	 3302	 7356	602.3	-4.565	-34.99	-31.59	-29.60	-25.35	-23.75	-21.87	-21.05	-19.09	-16.87	-16.88	-15.87	-15.62	-15.13	-15.12	-13.85	-12.97	-12.47	-11.19	-11.08	-10.23	-10.12	-9.801	-8.703	-9.040	-8.874	-8.171	-8.449	-8.184	-8.077	-7.512	-6.918	-6.857	-6.131	-5.483	-5.488	-6.581	-6.072	-6.876	-6.410	-6.553	-6.856	-7.200	-5.907	-4.872	-4.654	-5.883	-5.983	-5.950	-5.610	-5.525	-3.938	-1.339	6.277	14.63	10.84	-0.423	-6.355	-7.210	-7.755	-8.188	-7.956
290.0	-566.7	-418.3	-341.5	-279.3	-207.6	-130.5	-15.77	223.0	663.8	 1208	 1182	 1125	 1287	 2969	 5116	 2324	128.2	-29.27	-26.79	-25.68	-23.38	-21.49	-20.02	-19.29	-17.65	-16.73	-15.55	-15.62	-15.46	-14.37	-13.76	-13.37	-12.52	-11.52	-11.14	-10.14	-9.765	-9.981	-9.079	-9.245	-8.717	-8.859	-8.744	-8.164	-7.986	-7.919	-6.849	-6.994	-6.051	-5.397	-5.542	-6.265	-6.460	-6.409	-6.307	-6.319	-6.713	-6.609	-6.484	-5.536	-5.036	-4.710	-4.029	-4.526	-4.295	-4.800	-4.706	-4.358	-3.378	-0.262	3.854	8.691	8.888	4.766	-3.166	-7.102	-7.752
295.0	-547.6	-423.2	-353.8	-252.4	-180.5	-121.1	42.23	263.5	646.2	 1223	 1868	 1468	940.4	824.2	 1491	 5034	 3403	175.8	-24.05	-23.38	-21.51	-20.74	-19.87	-18.16	-18.08	-15.75	-15.04	-14.89	-15.15	-15.10	-13.05	-12.40	-11.78	-11.48	-10.62	-9.910	-10.12	-9.650	-9.062	-8.873	-9.259	-9.097	-8.621	-8.075	-8.128	-7.801	-6.658	-7.092	-6.469	-5.197	-5.612	-6.266	-6.300	-6.488	-6.471	-6.493	-6.827	-6.212	-5.751	-5.430	-4.972	-4.822	-3.906	-3.177	-3.059	-3.888	-5.026	-4.536	-5.250	-5.642	-4.398	-3.444	-1.657	7.645	16.41	10.63	-2.065
300.0	-569.7	-485.1	-343.1	-266.4	-174.2	-94.65	70.45	295.0	647.9	 1118	 1741	 1848	950.3	366.4	387.7	 1811	 6171	 2671	81.60	-23.03	-22.99	-19.99	-19.55	-18.03	-16.63	-15.11	-15.12	-14.66	-14.92	-14.13	-13.14	-12.85	-11.76	-11.22	-10.34	-10.53	-9.709	-9.338	-9.742	-8.482	-8.785	-8.846	-8.174	-8.012	-8.177	-7.724	-6.818	-7.017	-6.113	-5.225	-5.453	-6.316	-5.877	-6.215	-6.588	-6.561	-6.339	-6.080	-5.628	-5.677	-4.519	-5.091	-4.371	-3.960	-3.183	-2.922	-3.621	-4.773	-5.832	-6.503	-6.342	-6.686	-6.222	-3.390	3.429	16.18	18.58
305.0	-630.3	-435.3	-311.9	-219.8	-152.3	-72.74	70.37	301.3	622.8	 1017	 1490	 1817	 1186	319.6	159.0	455.9	 2702	 6497	 1882	11.83	-21.52	-19.17	-19.37	-18.15	-16.79	-16.29	-15.41	-15.77	-15.49	-14.39	-13.60	-13.20	-12.46	-11.31	-11.13	-9.887	-9.279	-9.807	-9.602	-9.102	-8.732	-9.085	-8.345	-8.384	-8.151	-7.829	-6.500	-7.305	-6.256	-5.137	-5.528	-5.981	-5.662	-6.182	-6.084	-6.740	-5.832	-6.332	-5.479	-5.574	-5.087	-5.432	-4.226	-4.297	-3.720	-3.213	-3.083	-4.238	-5.974	-6.492	-6.574	-7.257	-7.029	-6.369	-4.631	-0.007	9.943
310.0	-605.5	-456.6	-329.4	-227.1	-146.0	-67.39	57.47	261.7	548.9	899.7	 1215	 1337	 1181	573.5	172.8	153.7	651.0	 2625	 4947	 2615	101.9	-17.58	-18.24	-16.84	-16.37	-15.68	-15.14	-14.53	-14.71	-14.49	-13.63	-13.20	-12.46	-11.56	-10.93	-9.948	-9.589	-9.499	-9.169	-8.862	-9.192	-9.240	-8.571	-8.417	-7.884	-7.751	-6.765	-6.976	-6.267	-5.081	-5.361	-6.191	-6.148	-6.414	-6.086	-6.482	-6.395	-6.227	-5.833	-5.717	-5.600	-5.341	-4.848	-4.489	-4.220	-4.204	-4.077	-4.283	-5.053	-5.777	-6.615	-7.236	-6.797	-6.893	-6.850	-5.872	-3.308
315.0	-573.1	-453.0	-307.5	-205.0	-141.5	-70.33	33.16	251.3	424.6	722.8	972.7	974.4	793.3	705.7	394.7	111.4	186.7	605.6	 1442	 4791	 4837	135.5	-16.42	-16.40	-15.58	-15.79	-14.80	-14.37	-14.80	-13.27	-12.88	-13.24	-11.87	-11.07	-10.64	-10.04	-9.583	-9.567	-9.159	-8.675	-9.305	-8.925	-8.188	-8.491	-8.139	-8.178	-6.864	-7.012	-6.367	-5.291	-5.332	-6.073	-5.820	-6.475	-6.260	-6.592	-6.249	-6.183	-5.951	-6.017	-5.567	-5.217	-5.252	-5.005	-4.643	-4.697	-5.093	-5.824	-6.031	-5.439	-5.586	-6.259	-7.100	-7.091	-7.534	-7.905	-6.657
320.0	-600.5	-451.7	-303.4	-207.0	-119.7	-70.58	40.03	183.2	356.9	585.7	802.7	811.0	617.3	507.1	594.5	222.6	93.57	165.0	338.7	 1787	 6849	 1857	67.95	-15.58	-16.10	-16.09	-14.38	-13.94	-14.34	-13.43	-13.48	-12.81	-12.12	-11.19	-10.59	-10.36	-9.792	-9.921	-9.201	-8.790	-9.090	-9.077	-8.370	-8.378	-7.892	-7.607	-6.811	-7.065	-6.227	-5.201	-5.325	-6.414	-6.147	-6.342	-6.202	-6.572	-6.519	-6.432	-6.293	-5.817	-5.732	-5.902	-5.889	-4.990	-5.126	-5.453	-5.314	-5.739	-6.285	-6.425	-5.923	-5.090	-6.439	-6.737	-7.398	-7.727	-7.499
325.0	-664.0	-464.3	-306.5	-186.6	-94.22	-47.68	39.15	155.8	310.4	494.7	678.1	692.0	524.6	362.3	496.2	432.7	122.7	73.87	99.12	423.0	 3020	 5501	 1412	17.62	-15.18	-14.40	-15.15	-14.02	-13.91	-13.73	-13.49	-11.96	-12.43	-11.36	-9.959	-9.746	-9.930	-10.15	-9.180	-9.440	-8.764	-9.111	-8.798	-8.083	-7.842	-8.017	-6.997	-6.839	-6.011	-5.430	-5.232	-6.470	-6.165	-6.323	-5.595	-6.640	-6.473	-6.444	-6.173	-5.953	-5.589	-6.127	-5.832	-5.328	-5.547	-5.336	-5.705	-6.065	-6.056	-6.704	-5.996	-6.089	-5.484	-5.812	-6.777	-7.406	-7.405
330.0	-629.5	-447.1	-257.0	-143.9	-31.35	55.40	121.1	192.0	300.1	434.9	562.1	558.3	450.7	317.2	313.4	415.6	330.3	115.2	59.39	115.8	715.1	 2343	 4340	 2209	72.16	-11.92	-14.22	-13.96	-13.97	-14.29	-12.81	-12.47	-12.01	-11.58	-10.53	-9.626	-9.183	-9.703	-9.160	-8.897	-8.764	-8.765	-8.768	-8.067	-7.870	-8.082	-7.188	-6.591	-6.078	-5.413	-5.188	-6.188	-5.925	-6.440	-5.701	-6.318	-6.292	-6.234	-6.383	-6.414	-5.781	-5.776	-5.786	-5.675	-5.781	-5.896	-5.674	-5.888	-6.335	-6.707	-6.694	-6.453	-6.504	-6.214	-6.256	-6.774	-7.227
335.0	-540.5	-430.9	-192.7	-23.20	94.13	197.5	237.7	292.0	332.1	439.5	489.8	459.8	401.9	313.9	267.1	246.6	364.4	319.7	91.11	68.31	184.0	540.0	 1352	 4468	 3448	108.9	-11.36	-12.77	-13.18	-14.44	-13.11	-11.64	-12.30	-11.29	-11.03	-10.38	-9.371	-10.12	-9.317	-8.773	-8.355	-8.892	-9.209	-7.915	-7.888	-7.807	-6.813	-6.769	-6.250	-5.300	-5.392	-6.257	-5.680	-5.865	-5.677	-5.913	-6.312	-5.490	-6.640	-6.143	-6.281	-6.541	-6.303	-5.881	-6.485	-6.480	-5.763	-6.343	-6.693	-6.892	-6.443	-6.486	-6.989	-6.842	-7.176	-6.763	-6.467
340.0	-591.8	-392.5	-177.3	33.55	198.6	318.7	372.1	346.6	380.5	430.3	426.9	409.4	370.8	309.7	254.6	206.3	243.2	393.2	218.5	70.58	75.45	144.0	316.7	 1748	 5328	 1461	61.42	-11.67	-12.48	-12.23	-12.87	-11.86	-11.46	-11.54	-11.07	-10.15	-9.417	-9.403	-9.031	-9.021	-8.983	-8.554	-8.868	-8.189	-8.071	-7.896	-6.812	-6.570	-5.962	-5.442	-5.038	-5.651	-5.480	-6.254	-5.439	-5.284	-5.828	-5.514	-5.919	-5.897	-6.570	-6.084	-6.172	-5.965	-5.948	-6.251	-6.459	-6.394	-6.686	-6.371	-6.903	-6.726	-6.821	-6.727	-7.429	-7.314	-6.765
345.0	-595.5	-421.3	-133.2	102.9	309.1	392.1	464.1	419.8	403.6	423.3	408.5	396.2	342.6	309.2	261.8	208.1	188.6	285.4	348.1	129.1	66.09	64.97	93.48	418.9	 2547	 5083	 1161	15.86	-11.85	-12.40	-12.25	-12.89	-11.89	-10.85	-11.08	-9.345	-9.690	-10.09	-9.015	-8.783	-9.265	-8.546	-9.027	-8.569	-7.884	-8.000	-6.889	-6.213	-5.716	-4.900	-4.628	-5.663	-5.638	-5.366	-5.184	-5.193	-5.642	-5.598	-5.934	-5.845	-6.202	-6.281	-6.301	-6.105	-5.877	-6.210	-6.156	-6.438	-6.677	-6.417	-7.066	-6.621	-6.915	-6.460	-7.322	-7.406	-7.225
350.0	-565.6	-426.2	-116.2	169.5	412.2	525.2	576.3	507.3	451.4	427.7	375.0	332.6	312.6	297.7	263.8	215.9	188.2	198.1	286.8	285.6	139.3	66.86	57.55	118.2	616.4	 2295	 3941	 2049	63.73	-10.90	-12.67	-11.76	-11.67	-10.98	-10.47	-9.882	-9.592	-9.614	-9.118	-8.711	-8.490	-8.579	-8.772	-8.292	-8.054	-7.968	-6.701	-6.336	-5.594	-4.426	-4.629	-5.661	-4.939	-5.548	-5.133	-5.126	-5.397	-5.686	-5.326	-5.659	-5.611	-5.682	-6.021	-6.053	-6.286	-6.304	-6.418	-6.430	-6.567	-6.594	-6.628	-6.760	-6.687	-6.638	-7.212	-7.217	-7.475
355.0	-567.2	-406.5	-135.7	214.9	478.6	622.8	669.3	570.5	471.4	423.9	334.1	298.6	286.9	277.1	263.2	229.4	200.8	194.0	205.7	260.1	281.2	120.9	73.80	68.63	165.6	530.2	 1283	 4281	 2999	90.56	-10.50	-10.38	-10.82	-11.29	-9.907	-9.266	-9.700	-9.326	-8.410	-8.759	-8.734	-8.476	-9.015	-8.162	-7.655	-7.423	-6.339	-6.368	-5.601	-4.658	-4.288	-4.982	-4.855	-5.343	-4.880	-5.027	-5.316	-5.412	-5.139	-6.000	-5.652	-5.892	-5.455	-5.618	-5.826	-6.516	-6.366	-6.181	-6.792	-6.206	-6.545	-6.683	-6.662	-6.599	-6.956	-6.884	-7.436
360.0	-569.4	-404.6	-89.98	244.7	506.9	679.0	695.9	577.8	521.6	434.7	356.7	292.7	281.7	265.8	264.5	234.5	210.5	202.2	188.4	206.4	310.9	229.2	99.56	71.83	76.26	145.8	306.3	 1782	 4914	 1251	46.71	-9.758	-10.56	-10.96	-9.929	-9.363	-9.327	-8.975	-8.536	-8.867	-8.580	-8.614	-8.570	-8.161	-7.538	-7.576	-6.642	-6.623	-5.623	-4.913	-4.431	-5.278	-5.236	-4.656	-4.708	-4.907	-5.867	-5.149	-5.340	-6.100	-5.478	-5.761	-5.812	-6.107	-5.921	-6.326	-6.254	-6.478	-6.759	-6.560	-6.664	-6.070	-6.295	-6.738	-7.277	-7.178	-7.798
365.0	-599.4	-408.7	-106.8	236.5	514.1	702.3	698.1	611.4	518.3	438.3	330.9	271.5	286.9	262.5	259.6	237.5	233.8	213.6	204.8	191.2	248.5	317.6	172.8	91.32	70.22	70.73	93.38	431.7	 2478	 4707	996.7	9.082	-10.15	-10.72	-9.821	-9.231	-9.209	-8.521	-8.807	-8.983	-8.105	-8.418	-8.388	-7.897	-7.481	-7.912	-7.030	-6.503	-5.599	-4.814	-4.242	-5.239	-4.778	-5.017	-4.799	-5.026	-5.632	-5.422	-5.447	-6.063	-5.330	-5.097	-5.626	-5.898	-5.997	-6.335	-6.448	-6.752	-6.831	-6.857	-6.781	-6.581	-6.831	-6.794	-7.186	-7.516	-7.089
370.0	-580.0	-398.5	-151.0	195.2	475.2	705.9	719.0	603.5	491.4	419.4	315.2	277.8	269.4	262.7	255.5	250.8	236.2	229.1	214.1	208.9	208.6	256.5	278.7	164.4	91.64	70.19	59.35	120.6	603.5	 2243	 3830	 1802	47.64	-9.137	-9.568	-8.788	-9.035	-8.904	-8.670	-8.687	-8.418	-8.588	-8.722	-7.973	-7.642	-7.663	-7.036	-6.674	-5.630	-4.707	-4.526	-5.335	-4.756	-5.011	-4.542	-5.085	-5.205	-5.262	-5.585	-5.942	-6.010	-5.387	-6.123	-6.090	-6.720	-6.665	-6.306	-6.589	-6.742	-6.758	-6.723	-6.787	-6.447	-6.520	-7.109	-7.117	-7.200
375.0	-629.7	-409.5	-138.5	189.3	473.1	637.0	673.1	551.0	494.7	379.0	306.1	261.2	251.6	248.2	263.3	260.5	248.6	240.9	234.6	223.5	217.9	208.0	249.6	281.8	151.4	92.51	68.07	65.86	160.1	515.7	 1347	 4145	 1121	63.20	-7.597	-9.461	-9.087	-9.058	-8.899	-9.082	-8.097	-8.184	-8.157	-7.858	-7.650	-8.058	-6.915	-6.264	-5.706	-4.597	-4.704	-4.848	-5.254	-4.768	-4.852	-4.752	-4.939	-5.457	-5.847	-6.023	-6.111	-5.596	-6.096	-6.305	-6.808	-6.777	-5.981	-6.411	-6.312	-7.252	-6.804	-6.718	-6.236	-6.630	-6.775	-7.253	-6.782
380.0	-570.7	-417.2	-165.4	162.2	447.5	573.5	651.5	520.3	450.4	374.1	293.1	248.8	252.2	252.7	254.5	259.8	251.2	243.7	243.4	231.5	236.0	210.1	215.9	281.9	241.1	120.1	83.35	63.61	69.28	136.9	319.7	 1871	 4226	974.3	27.82	-7.829	-7.770	-8.896	-8.448	-8.275	-8.333	-8.250	-8.322	-8.239	-7.649	-7.970	-7.224	-6.439	-5.431	-4.706	-4.406	-4.788	-4.960	-5.040	-4.472	-5.023	-5.454	-5.704	-6.004	-5.992	-6.161	-5.483	-6.241	-6.343	-6.797	-6.362	-6.725	-6.544	-6.557	-6.771	-6.568	-6.427	-6.676	-6.832	-7.141	-7.208	-6.998
385.0	-575.6	-400.1	-180.6	131.4	416.6	550.1	589.5	496.3	400.2	371.2	276.3	249.9	251.7	244.6	258.7	249.9	248.5	246.2	252.9	240.8	241.6	213.9	202.5	232.1	290.2	182.6	98.98	75.65	59.81	60.27	89.74	461.6	 2463	 4008	720.0	0.104	-7.875	-8.341	-8.288	-8.450	-8.865	-8.145	-8.052	-8.533	-8.179	-7.930	-6.621	-6.425	-5.343	-4.903	-4.987	-5.052	-5.153	-5.453	-5.113	-5.293	-5.328	-5.768	-6.197	-5.698	-5.761	-5.947	-6.190	-6.448	-6.247	-6.534	-6.359	-6.874	-7.199	-6.795	-7.017	-6.369	-6.874	-6.679	-7.149	-7.533	-7.194
390.0	-608.7	-406.5	-180.6	103.0	335.5	493.3	516.3	456.9	378.2	334.4	265.7	237.2	242.8	245.4	257.2	254.4	254.6	255.1	264.4	250.7	247.0	225.4	216.0	207.7	237.4	252.3	157.9	95.61	71.79	55.53	47.65	121.3	611.5	 2102	 3268	 1283	34.33	-7.618	-7.831	-8.162	-8.339	-8.575	-8.476	-8.412	-7.642	-7.655	-6.601	-6.505	-5.741	-4.920	-4.781	-5.207	-4.897	-5.804	-4.929	-5.520	-5.619	-5.625	-5.717	-6.270	-6.219	-6.059	-5.948	-6.367	-6.336	-6.680	-6.470	-6.409	-6.634	-7.046	-6.706	-6.332	-6.672	-6.737	-7.043	-7.240	-7.163
395.0	-613.9	-426.8	-197.6	92.81	299.2	402.0	479.0	392.9	345.4	325.3	262.6	225.5	234.2	240.3	253.7	259.2	252.4	258.4	263.0	254.4	247.5	231.8	218.1	208.2	201.9	227.7	244.7	149.1	92.06	69.76	51.22	55.54	151.5	481.4	 1309	 3404	870.1	44.61	-6.591	-8.126	-8.018	-8.293	-8.195	-8.161	-7.469	-7.341	-6.480	-6.600	-5.642	-4.585	-4.806	-5.387	-5.228	-5.662	-5.520	-5.458	-5.970	-5.543	-6.040	-5.974	-6.231	-5.761	-6.086	-6.363	-6.751	-6.743	-6.541	-6.607	-6.689	-6.453	-6.477	-6.842	-6.824	-7.010	-6.995	-7.722	-6.738
400.0	-599.6	-408.7	-171.8	21.98	248.9	360.9	396.3	358.1	314.3	291.1	258.0	216.2	244.8	232.3	242.9	251.2	243.5	261.4	252.0	247.3	251.8	240.7	221.0	209.6	198.5	197.4	237.3	214.6	121.4	82.47	60.13	46.33	56.34	121.4	313.4	 1700	 3298	752.2	15.78	-7.906	-7.875	-8.128	-8.099	-8.536	-7.512	-7.571	-6.176	-6.585	-6.015	-4.695	-4.812	-5.414	-5.180	-5.499	-5.110	-5.690	-5.629	-5.835	-5.791	-5.939	-6.184	-5.980	-6.492	-6.521	-6.552	-6.380	-6.532	-6.710	-6.691	-6.682	-6.745	-6.673	-6.453	-6.298	-6.698	-7.467	-7.307
405.0	-575.9	-439.0	-205.6	8.427	209.8	361.8	371.9	353.1	302.0	283.1	257.4	208.8	227.6	242.2	242.2	236.8	245.4	242.3	252.1	242.0	251.1	239.9	233.3	219.0	199.1	190.4	204.3	244.9	164.6	98.65	73.32	53.00	41.86	44.68	80.11	427.4	 2057	 3042	537.4	-3.114	-7.353	-7.827	-7.792	-8.395	-7.422	-7.112	-6.493	-6.526	-6.093	-4.692	-4.756	-5.683	-5.865	-5.799	-5.535	-6.074	-5.962	-5.813	-5.715	-6.286	-6.372	-6.318	-6.330	-6.201	-6.238	-6.460	-6.501	-6.452	-6.753	-6.268	-6.791	-6.691	-7.029	-6.850	-6.358	-6.795	-7.400
410.0	-602.8	-455.6	-231.8	2.163	174.2	297.4	292.6	309.2	284.4	257.1	236.0	218.9	233.4	238.1	237.2	240.2	237.4	240.6	240.4	238.2	242.3	234.3	229.6	218.5	209.0	195.1	186.3	201.7	214.2	148.4	92.77	68.00	47.58	36.93	35.25	104.4	516.6	 1689	 2418	952.8	25.31	-7.234	-7.858	-8.022	-7.212	-7.016	-6.556	-6.378	-5.904	-5.093	-4.728	-5.659	-5.501	-6.056	-5.511	-5.809	-6.102	-6.041	-5.968	-6.171	-6.200	-6.276	-6.124	-6.497	-6.526	-6.599	-6.317	-6.320	-6.636	-6.701	-6.812	-6.956	-6.826	-6.997	-6.982	-7.050	-7.184
415.0	-568.7	-458.2	-246.4	-45.69	167.8	214.6	259.5	257.3	265.7	232.0	232.3	232.6	235.9	234.7	223.7	224.2	221.9	229.5	229.1	227.1	233.5	229.4	229.6	217.8	205.6	200.8	189.8	177.1	190.1	211.7	135.8	82.35	60.08	40.14	31.90	37.88	122.5	381.7	996.9	 2587	745.2	33.53	-6.900	-7.862	-7.531	-7.144	-7.200	-6.777	-5.947	-4.880	-5.026	-6.019	-5.592	-5.519	-5.139	-5.957	-6.300	-6.247	-6.250	-6.193	-6.220	-6.024	-6.414	-6.779	-6.902	-7.020	-6.682	-6.390	-6.109	-6.879	-6.970	-6.928	-7.051	-6.641	-7.140	-7.347	-7.118
420.0	-583.1	-456.4	-247.9	-72.14	123.9	217.4	209.8	247.3	250.3	240.8	231.9	231.6	225.1	229.7	222.5	214.5	219.0	218.8	216.8	209.7	224.9	220.5	219.0	215.7	206.1	199.9	189.2	172.3	167.7	201.0	172.7	101.2	68.56	49.87	34.61	27.05	35.82	88.90	236.7	 1365	 2508	606.2	5.190	-7.412	-7.540	-7.392	-6.786	-6.524	-5.663	-5.053	-5.099	-6.105	-5.753	-5.995	-5.610	-5.419	-6.375	-6.229	-6.093	-6.000	-6.013	-6.227	-6.268	-6.410	-6.837	-6.910	-7.107	-6.823	-6.540	-6.661	-6.717	-6.397	-6.683	-6.723	-6.844	-7.339	-7.163
425.0	-559.1	-458.1	-261.6	-69.25	70.58	165.9	204.6	225.6	244.3	224.2	239.1	225.2	231.3	221.8	221.9	215.9	209.5	205.0	210.3	207.3	211.7	215.2	209.4	215.9	201.9	203.1	188.8	175.3	161.5	176.4	196.3	139.5	80.77	56.57	40.89	27.94	22.12	27.28	56.80	345.9	 1637	 2272	88.70	-4.524	-6.831	-6.989	-6.633	-6.885	-5.488	-4.946	-4.975	-5.616	-5.658	-5.618	-5.515	-5.416	-6.412	-6.361	-6.215	-6.504	-5.790	-6.207	-6.457	-6.862	-6.494	-7.006	-6.900	-6.474	-6.732	-7.009	-6.556	-6.880	-6.672	-6.723	-6.740	-7.567	-7.345
430.0	-584.4	-476.9	-268.7	-73.76	62.31	132.6	170.4	212.1	236.5	227.1	228.0	227.0	221.1	220.1	207.5	212.7	197.6	199.2	198.3	200.2	202.6	202.9	205.2	206.5	200.8	202.5	190.3	178.8	169.9	165.2	166.8	169.2	116.2	69.84	47.93	34.08	23.97	16.43	19.06	79.93	413.1	 1314	 1765	402.7	21.17	-6.828	-6.112	-6.266	-5.560	-4.946	-4.922	-5.623	-5.780	-5.845	-5.537	-5.791	-6.391	-6.201	-5.822	-6.283	-6.250	-6.286	-6.379	-6.593	-6.311	-6.799	-6.418	-6.672	-7.034	-7.051	-6.832	-7.017	-6.836	-6.743	-6.860	-7.436	-6.917
435.0	-578.3	-449.8	-306.6	-82.45	17.52	110.0	158.8	191.6	228.8	218.0	219.3	222.7	217.6	224.0	214.9	193.0	193.7	190.2	186.3	198.2	192.9	198.7	196.2	208.1	200.0	197.7	193.6	185.1	179.2	166.4	151.7	152.5	156.8	97.68	59.25	41.21	31.43	19.10	13.95	22.42	92.94	295.2	812.0	 2030	659.0	25.08	-5.678	-6.351	-5.726	-4.870	-4.887	-5.857	-5.860	-5.790	-5.820	-6.238	-6.130	-6.621	-5.848	-6.029	-6.302	-5.739	-6.535	-6.873	-6.338	-6.767	-6.713	-6.841	-6.987	-7.472	-6.491	-7.077	-7.119	-6.605	-6.939	-6.961	-7.005
440.0	-579.8	-454.5	-285.3	-120.0	6.349	105.3	170.7	184.1	221.7	208.6	225.4	235.9	223.4	213.6	205.3	194.6	191.7	183.1	180.7	181.4	185.8	187.8	192.0	199.9	193.1	194.5	188.3	185.8	180.9	164.7	148.1	139.6	151.3	127.6	75.52	47.38	34.40	23.01	16.19	12.08	24.15	67.17	193.2	 1144	 2265	513.7	3.584	-6.183	-5.415	-4.721	-4.840	-6.169	-5.626	-5.702	-6.279	-6.160	-6.453	-6.026	-5.936	-6.063	-6.263	-6.345	-6.615	-6.754	-6.341	-6.440	-6.661	-6.422	-6.696	-6.891	-6.443	-6.743	-7.115	-6.111	-6.902	-7.080	-6.985
445.0	-578.2	-431.1	-299.2	-124.2	11.04	107.3	171.4	169.2	198.8	219.6	250.9	236.0	210.0	203.9	198.0	182.4	186.2	166.0	172.4	167.9	172.9	179.3	180.2	189.0	190.7	188.7	188.2	180.5	180.5	166.9	155.0	134.3	131.4	139.0	97.94	54.25	38.79	24.77	19.35	12.00	11.85	17.35	43.14	292.7	 1550	 1995	71.21	-3.719	-5.340	-4.688	-4.987	-5.875	-5.691	-6.271	-6.270	-6.212	-6.414	-6.585	-6.199	-6.357	-6.678	-6.089	-6.681	-6.639	-6.726	-6.760	-6.719	-6.890	-6.929	-6.670	-6.808	-6.448	-6.781	-6.339	-6.892	-6.977	-7.521
450.0	-582.7	-381.9	-242.9	-143.7	-9.199	90.45	128.0	156.6	194.4	217.9	236.3	228.4	199.9	193.9	184.5	173.4	171.4	159.0	159.0	159.3	166.4	163.6	169.1	176.8	178.6	179.3	175.5	177.0	173.3	166.1	149.8	132.8	118.2	116.6	112.1	77.35	46.96	30.49	22.98	14.86	11.40	9.235	11.41	64.97	394.4	 1226	 1643	340.1	16.88	-4.176	-4.861	-5.921	-5.606	-6.153	-5.696	-6.051	-6.316	-6.416	-6.483	-6.059	-6.082	-6.494	-6.593	-6.254	-6.683	-6.762	-6.550	-6.907	-6.785	-6.866	-6.816	-6.716	-6.976	-6.980	-7.095	-7.181	-7.709
455.0	-552.0	-353.0	-82.15	-127.6	-8.722	58.61	101.9	157.4	177.2	194.4	212.9	209.9	187.2	192.4	164.6	156.3	147.9	147.3	145.7	143.9	148.1	153.3	150.0	160.8	160.0	170.0	165.6	164.6	162.2	158.7	147.9	129.6	112.6	100.5	95.77	96.32	59.33	34.64	26.40	16.92	13.51	8.336	4.960	15.67	86.71	275.4	751.4	 1817	512.7	17.37	-4.334	-5.922	-5.437	-6.105	-5.881	-5.942	-6.308	-6.186	-6.530	-6.564	-6.269	-6.577	-6.735	-6.365	-6.497	-6.623	-6.555	-6.866	-6.705	-6.674	-6.932	-7.033	-6.692	-7.098	-7.123	-7.180	-7.436
460.0	-592.4	-450.4	12.32	-61.54	-60.14	21.87	88.67	128.8	165.4	163.7	191.8	191.8	173.9	168.9	150.1	150.5	136.3	133.6	135.8	134.8	137.8	138.8	138.9	144.7	154.9	158.0	155.4	154.6	154.9	147.9	141.4	124.6	110.4	92.57	84.13	93.15	78.22	43.01	28.72	19.28	14.78	8.229	4.775	5.606	18.96	60.24	177.5	 1045	 1786	363.3	3.533	-5.975	-5.425	-6.006	-5.822	-5.807	-6.721	-6.600	-6.679	-6.626	-6.288	-6.897	-6.811	-6.556	-7.004	-6.770	-6.383	-6.564	-7.178	-6.850	-7.089	-7.034	-6.793	-6.735	-6.995	-7.184	-7.671
465.0	-576.9	-485.9	-26.94	182.1	-52.56	3.555	71.47	99.20	158.4	163.4	167.8	185.6	175.7	156.0	138.1	140.8	127.8	120.3	127.5	124.5	122.5	126.5	129.8	135.0	139.9	140.0	143.1	141.3	143.9	138.9	133.1	121.7	102.7	89.94	77.24	77.21	79.45	56.56	30.49	19.52	14.79	10.18	5.785	3.697	5.556	12.33	37.75	267.8	 1278	 1524	57.51	-4.312	-5.328	-5.788	-5.752	-5.725	-6.495	-6.529	-6.318	-6.295	-6.351	-6.987	-6.636	-7.025	-7.043	-6.396	-6.348	-6.709	-6.394	-7.027	-6.816	-7.009	-7.037	-7.002	-7.441	-6.938	-7.577
470.0	-559.4	-471.9	-210.0	442.6	154.2	4.335	46.98	76.64	122.5	131.8	143.8	153.6	149.0	134.2	126.1	121.0	113.3	104.9	105.3	106.1	109.7	113.6	115.8	115.6	122.3	124.2	128.0	130.2	126.7	126.4	121.4	114.3	95.82	84.42	70.43	62.47	64.10	62.61	40.86	23.58	16.25	11.43	7.032	4.064	2.686	2.756	8.004	58.11	325.7	992.1	 1150	308.3	12.10	-5.854	-5.586	-6.250	-6.153	-6.235	-6.468	-6.681	-6.143	-6.743	-6.541	-6.970	-6.963	-6.698	-6.421	-6.838	-6.863	-6.957	-7.284	-6.899	-7.006	-6.772	-7.382	-7.297	-7.788
475.0	-624.2	-467.4	-312.9	248.4	631.6	25.61	26.08	57.31	78.19	106.5	120.8	134.9	124.1	121.5	111.2	102.1	97.77	92.48	92.52	96.86	93.39	102.1	95.59	103.4	107.6	111.0	113.3	113.9	115.4	113.0	113.4	99.68	89.05	76.63	64.20	54.28	50.07	50.12	48.73	28.97	17.07	12.50	6.778	4.140	2.494	0.939	0.294	11.22	70.88	221.8	532.1	 1211	424.6	12.17	-5.647	-6.290	-6.346	-6.577	-6.402	-6.634	-6.336	-7.297	-6.800	-6.712	-6.474	-7.156	-6.763	-6.801	-6.370	-6.905	-6.849	-7.145	-6.973	-6.789	-7.238	-7.525	-7.854
480.0	-589.9	-505.4	-336.4	-61.01	909.2	210.7	3.324	26.93	70.16	106.5	110.8	112.4	116.0	101.7	93.45	83.68	82.32	84.45	83.70	82.66	83.09	87.24	88.40	93.06	100.4	100.1	100.2	105.1	106.1	101.8	101.2	92.30	84.94	72.43	61.42	53.81	44.62	40.38	46.74	38.75	20.64	12.41	7.531	5.873	2.656	1.037	-0.409	1.619	14.13	47.84	125.7	677.7	 1221	325.7	-2.372	-5.276	-6.072	-6.775	-6.598	-6.601	-6.576	-7.070	-6.842	-6.291	-6.700	-7.065	-6.781	-7.330	-6.714	-6.749	-7.104	-7.381	-6.663	-7.072	-7.572	-7.493	-7.984
485.0	-633.9	-506.5	-363.1	-174.7	645.1	671.1	-5.435	23.86	65.54	79.13	79.84	101.2	101.1	94.73	86.98	73.38	74.66	69.44	73.66	72.80	76.26	76.62	80.33	86.21	89.19	91.55	95.45	96.66	95.06	96.23	94.38	89.05	79.70	67.94	59.04	51.15	40.97	36.31	38.56	40.55	27.73	13.21	7.597	5.038	3.316	0.970	-0.709	-0.453	1.827	8.434	26.16	172.7	864.7	 1113	58.18	-4.840	-6.062	-6.356	-6.122	-6.629	-6.696	-7.172	-7.069	-6.737	-6.909	-7.272	-7.285	-7.306	-6.774	-6.927	-7.188	-6.835	-7.161	-7.285	-7.386	-7.466	-7.918
490.0	-619.7	-500.8	-365.0	-228.5	111.3	984.6	309.1	14.48	39.78	62.05	66.68	82.63	81.93	84.02	70.23	70.70	67.20	62.16	64.36	63.66	67.26	68.75	70.57	76.59	78.47	81.75	83.02	86.86	85.37	87.16	83.72	77.53	72.71	61.87	52.77	45.07	37.94	33.14	29.67	31.33	32.84	19.27	9.622	5.586	3.017	1.140	-0.312	-0.609	-0.556	0.544	4.125	35.45	217.9	681.0	781.3	297.5	10.97	-6.376	-6.600	-6.079	-6.583	-6.684	-6.801	-6.933	-6.743	-6.872	-6.961	-6.987	-7.192	-7.114	-7.034	-7.259	-7.204	-7.020	-7.482	-7.653	-7.624
495.0	-644.2	-496.9	-353.8	-242.1	-107.4	506.1	961.6	46.29	8.992	26.04	58.05	60.25	64.69	69.78	61.61	57.91	54.52	54.13	53.68	53.87	57.66	54.87	59.84	63.48	67.63	67.51	70.95	75.60	75.03	76.49	71.82	68.62	59.50	56.31	46.48	40.75	35.15	28.69	23.54	22.23	26.34	26.69	14.83	6.415	3.799	1.665	1.138	-1.201	-1.273	-0.826	-0.530	4.765	45.29	149.8	406.6	 1104	444.2	9.017	-6.337	-6.183	-6.461	-6.659	-6.956	-6.968	-6.847	-6.968	-7.209	-7.302	-6.811	-7.364	-7.050	-7.350	-7.465	-7.014	-7.136	-7.926	-7.383
500.0	-618.0	-503.1	-359.3	-236.8	-177.8	115.2	 1092	375.0	5.413	21.28	54.60	52.59	59.33	52.24	51.56	50.37	43.02	43.31	48.07	46.80	48.13	50.12	51.17	55.38	58.43	59.64	61.58	63.91	68.13	66.85	67.19	62.24	54.52	49.70	42.33	37.54	32.80	27.04	21.68	19.12	19.00	24.16	18.19	9.147	3.059	1.899	0.953	-0.447	-0.931	-1.144	-2.230	-1.682	7.307	29.88	93.15	614.6	 1156	74.03	-2.272	-5.983	-6.579	-6.564	-6.711	-6.903	-7.217	-7.170	-7.115	-6.865	-7.141	-6.810	-7.211	-7.257	-7.870	-7.436	-7.100	-7.037	-7.815
505.0	-628.4	-507.3	-353.3	-208.3	-164.5	-56.66	717.1	881.5	1.583	4.767	40.26	44.50	42.14	50.39	46.15	42.58	37.31	35.40	40.31	37.32	40.81	45.26	45.62	50.42	52.65	53.41	54.12	54.99	57.27	58.04	59.81	56.63	47.63	44.53	38.42	34.62	29.36	24.30	20.64	17.58	14.42	17.00	19.54	12.17	3.487	1.538	0.671	-0.995	-0.707	-0.917	-1.972	-3.218	-1.489	3.186	17.18	153.4	801.6	974.7	60.14	-5.522	-5.984	-6.108	-6.675	-6.815	-6.532	-6.858	-7.163	-6.724	-7.392	-7.071	-7.008	-7.186	-7.473	-7.722	-7.029	-7.114	-8.244
510.0	-608.4	-512.8	-381.7	-227.6	-171.5	-103.9	165.7	 1088	419.1	-0.918	11.49	21.30	38.45	28.60	28.72	31.54	27.72	26.44	26.64	30.36	33.00	34.33	36.03	40.21	41.24	43.75	46.14	46.94	48.60	48.80	50.46	45.24	41.10	37.99	32.01	29.21	24.85	20.90	17.45	14.36	12.24	11.09	14.41	14.31	7.554	1.865	0.636	-0.659	-1.056	-0.962	-1.656	-3.281	-3.297	-2.923	0.427	30.09	200.8	606.3	710.6	267.8	7.664	-6.188	-6.620	-7.006	-6.740	-7.135	-6.954	-6.918	-7.171	-7.196	-7.338	-7.195	-7.019	-7.658	-7.069	-7.618	-8.014
515.0	-569.6	-517.3	-398.1	-275.9	-129.7	-133.9	-33.41	471.5	 1139	80.88	-11.07	14.76	14.21	14.90	18.79	16.84	14.55	25.14	19.32	20.52	25.36	27.21	27.84	32.35	32.79	33.27	37.51	38.96	41.37	39.52	41.73	37.92	33.82	31.37	26.26	23.64	20.92	16.43	13.83	11.57	9.970	6.754	7.227	10.63	11.47	4.349	0.421	-0.881	-0.737	-1.521	-2.307	-2.882	-4.039	-4.745	-3.859	2.699	40.11	131.3	339.3	879.6	367.4	4.113	-6.397	-6.849	-6.899	-7.224	-6.946	-6.927	-7.105	-7.486	-6.962	-7.510	-7.264	-7.590	-7.441	-7.769	-7.726
520.0	-589.0	-515.9	-391.4	-284.3	-124.0	-143.3	-87.56	83.96	 1187	466.2	-15.74	8.159	6.238	9.303	11.71	11.39	13.92	14.13	16.81	16.09	20.84	21.34	24.73	27.41	27.71	26.96	32.46	32.84	34.34	35.04	34.15	34.34	29.60	25.63	22.20	20.50	18.42	14.04	12.18	9.439	7.483	5.294	4.679	5.637	9.739	8.242	1.261	-1.146	-1.258	-1.598	-2.122	-3.859	-3.787	-5.023	-4.516	-2.904	4.543	24.65	77.30	487.2	852.8	70.73	-4.088	-6.690	-6.782	-6.986	-7.185	-7.137	-6.940	-7.784	-7.222	-7.431	-7.579	-7.226	-7.525	-7.922	-7.870
525.0	-600.8	-491.2	-383.3	-279.4	-142.2	-116.8	-110.0	-45.13	716.9	 1082	-2.157	-9.779	-4.006	-6.219	5.988	6.257	6.080	9.712	11.36	13.75	11.86	17.88	19.24	22.69	21.30	25.01	25.65	27.32	28.19	29.46	28.71	28.51	25.24	23.95	19.74	15.89	16.20	12.34	10.83	9.019	7.025	4.110	3.251	2.975	6.735	8.938	4.403	-1.401	-1.683	-1.712	-2.499	-3.868	-4.153	-4.515	-4.737	-4.878	-3.917	1.226	12.70	120.3	573.5	620.2	53.85	-6.216	-6.976	-6.959	-7.227	-7.267	-7.312	-7.257	-7.360	-7.435	-7.457	-6.770	-7.934	-7.968	-7.707
530.0	-586.4	-503.9	-395.8	-287.8	-178.0	-126.1	-113.4	-83.73	160.1	 1165	508.2	-25.92	-17.97	-12.76	-3.921	-0.106	-1.536	4.624	5.519	7.003	8.031	13.16	12.99	16.72	16.55	17.98	17.92	21.88	21.07	23.26	22.31	22.66	19.88	19.65	15.31	13.80	11.87	9.931	8.215	7.226	4.809	2.822	1.692	0.731	2.019	5.437	6.107	1.548	-1.759	-1.747	-2.392	-3.995	-4.235	-4.880	-4.677	-5.504	-5.430	-4.321	-1.849	21.85	141.3	410.7	542.3	194.7	1.494	-6.837	-7.012	-7.003	-7.229	-7.217	-6.927	-7.469	-7.307	-7.237	-7.734	-7.956	-8.021
535.0	-601.9	-505.7	-397.5	-298.6	-199.5	-128.4	-91.18	-105.4	-43.88	422.7	 1291	90.51	-30.19	-19.85	-7.667	-6.533	-5.470	-0.623	-0.915	4.219	5.431	8.092	7.015	7.949	9.766	11.85	11.75	14.58	14.98	16.10	17.08	18.30	14.05	13.30	11.53	11.54	9.652	7.702	5.605	4.064	2.806	2.111	-0.007	-0.580	-0.116	0.803	4.058	4.755	-0.204	-1.559	-2.839	-4.432	-4.694	-4.849	-4.623	-5.220	-5.870	-5.276	-5.642	0.123	26.67	87.30	248.4	596.7	73.05	-1.855	-7.128	-7.076	-6.953	-7.352	-7.403	-7.263	-7.283	-7.521	-7.571	-8.127	-7.837
540.0	-610.4	-488.6	-390.3	-294.9	-237.5	-151.2	-91.01	-110.0	-82.15	50.05	 1291	592.1	-33.38	-24.84	-16.72	-14.33	-10.17	-7.967	-5.181	-0.031	1.535	3.114	6.246	4.747	6.961	9.461	9.162	10.43	10.99	11.32	12.79	13.68	10.94	8.980	10.31	8.562	8.999	5.209	4.643	2.074	1.910	0.624	-0.224	-1.291	-1.478	-0.959	0.525	3.710	2.252	-1.268	-2.539	-4.403	-4.691	-4.761	-4.619	-5.327	-5.452	-5.448	-5.782	-5.024	0.795	14.31	54.13	321.1	535.4	62.23	-5.929	-7.021	-7.134	-7.298	-6.595	-7.620	-7.550	-7.907	-7.566	-7.436	-8.103
545.0	-609.7	-509.8	-396.3	-325.8	-236.3	-179.4	-84.36	-96.11	-95.26	-50.77	632.3	 1141	5.634	-28.87	-27.21	-19.15	-11.25	-11.96	-8.247	-0.870	0.403	-0.370	0.107	2.897	5.008	7.406	7.885	7.288	8.959	8.525	9.388	9.389	8.321	7.409	6.514	6.264	6.109	4.614	2.968	1.633	1.383	-0.806	-1.565	-2.088	-2.646	-2.577	-1.342	1.809	3.071	0.210	-2.388	-4.582	-4.726	-4.802	-4.746	-5.243	-5.056	-5.628	-5.665	-6.352	-4.662	-1.887	7.357	76.01	390.8	444.9	42.89	-7.010	-7.234	-7.121	-7.030	-7.532	-7.307	-7.916	-7.765	-7.883	-8.067
550.0	-600.0	-517.7	-404.4	-308.5	-243.2	-195.0	-110.8	-80.70	-99.07	-73.41	128.5	 1116	530.9	-29.14	-26.98	-23.63	-17.23	-14.02	-8.441	-6.563	-5.330	-4.219	-3.000	-0.215	0.407	3.798	3.145	3.558	4.396	6.291	4.791	5.350	5.203	5.197	2.937	3.810	3.064	1.633	0.468	0.189	-0.649	-1.577	-2.445	-2.367	-3.322	-3.478	-2.385	-1.838	0.643	1.161	-1.591	-4.461	-5.028	-4.966	-5.351	-5.621	-5.729	-5.577	-5.960	-6.547	-6.097	-5.667	-3.241	11.50	94.75	280.5	355.5	121.6	-1.924	-7.329	-7.263	-7.492	-7.385	-7.531	-7.743	-8.044	-7.909
555.0	-598.5	-495.1	-396.1	-313.5	-240.0	-208.8	-141.9	-61.59	-87.14	-72.51	-20.26	355.6	 1239	95.04	-35.59	-25.19	-22.06	-16.83	-14.87	-10.79	-9.659	-7.526	-5.127	-4.331	-3.073	-1.236	-0.548	0.164	1.136	1.354	0.760	1.366	1.384	0.796	0.060	1.592	-0.073	-0.891	0.307	-1.496	-2.503	-3.478	-3.342	-3.886	-3.941	-4.030	-3.480	-3.815	-2.313	0.099	-0.480	-3.666	-5.201	-5.381	-5.244	-5.838	-6.086	-5.853	-6.066	-6.118	-6.472	-6.729	-6.046	-3.065	15.70	57.78	158.9	380.1	68.70	-4.148	-7.480	-7.204	-7.602	-7.269	-7.153	-8.196	-8.150
560.0	-576.1	-519.9	-413.1	-322.6	-248.3	-211.7	-158.2	-86.45	-59.01	-60.91	-30.29	70.48	 1067	517.4	-36.90	-29.63	-24.20	-20.21	-16.58	-13.28	-14.91	-11.65	-8.400	-7.327	-3.509	-4.801	-1.855	-2.370	-1.049	-1.076	-0.665	-1.207	-1.949	-1.317	-0.857	-1.043	-1.936	-2.446	-2.092	-3.398	-3.233	-4.359	-4.214	-4.946	-3.986	-3.757	-3.919	-4.226	-3.521	-1.666	-0.563	-3.098	-5.126	-5.855	-5.694	-6.149	-6.349	-6.453	-6.462	-6.251	-6.725	-6.720	-6.909	-5.984	-1.415	7.697	33.04	207.9	322.1	52.29	-6.793	-7.049	-7.517	-7.143	-7.493	-8.082	-8.330
565.0	-593.2	-512.4	-396.0	-308.9	-240.9	-218.8	-151.8	-112.6	-35.16	-50.99	-11.76	5.085	521.8	 1073	-2.471	-32.86	-24.72	-23.97	-18.94	-16.22	-12.62	-12.65	-10.27	-9.133	-6.145	-7.235	-6.417	-5.113	-3.442	-4.123	-2.831	-3.422	-3.685	-2.573	-1.972	-2.326	-3.545	-3.360	-4.114	-4.098	-3.906	-4.168	-4.976	-4.891	-4.178	-4.386	-4.491	-4.782	-4.162	-2.679	-1.697	-2.637	-4.373	-5.559	-5.282	-6.373	-6.375	-6.232	-6.546	-6.312	-6.429	-6.763	-6.879	-6.721	-5.303	-3.629	2.184	49.07	239.2	276.3	25.34	-6.961	-7.601	-7.387	-7.855	-7.773	-8.226
570.0	-610.9	-499.9	-403.1	-324.6	-252.2	-198.5	-158.3	-126.5	-29.40	-12.82	-6.317	7.322	126.4	907.4	405.2	-33.21	-29.23	-24.80	-21.96	-19.88	-15.45	-13.89	-12.12	-10.09	-9.312	-7.859	-6.891	-6.960	-6.063	-5.996	-5.361	-5.235	-5.135	-4.433	-4.268	-3.334	-4.908	-4.718	-4.992	-4.861	-5.079	-5.664	-5.676	-5.426	-5.158	-5.727	-4.689	-5.362	-4.802	-3.824	-3.264	-3.686	-3.849	-5.587	-5.454	-6.150	-6.598	-6.503	-6.297	-6.240	-6.563	-6.594	-6.861	-6.533	-6.141	-5.940	-5.013	5.585	57.53	182.7	196.0	37.64	-5.184	-7.404	-7.722	-7.894	-8.069
575.0	-567.5	-514.3	-403.6	-336.0	-250.4	-194.4	-168.6	-123.0	-61.73	21.83	27.47	13.45	30.31	272.8	982.4	66.38	-29.52	-27.21	-24.27	-18.53	-17.92	-15.35	-13.78	-12.84	-11.75	-11.31	-9.606	-9.989	-8.191	-7.307	-7.491	-7.302	-6.926	-5.731	-5.594	-4.715	-5.919	-6.178	-5.569	-5.913	-5.866	-6.137	-6.167	-6.072	-6.269	-5.815	-5.053	-5.465	-5.309	-4.300	-4.303	-4.595	-3.973	-4.941	-5.424	-6.367	-6.876	-6.477	-6.432	-6.517	-6.421	-6.522	-6.610	-6.413	-6.721	-6.953	-6.717	-3.841	7.375	35.51	94.16	207.8	52.84	-6.390	-7.399	-8.001	-7.614
580.0	-606.9	-510.8	-426.9	-296.9	-251.0	-209.3	-171.5	-109.4	-71.69	23.05	24.31	26.90	2.353	32.23	829.0	405.3	-31.00	-28.52	-24.54	-20.09	-18.73	-15.36	-15.74	-14.10	-12.91	-11.95	-10.28	-10.07	-9.515	-8.803	-8.667	-8.546	-6.947	-7.371	-6.264	-5.973	-6.776	-5.864	-5.593	-5.647	-5.303	-7.003	-6.592	-6.658	-6.007	-6.183	-5.828	-5.969	-5.431	-4.573	-4.663	-5.508	-4.340	-4.690	-5.042	-6.477	-6.468	-6.800	-6.636	-6.315	-6.400	-6.624	-6.401	-6.591	-6.812	-6.790	-7.327	-6.312	-4.054	2.261	17.18	123.0	182.1	30.12	-7.433	-7.973	-8.036
585.0	-616.6	-515.3	-410.0	-313.5	-259.0	-207.7	-176.9	-128.4	-76.62	22.27	41.84	18.18	1.702	-29.62	355.7	796.7	-5.144	-27.98	-23.63	-23.99	-19.89	-17.73	-15.45	-15.56	-13.23	-14.00	-12.10	-10.38	-10.66	-9.610	-9.355	-8.481	-7.636	-8.736	-7.715	-6.098	-6.526	-6.778	-6.642	-6.611	-6.354	-6.790	-7.049	-7.237	-6.227	-6.320	-5.549	-5.672	-5.662	-4.446	-4.767	-6.153	-5.153	-5.073	-4.973	-6.132	-6.338	-6.975	-6.565	-6.649	-6.388	-6.695	-6.391	-6.611	-6.972	-7.096	-7.215	-6.995	-6.394	-5.232	-1.866	26.94	139.2	143.4	9.607	-7.531	-7.989
590.0	-614.8	-516.3	-406.3	-311.7	-254.1	-208.0	-173.4	-133.5	-88.99	-11.43	62.97	15.57	-3.518	-40.75	60.23	660.8	279.8	-27.35	-25.18	-23.78	-20.77	-18.96	-16.32	-15.76	-14.84	-13.72	-12.86	-12.05	-11.42	-10.69	-10.15	-9.977	-8.530	-8.562	-8.248	-7.540	-7.797	-7.130	-7.476	-7.548	-7.388	-7.194	-7.195	-7.098	-7.076	-6.415	-6.017	-5.958	-5.603	-4.690	-5.046	-6.085	-5.962	-5.625	-5.219	-5.703	-6.503	-6.844	-6.874	-6.909	-6.781	-6.845	-6.969	-7.088	-6.912	-6.911	-7.174	-7.185	-6.968	-6.614	-6.063	0.240	31.60	99.40	98.66	26.16	-6.795
595.0	-609.1	-533.8	-388.2	-309.9	-261.9	-215.2	-175.4	-134.5	-91.31	-37.01	34.20	29.84	-12.38	-45.50	-24.60	188.8	650.2	39.16	-28.04	-23.44	-20.94	-19.47	-17.21	-14.64	-16.03	-13.33	-14.35	-13.66	-11.80	-11.99	-10.91	-10.72	-9.339	-9.665	-9.115	-8.212	-8.801	-8.650	-7.800	-7.408	-7.163	-7.535	-7.445	-7.451	-6.703	-7.031	-6.077	-6.019	-5.885	-5.036	-5.037	-5.889	-6.025	-6.282	-5.659	-5.635	-5.751	-6.284	-6.586	-6.913	-6.897	-6.937	-6.975	-7.424	-6.891	-6.593	-7.122	-6.585	-6.903	-7.049	-7.164	-5.487	1.309	16.83	52.28	117.9	34.11
600.0	-603.8	-527.3	-418.6	-330.0	-248.8	-215.3	-181.6	-146.2	-85.73	-58.54	20.97	39.83	-16.24	-43.88	-43.55	14.00	543.4	258.7	-28.63	-24.58	-21.26	-20.47	-17.80	-16.23	-16.59	-13.66	-14.52	-13.29	-11.86	-12.24	-11.81	-11.31	-10.38	-10.50	-9.144	-9.111	-8.241	-8.744	-8.517	-7.114	-7.646	-8.202	-7.477	-7.135	-7.220	-7.220	-6.211	-6.448	-6.090	-4.883	-5.172	-6.351	-6.097	-6.383	-6.111	-5.168	-6.139	-6.712	-6.623	-6.838	-6.683	-6.980	-6.934	-6.721	-6.926	-7.037	-6.662	-7.007	-7.245	-7.320	-7.554	-6.912	-5.223	-1.503	7.376	71.62	114.0
605.0	-603.2	-515.7	-402.4	-331.2	-255.8	-213.9	-179.1	-149.2	-98.19	-58.85	-4.134	42.81	-9.956	-45.04	-44.40	-26.20	241.0	536.7	-13.29	-23.14	-21.72	-20.27	-19.01	-16.19	-16.95	-14.80	-14.16	-12.75	-12.98	-13.25	-12.22	-11.45	-10.46	-10.21	-9.984	-9.320	-8.463	-8.806	-9.068	-7.091	-7.877	-8.076	-8.104	-7.266	-7.428	-6.985	-6.406	-6.720	-6.142	-5.174	-5.461	-6.231	-6.301	-6.472	-6.627	-6.019	-6.240	-6.397	-6.372	-6.755	-6.751	-6.737	-6.862	-7.221	-6.943	-6.918	-7.122	-7.516	-7.326	-7.670	-7.389	-7.214	-7.049	-6.157	-4.045	13.40	90.15
610.0	-616.6	-494.6	-398.7	-330.6	-264.7	-215.1	-181.0	-138.7	-102.9	-65.61	-24.33	8.250	6.326	-43.58	-46.28	-36.35	35.29	447.9	192.9	-23.13	-22.13	-20.71	-19.25	-17.13	-16.05	-14.50	-15.00	-13.80	-13.01	-13.62	-12.47	-11.61	-11.36	-10.30	-10.11	-9.145	-8.728	-8.723	-8.742	-8.143	-7.946	-8.299	-8.207	-7.992	-7.625	-7.295	-6.502	-6.849	-5.940	-5.263	-5.510	-6.441	-6.207	-6.645	-6.395	-6.560	-6.378	-6.437	-6.268	-6.745	-6.976	-6.846	-7.186	-7.257	-7.120	-6.738	-7.259	-7.333	-7.477	-7.806	-7.287	-7.204	-7.254	-7.103	-6.867	-3.420	18.55
615.0	-604.4	-506.4	-403.2	-329.2	-271.1	-206.2	-189.4	-139.5	-111.8	-78.14	-40.46	-10.29	1.825	-40.59	-45.16	-39.42	-18.24	124.0	489.8	19.65	-22.95	-21.89	-18.25	-18.83	-16.82	-15.11	-14.62	-13.30	-13.67	-13.51	-13.18	-12.26	-10.89	-10.38	-10.33	-9.793	-9.774	-8.883	-8.486	-8.530	-7.945	-8.155	-8.882	-7.723	-7.818	-7.617	-6.295	-7.033	-6.152	-5.244	-5.423	-6.759	-6.462	-6.394	-6.471	-6.424	-6.411	-6.560	-6.489	-6.607	-7.262	-7.056	-6.977	-7.118	-7.260	-7.347	-7.402	-7.234	-7.333	-7.801	-7.285	-7.291	-7.656	-7.459	-7.426	-6.981	-2.392
620.0	-592.0	-527.3	-425.7	-321.6	-251.2	-226.5	-181.6	-145.9	-119.0	-81.19	-50.83	-31.20	-9.581	-22.77	-44.46	-38.27	-32.78	5.460	416.4	182.1	-22.30	-21.50	-19.22	-17.57	-17.50	-16.12	-14.52	-14.61	-13.67	-13.39	-13.67	-12.26	-12.38	-10.75	-9.977	-10.04	-10.12	-9.492	-9.095	-8.327	-8.371	-7.869	-8.320	-8.037	-7.714	-7.676	-6.758	-7.016	-6.136	-5.296	-5.306	-6.319	-6.448	-6.851	-6.375	-6.769	-7.276	-6.510	-6.384	-6.668	-7.300	-6.917	-7.349	-7.276	-7.252	-6.741	-7.288	-7.303	-7.525	-7.352	-7.743	-7.431	-7.493	-7.235	-7.530	-7.687	-7.000
625.0	-571.8	-504.5	-405.1	-314.0	-253.5	-217.3	-171.1	-152.1	-116.2	-86.91	-60.62	-38.64	-31.56	-16.30	-45.12	-40.57	-36.10	-22.93	188.6	404.0	-13.49	-19.09	-20.05	-18.91	-17.50	-16.37	-15.21	-14.30	-14.57	-13.46	-13.60	-12.13	-12.21	-11.06	-10.08	-9.918	-9.808	-8.204	-9.425	-8.926	-8.869	-8.343	-9.035	-8.238	-7.840	-7.593	-6.750	-6.959	-5.774	-5.512	-5.605	-6.566	-6.658	-6.688	-6.240	-7.005	-6.906	-7.033	-6.949	-6.634	-7.455	-6.913	-7.017	-6.834	-7.086	-6.852	-7.200	-7.761	-7.112	-7.186	-7.472	-7.302	-7.265	-7.402	-7.524	-7.868	-8.009
630.0	-603.2	-502.3	-408.4	-327.3	-252.9	-224.9	-184.1	-155.7	-120.3	-93.35	-67.63	-49.25	-41.29	-26.84	-35.62	-40.44	-36.13	-28.77	27.11	365.3	147.0	-20.25	-20.97	-18.67	-17.13	-16.50	-15.17	-14.83	-14.33	-13.72	-13.08	-12.31	-12.10	-10.84	-10.58	-9.520	-9.771	-9.001	-9.074	-9.470	-8.632	-8.509	-8.678	-8.384	-8.089	-7.762	-6.564	-7.134	-6.266	-5.268	-5.553	-6.420	-6.443	-6.691	-6.379	-6.860	-6.842	-6.856	-7.161	-6.696	-7.046	-6.796	-6.827	-6.907	-7.119	-7.168	-6.942	-7.157	-7.296	-7.358	-7.490	-7.281	-7.435	-7.351	-7.750	-8.163	-8.163
635.0	-612.2	-507.1	-413.1	-332.5	-257.2	-218.9	-189.0	-159.5	-134.5	-96.40	-75.33	-52.57	-48.41	-37.40	-22.97	-39.26	-33.83	-30.30	-17.57	105.6	370.0	12.26	-20.63	-18.92	-17.64	-15.67	-14.67	-14.67	-14.62	-13.71	-13.98	-13.06	-11.93	-10.86	-10.93	-9.392	-9.473	-9.459	-9.494	-9.240	-9.410	-7.924	-8.190	-8.174	-8.067	-7.886	-6.560	-6.929	-6.085	-5.486	-5.622	-6.813	-6.403	-6.845	-6.537	-7.328	-6.598	-7.377	-7.253	-6.895	-6.425	-6.914	-7.198	-7.183	-7.535	-7.433	-7.203	-7.243	-7.491	-7.157	-7.416	-7.483	-7.417	-7.116	-7.466	-8.263	-8.008
640.0	-598.2	-532.4	-413.4	-318.3	-251.5	-226.6	-189.6	-157.7	-129.6	-104.3	-73.83	-57.89	-45.17	-43.54	-19.86	-36.08	-35.79	-32.54	-24.32	7.125	329.2	142.1	-19.71	-19.58	-17.74	-17.64	-14.98	-14.71	-15.15	-13.28	-13.92	-13.15	-12.05	-11.23	-10.55	-9.758	-9.057	-8.830	-9.578	-9.402	-8.996	-8.482	-8.539	-7.742	-7.843	-7.697	-7.206	-6.868	-6.287	-5.220	-5.480	-6.707	-6.691	-6.440	-6.429	-7.154	-6.788	-7.206	-7.076	-6.832	-6.849	-6.924	-7.350	-7.199	-7.300	-7.045	-7.423	-7.443	-7.222	-7.162	-7.284	-7.569	-6.950	-7.321	-7.697	-7.717	-8.200
645.0	-595.1	-525.9	-411.4	-332.3	-250.2	-228.2	-191.0	-166.3	-134.3	-101.9	-82.42	-66.07	-65.61	-51.66	-23.31	-29.18	-33.70	-32.30	-27.01	-17.26	155.5	305.0	-12.42	-19.39	-17.47	-17.34	-15.91	-14.90	-15.08	-13.82	-14.28	-12.39	-12.17	-11.49	-10.37	-9.828	-9.572	-9.665	-9.079	-9.131	-8.955	-9.033	-8.697	-8.100	-8.023	-7.765	-6.957	-6.982	-6.773	-5.347	-5.638	-6.578	-6.752	-6.777	-6.543	-7.010	-6.938	-7.375	-7.480	-7.135	-7.122	-6.408	-6.780	-7.197	-7.295	-7.027	-7.041	-7.546	-7.633	-7.963	-7.204	-7.038	-7.191	-7.913	-7.529	-8.155	-8.080
650.0	-600.7	-523.7	-414.3	-324.0	-264.6	-218.3	-190.9	-161.8	-137.0	-110.8	-87.44	-76.22	-60.50	-53.64	-37.14	-22.20	-33.80	-31.52	-26.77	-23.66	31.16	345.0	45.62	-18.41	-16.88	-16.51	-15.49	-14.90	-14.60	-13.67	-13.98	-12.40	-12.63	-11.51	-10.92	-9.557	-9.352	-9.619	-9.310	-8.796	-8.929	-9.021	-8.629	-7.806	-7.749	-7.190	-6.954	-6.981	-6.813	-5.578	-5.701	-6.845	-6.548	-6.793	-6.688	-6.853	-7.490	-7.103	-7.524	-7.017	-7.264	-6.988	-6.825	-7.073	-7.045	-6.926	-7.466	-7.724	-7.724	-7.581	-7.656	-7.260	-7.077	-7.811	-7.566	-7.913	-8.140
