Sample:	'1
File name:	t2025061907½ØÉø¹µ.FD3
Run date:	'14:55:50, 06/23/2025
Operator:	Administrator
Comment:	'

Instrument
Model:	F-2700 FL Spectrophotometer
Serial number:	23B8-004
ROM Version:	4J14000 07

Instrument parameters
Measurement type:	3-D scan
Data mode:	Fluorescence
EX  Start WL:	220.0 nm
EX  End WL:	600.0 nm
EX Sampling interval:	5.0 nm
EM  Start WL:	230.0 nm
EM  End WL:	650.0 nm
EM Sampling interval:	5.0 nm
Scan speed:	12000 nm/min
EX Slit:	5.0 nm
EM Slit:	5.0 nm
PMT Voltage:	700 V
Response:	Auto 
Corrected spectra:	Off
Contour interval:	50.000

Peak integration
Integration method:	Rectangular
Sensitivity:	1
Threshold:	1.000

Peaks
No.	ApexEX/EM(nm)	Height(Data)
1	225.0/400.0	1935
2	225.0/420.0	1951
3	225.0/640.0	59.46
4	240.0/265.0	300.3
5	250.0/275.0	438.0
6	250.0/425.0	1783
7	255.0/285.0	419.8
8	255.0/430.0	1776
9	260.0/290.0	449.2
10	265.0/585.0	129.3
11	270.0/300.0	921.1
12	270.0/600.0	110.3
13	275.0/305.0	1068
14	275.0/610.0	93.38
15	280.0/315.0	1039
16	280.0/625.0	76.34
17	285.0/320.0	1010
18	285.0/635.0	57.40
19	520.0/285.0	2.918
20	530.0/425.0	7.736
21	535.0/420.0	7.872
22	545.0/300.0	4.867
23	555.0/305.0	5.323

Data points
	220.0	225.0	230.0	235.0	240.0	245.0	250.0	255.0	260.0	265.0	270.0	275.0	280.0	285.0	290.0	295.0	300.0	305.0	310.0	315.0	320.0	325.0	330.0	335.0	340.0	345.0	350.0	355.0	360.0	365.0	370.0	375.0	380.0	385.0	390.0	395.0	400.0	405.0	410.0	415.0	420.0	425.0	430.0	435.0	440.0	445.0	450.0	455.0	460.0	465.0	470.0	475.0	480.0	485.0	490.0	495.0	500.0	505.0	510.0	515.0	520.0	525.0	530.0	535.0	540.0	545.0	550.0	555.0	560.0	565.0	570.0	575.0	580.0	585.0	590.0	595.0	600.0
230.0	125.3	1956	3002	557.1	20.37	7.662	6.837	5.045	5.039	5.027	4.231	4.000	3.920	3.391	2.394	2.480	2.152	1.889	1.729	1.562	1.402	1.339	1.277	1.195	1.272	1.092	1.018	0.888	0.908	0.807	0.805	0.798	0.721	0.735	0.600	0.611	0.571	0.563	0.534	0.565	0.587	0.702	0.602	0.472	0.464	0.523	2.747	9.003	11.56	6.404	1.896	0.554	0.352	0.284	0.325	0.332	0.333	0.311	0.307	0.300	0.275	0.298	0.277	0.306	0.278	0.296	0.287	0.276	0.282	0.278	0.272	0.272	0.265	0.292	0.328	0.306	0.318
235.0	119.1	563.7	2333	2917	501.8	27.22	7.932	6.167	4.861	5.306	4.710	4.086	3.545	3.258	2.872	2.507	1.971	1.824	1.798	1.604	1.469	1.368	1.340	1.279	1.172	1.148	1.119	0.928	1.064	0.865	0.810	0.773	0.663	0.742	0.584	0.569	0.736	0.624	0.539	0.617	0.574	0.591	0.662	0.699	0.559	0.425	0.949	2.571	5.286	8.600	11.13	10.08	3.841	0.778	0.352	0.329	0.344	0.361	0.289	0.359	0.316	0.266	0.263	0.291	0.299	0.287	0.281	0.251	0.295	0.317	0.358	0.268	0.262	0.268	0.298	0.305	0.320
240.0	156.1	194.3	771.0	2994	2922	383.9	16.25	7.281	5.677	5.669	5.735	4.057	3.835	3.324	2.722	2.543	1.987	1.999	1.757	1.655	1.522	1.422	1.284	1.359	1.224	1.264	1.228	1.043	0.994	0.751	0.759	0.813	0.796	0.672	0.596	0.630	0.621	0.600	0.510	0.592	0.506	0.565	0.533	0.601	0.808	0.693	0.618	0.849	1.508	2.788	7.300	15.57	16.04	9.926	2.857	0.512	0.326	0.325	0.294	0.342	0.324	0.279	0.274	0.297	0.269	0.313	0.316	0.292	0.313	0.284	0.332	0.309	0.284	0.260	0.359	0.274	0.329
245.0	142.8	184.1	221.4	1194	3990	2875	260.0	12.01	7.770	7.145	6.182	4.811	4.184	3.958	2.730	2.481	2.419	2.035	1.611	1.797	1.523	1.657	1.386	1.264	1.256	1.077	1.088	0.937	1.103	0.988	0.885	0.959	0.752	0.599	0.632	0.571	0.604	0.547	0.602	0.503	0.461	0.556	0.454	0.475	0.656	0.791	0.731	0.627	0.692	0.885	2.001	6.184	13.33	21.29	18.44	8.986	2.115	0.361	0.360	0.337	0.289	0.325	0.309	0.332	0.351	0.299	0.280	0.254	0.301	0.329	0.356	0.275	0.327	0.273	0.346	0.344	0.280
250.0	64.13	143.1	194.1	326.3	1432	3807	3964	1052	49.41	8.967	7.241	5.779	4.921	4.279	3.245	2.864	2.408	2.203	1.879	1.767	1.625	1.696	1.265	1.318	1.338	1.152	1.164	1.027	1.087	1.005	0.880	0.884	0.764	0.678	0.654	0.587	0.570	0.587	0.633	0.523	0.528	0.507	0.507	0.454	0.559	0.532	0.641	0.746	0.791	0.741	0.854	1.686	3.516	7.415	13.60	19.91	24.64	17.58	10.00	2.464	0.398	0.357	0.337	0.333	0.359	0.303	0.317	0.309	0.326	0.338	0.303	0.300	0.331	0.279	0.303	0.329	0.307
255.0	46.14	64.29	153.9	245.3	375.9	1059	4123	6514	1428	42.47	9.435	7.312	5.618	4.629	3.868	3.027	2.807	2.255	2.142	2.015	2.014	1.700	1.388	1.515	1.243	1.308	1.280	1.283	1.042	1.084	0.945	0.829	0.825	0.768	0.629	0.579	0.644	0.565	0.625	0.605	0.526	0.541	0.504	0.540	0.494	0.480	0.485	0.486	0.601	0.727	1.007	1.194	1.242	1.989	3.380	5.196	10.72	25.10	42.14	28.08	14.94	2.463	0.437	0.355	0.479	0.382	0.410	0.388	0.366	0.316	0.280	0.324	0.300	0.325	0.280	0.305	0.376
260.0	40.51	39.26	77.84	232.5	243.7	289.0	1428	6598	6972	256.6	24.69	9.407	7.595	5.758	4.563	3.580	3.128	2.571	2.320	2.279	2.004	1.698	1.557	1.602	1.508	1.138	1.339	1.215	1.329	1.013	1.058	0.966	0.724	0.836	0.684	0.639	0.643	0.581	0.657	0.558	0.542	0.547	0.553	0.583	0.504	0.469	0.416	0.440	0.395	0.475	0.762	1.302	1.282	1.035	1.210	1.548	2.792	7.492	21.28	40.40	53.81	26.27	10.67	1.269	0.467	0.376	0.431	0.478	0.378	0.318	0.262	0.317	0.386	0.317	0.335	0.263	0.424
265.0	49.07	34.31	43.52	130.1	300.3	203.7	388.8	2559	9110	6698	199.9	15.45	9.061	6.766	5.651	4.138	2.949	2.763	2.577	2.400	1.976	1.898	1.575	1.682	1.554	1.495	1.412	1.233	1.355	1.086	1.167	1.036	0.910	0.937	0.608	0.699	0.708	0.637	0.556	0.578	0.663	0.519	0.504	0.575	0.491	0.588	0.410	0.511	0.384	0.383	0.502	0.939	1.333	1.626	1.266	0.891	1.206	2.191	5.394	13.22	34.28	57.94	61.98	22.62	5.796	0.639	0.431	0.464	0.317	0.361	0.377	0.340	0.378	0.390	0.345	0.274	0.377
270.0	57.21	41.34	36.91	67.05	199.9	329.4	282.8	650.4	3182	8495	9455	820.0	48.55	10.19	7.775	5.474	4.091	2.975	2.915	2.562	2.149	1.858	1.950	1.865	1.723	1.407	1.458	1.298	1.286	1.257	1.204	1.046	0.971	0.911	0.731	0.730	0.799	0.609	0.586	0.644	0.579	0.559	0.591	0.571	0.598	0.565	0.466	0.478	0.398	0.400	0.430	0.568	0.800	1.143	1.619	1.784	1.733	1.349	1.776	3.488	8.502	17.95	34.85	50.62	48.49	51.97	15.70	5.904	0.705	0.452	0.423	0.373	0.359	0.374	0.394	0.341	0.400
275.0	82.37	56.03	46.19	59.02	124.7	243.1	438.0	332.1	765.3	2203	8254	9999.9	1156	45.94	10.86	7.258	5.272	4.200	3.357	3.016	2.701	2.173	2.050	2.126	1.782	1.531	1.386	1.282	1.416	1.186	1.129	1.004	1.052	1.022	0.854	0.754	0.854	0.741	0.623	0.636	0.707	0.602	0.599	0.648	0.607	0.597	0.570	0.523	0.484	0.407	0.478	0.512	0.609	0.797	1.084	1.418	2.035	2.501	2.073	1.687	2.456	4.528	8.217	12.17	17.69	46.61	86.09	90.47	24.98	6.273	0.639	0.417	0.443	0.495	0.389	0.457	0.426
280.0	122.5	89.90	59.24	59.86	106.4	169.0	342.9	414.9	280.9	550.8	2466	9999.9	9999.9	824.5	24.31	10.24	6.720	5.049	4.111	3.506	2.799	2.940	2.406	2.324	1.899	1.853	1.502	1.343	1.517	1.242	1.277	1.119	1.141	0.972	1.120	0.811	0.806	0.861	0.854	0.850	0.670	0.757	0.725	0.755	0.653	0.711	0.662	0.610	0.582	0.524	0.515	0.639	0.611	0.732	0.928	1.063	1.259	2.071	2.617	2.439	1.609	1.512	2.348	3.280	4.493	12.14	32.56	73.74	105.4	34.26	19.80	2.988	0.561	0.457	0.532	0.484	0.464
285.0	171.8	142.5	97.89	85.56	100.6	143.2	209.3	419.8	329.2	218.4	645.5	3468	9999.9	8264	120.4	16.01	9.050	6.524	5.126	4.030	3.377	3.000	2.606	2.418	2.095	1.959	1.731	1.578	1.384	1.402	1.450	1.366	1.159	1.079	1.090	0.868	0.993	0.868	0.835	0.866	0.743	0.820	0.864	0.721	0.770	0.811	0.760	0.630	0.662	0.612	0.534	0.649	0.784	0.796	0.828	0.928	0.950	1.265	1.745	2.727	2.918	1.701	1.411	1.318	1.656	3.408	8.172	19.71	47.47	83.08	114.2	31.58	13.97	1.344	0.612	0.544	0.436
290.0	301.2	281.8	199.0	130.9	122.4	144.0	167.6	245.0	449.2	425.3	328.1	979.7	3483	9999.9	9999.9	2167	35.12	9.732	6.946	5.208	4.251	3.291	2.795	2.629	2.349	1.925	1.910	1.766	1.625	1.559	1.393	1.496	1.181	1.198	1.079	1.048	1.145	1.151	1.037	1.110	0.961	1.062	1.078	1.006	1.114	1.030	0.986	1.082	0.993	0.775	0.701	0.775	0.786	0.745	0.817	0.876	1.004	0.960	1.162	1.525	1.980	2.679	2.865	2.284	1.784	1.869	2.910	5.617	11.91	22.68	46.99	64.94	88.53	71.63	50.65	10.89	1.905
295.0	468.5	450.2	314.7	214.7	161.9	168.8	187.5	213.8	316.8	615.5	664.6	571.4	1068	2579	7822	9999.9	704.5	36.02	9.786	7.251	5.626	4.312	3.552	3.057	2.663	2.239	2.091	1.996	1.776	1.528	1.585	1.357	1.131	1.267	1.238	1.248	1.487	1.393	1.410	1.300	1.237	1.412	1.273	1.201	1.280	1.523	1.353	1.393	1.515	1.118	0.950	0.865	0.952	0.897	0.908	1.063	1.033	1.199	1.152	1.369	1.521	1.918	2.176	3.717	4.023	2.973	2.373	3.126	4.296	6.638	11.92	16.06	23.56	41.76	94.07	124.4	34.00
300.0	577.9	561.3	441.8	278.1	198.7	198.4	224.3	248.9	328.8	524.6	921.1	719.2	633.1	850.4	2225	9999.9	9999.9	550.3	20.24	9.596	6.832	4.833	4.101	3.444	3.037	2.439	2.367	2.068	1.851	1.769	1.780	1.319	1.348	1.297	1.212	1.448	1.610	1.654	1.781	1.549	1.610	1.556	1.459	1.517	1.523	1.623	1.678	1.794	1.555	1.400	1.160	1.087	1.227	1.127	0.998	1.160	1.213	1.370	1.546	1.591	1.604	1.913	2.035	2.650	3.926	4.867	4.102	3.308	3.244	3.635	4.560	5.376	6.766	10.73	28.28	69.69	113.1
305.0	688.1	671.0	533.1	336.5	239.5	236.9	260.7	306.3	380.4	519.1	854.8	1068	692.7	545.4	707.4	3055	9999.9	5394	78.22	13.65	8.692	6.056	4.991	3.873	3.234	2.676	2.540	2.174	2.060	1.904	1.615	1.581	1.554	1.243	1.332	1.502	1.744	1.764	1.790	1.600	1.833	1.769	1.719	1.727	1.768	1.869	1.948	1.872	1.772	1.480	1.239	1.176	1.347	1.226	1.219	1.117	1.340	1.532	1.754	1.807	1.870	1.968	2.223	2.674	3.270	4.190	5.237	5.323	4.231	3.414	3.267	3.367	3.165	3.832	7.552	17.42	39.50
310.0	809.3	764.0	601.7	393.7	285.0	272.6	312.9	367.9	448.4	588.1	773.2	1041	1031	646.3	441.6	831.0	3044	8513	8657	1773	27.73	8.677	6.492	4.787	3.770	3.073	2.777	2.331	2.216	1.956	1.839	1.660	1.485	1.308	1.457	1.442	1.705	1.693	1.837	1.877	1.965	1.931	1.789	1.945	2.108	2.084	2.270	2.148	1.935	1.653	1.433	1.556	1.395	1.323	1.402	1.327	1.447	1.737	1.798	1.967	2.125	2.362	2.572	3.041	3.295	3.706	4.126	4.941	5.320	5.065	4.410	3.633	2.808	2.588	3.104	5.011	9.859
315.0	897.6	875.0	656.0	427.0	324.8	303.1	354.3	425.7	523.4	663.6	812.1	932.1	1039	969.4	504.7	383.9	792.5	2033	6004	9999.9	528.3	30.36	8.951	6.563	4.868	3.821	3.347	2.652	2.443	2.182	2.094	1.881	1.619	1.451	1.590	1.644	1.670	1.942	1.862	2.055	2.040	1.940	2.024	2.207	2.115	2.243	2.244	2.302	2.093	1.868	1.565	1.634	1.523	1.458	1.571	1.690	1.621	2.022	1.899	2.219	2.377	2.612	2.901	3.209	3.426	3.766	4.162	4.312	4.432	4.551	5.608	5.319	3.757	2.889	2.603	2.493	3.481
320.0	1003	944.7	719.0	476.6	355.4	338.7	388.9	463.5	568.2	714.2	861.5	956.9	967.6	1010	715.8	339.7	322.8	541.9	1577	8101	9999.9	456.1	19.30	8.091	6.178	4.756	3.806	3.100	2.966	2.272	2.263	1.802	1.623	1.560	1.601	1.719	1.679	1.937	1.905	2.131	2.117	2.089	2.197	2.192	2.391	2.483	2.369	2.505	2.379	1.864	1.732	1.789	1.712	1.627	1.589	1.651	1.763	2.062	2.095	2.455	2.571	2.830	3.421	3.521	3.850	3.910	4.313	4.451	4.537	4.730	4.682	5.240	5.057	4.238	2.924	2.279	2.063
325.0	1063	1034	776.7	548.6	406.2	372.7	427.8	500.4	626.7	761.9	908.9	986.8	967.9	907.4	855.8	464.2	254.6	235.2	425.6	2291	9945	9304	64.12	12.13	8.033	6.177	4.251	3.275	3.218	2.688	2.362	2.087	1.807	1.607	1.645	1.564	1.670	1.968	2.023	1.904	2.072	2.289	2.281	2.381	2.517	2.504	2.451	2.642	2.347	2.015	1.856	1.759	1.892	1.802	1.766	1.927	2.100	2.113	2.231	2.471	2.782	3.011	3.410	3.536	4.186	4.170	4.616	4.559	4.644	4.754	4.616	4.627	4.850	5.190	4.083	2.841	2.104
330.0	1130	1092	884.5	620.9	473.3	433.4	480.7	570.1	691.2	828.2	967.1	1057	1036	915.3	784.5	650.4	394.2	223.4	207.0	589.8	2788	7864	7242	1556	25.87	8.382	5.747	4.398	3.645	3.088	2.660	2.268	2.002	1.722	1.699	1.542	1.714	1.856	2.112	1.969	2.097	2.317	2.544	2.617	2.606	2.743	2.696	3.016	2.704	2.223	2.012	2.137	1.985	1.983	1.997	1.972	2.285	2.284	2.448	2.796	2.968	3.297	3.578	3.889	4.242	4.491	4.768	4.839	4.921	4.847	4.788	4.686	4.432	4.451	4.252	4.075	3.552
335.0	1247	1191	979.7	715.6	559.8	513.5	555.6	637.9	757.0	900.7	1048	1124	1096	971.6	781.5	627.6	597.9	364.7	223.6	258.9	710.4	1863	5012	9999.9	2333	30.25	8.584	5.649	4.475	3.736	2.867	2.616	2.174	1.782	1.869	1.793	1.789	2.204	2.240	2.085	2.194	2.612	2.483	2.698	2.953	3.040	2.944	3.282	2.943	2.434	2.200	2.661	2.086	2.354	2.199	2.269	2.517	2.635	2.849	2.881	3.237	3.747	4.128	4.090	4.343	4.900	5.088	4.885	5.123	5.125	5.248	5.030	4.521	4.284	4.124	3.391	4.019
340.0	1309	1257	1075	798.0	642.0	591.3	611.3	685.2	807.9	938.2	1080	1148	1146	1018	830.2	633.9	604.0	540.5	304.2	228.8	286.0	508.8	1327	7411	9999.9	407.3	20.43	7.795	5.479	4.264	3.224	2.897	2.496	2.099	1.927	1.849	1.927	2.291	2.142	2.247	2.344	2.713	2.685	2.863	2.865	2.990	3.286	3.589	3.205	2.734	2.485	2.821	2.542	2.763	2.542	2.510	2.993	2.894	3.098	3.155	3.397	3.733	4.290	4.363	4.643	4.903	4.904	5.171	5.371	5.282	5.183	5.098	4.656	4.529	3.978	3.509	3.486
345.0	1326	1265	1102	862.5	704.8	667.2	672.4	733.7	842.0	968.3	1104	1171	1153	1060	870.8	681.4	584.7	606.0	461.7	285.3	239.9	248.7	394.6	2097	9213	8677	329.6	12.13	7.042	5.031	3.950	3.244	2.765	2.340	1.979	1.930	2.035	2.078	2.135	2.242	2.230	2.550	2.755	2.822	3.101	2.908	3.130	3.420	3.168	2.721	2.638	3.045	2.774	2.781	2.767	2.734	3.065	3.135	3.329	3.387	3.720	3.841	4.379	4.428	4.722	5.070	5.262	5.314	5.409	5.514	5.367	5.087	4.914	4.581	4.407	3.950	3.856
350.0	1364	1301	1157	952.3	813.7	762.1	754.6	811.1	897.5	1024	1134	1197	1181	1102	937.0	763.7	647.3	602.4	595.4	468.5	327.1	266.8	250.6	583.8	2594	7100	6409	1414	24.42	7.080	4.941	3.868	3.004	2.419	2.042	1.986	2.026	2.037	2.217	2.382	2.345	2.482	2.753	2.873	3.047	3.249	3.167	3.528	3.257	2.964	2.748	3.315	3.057	3.129	3.029	3.060	3.277	3.341	3.605	3.756	4.003	4.006	4.455	4.835	5.023	5.209	5.334	5.322	5.519	5.486	5.748	5.457	5.202	5.148	4.789	4.545	4.244
355.0	1448	1353	1218	1052	939.0	874.8	875.0	913.2	986.9	1084	1181	1236	1217	1143	1002	853.5	746.9	678.2	629.7	646.0	512.3	367.1	299.2	315.2	707.0	1712	4487	9908	2153	28.65	7.819	5.311	3.412	2.607	2.503	1.943	2.252	2.249	2.299	2.365	2.461	2.679	2.597	2.998	3.155	3.403	3.270	3.489	3.444	3.301	2.989	3.472	3.249	3.636	3.480	3.679	3.847	3.768	3.951	3.938	4.488	4.251	4.886	4.938	5.304	5.138	5.670	5.648	5.686	5.674	5.827	5.527	5.549	5.430	4.990	5.251	5.016
360.0	1461	1452	1308	1124	1010	964.2	953.1	987.9	1039	1145	1220	1274	1265	1178	1051	920.7	838.9	759.0	694.7	683.5	671.8	499.0	374.8	313.1	338.1	505.1	1212	6828	9538	384.4	18.95	6.842	4.488	3.191	2.668	2.255	2.205	2.261	2.302	2.365	2.522	2.778	2.765	2.907	3.236	3.528	3.473	3.766	3.502	3.501	3.340	3.580	3.782	4.008	3.971	3.855	4.250	4.230	4.238	4.395	4.590	4.515	4.649	5.169	5.289	5.258	5.677	5.910	5.925	5.984	5.770	6.185	5.711	5.611	5.714	5.420	5.387
365.0	1468	1468	1376	1200	1109	1076	1035	1059	1106	1183	1263	1294	1283	1221	1107	980.3	909.4	840.2	781.3	729.3	736.9	657.0	474.8	374.5	308.2	282.1	387.8	1967	8607	7906	304.8	11.10	6.024	4.013	2.821	2.615	2.580	2.457	2.401	2.494	2.549	2.843	3.016	3.133	3.159	3.641	3.642	3.772	3.694	3.529	3.365	4.127	3.863	4.056	4.476	4.260	4.578	4.251	4.460	4.485	4.882	4.699	5.193	5.313	5.490	5.796	5.700	5.795	5.843	5.895	6.069	6.176	5.896	5.979	5.969	5.918	5.821
370.0	1510	1535	1446	1316	1236	1191	1166	1159	1195	1247	1314	1347	1320	1266	1158	1057	998.5	941.8	894.2	835.9	791.4	776.2	663.9	491.4	389.4	308.2	262.5	559.2	2451	6764	6045	1283	21.31	6.122	4.071	3.112	2.950	2.642	2.699	2.702	2.852	2.920	3.016	3.291	3.365	3.622	3.728	4.160	3.908	3.702	3.781	4.390	4.338	4.447	4.750	4.629	4.845	4.753	5.125	4.989	5.291	5.245	5.532	5.567	5.840	5.740	5.814	5.843	6.159	6.117	6.405	6.366	6.409	6.384	6.084	6.012	6.324
375.0	1555	1596	1503	1429	1363	1313	1277	1287	1279	1334	1381	1400	1367	1309	1214	1140	1094	1040	997.7	948.2	893.5	838.1	803.4	679.1	502.0	393.9	305.3	302.3	663.3	1634	4435	9006	1873	23.99	6.038	4.283	3.475	3.273	3.161	2.878	3.138	3.280	3.245	3.439	3.687	3.857	3.633	4.413	4.119	3.837	4.089	4.714	4.818	5.056	5.006	5.029	5.158	5.272	5.357	5.590	5.692	5.676	6.081	6.144	5.984	5.932	6.061	6.087	6.523	6.035	6.489	6.577	6.639	7.041	6.329	6.171	6.429
380.0	1639	1623	1575	1511	1449	1392	1384	1362	1348	1390	1425	1434	1391	1331	1255	1180	1148	1112	1070	1024	963.0	900.4	847.4	800.7	623.0	469.3	363.1	289.4	307.9	470.0	1212	6489	8087	319.0	14.96	5.428	4.267	3.717	3.324	3.127	3.214	3.376	3.292	3.332	3.944	4.074	3.713	4.637	4.114	4.139	4.261	4.965	5.085	5.442	5.092	5.233	5.601	5.653	5.937	5.828	5.885	5.949	5.995	6.087	6.116	6.205	6.407	6.327	6.777	6.336	6.563	6.729	6.734	7.028	6.749	6.529	7.093
385.0	1705	1722	1641	1570	1524	1474	1448	1413	1427	1453	1474	1460	1435	1356	1278	1219	1188	1165	1128	1083	1029	965.2	891.4	849.8	752.1	559.9	435.1	337.9	269.8	246.5	366.3	1889	7397	6224	245.9	8.783	4.988	4.115	3.571	3.485	3.515	3.542	3.535	3.555	4.117	4.330	4.001	4.646	4.419	4.297	4.333	5.272	5.509	5.533	5.563	5.679	6.030	5.934	6.090	5.895	6.374	6.167	6.077	6.033	6.316	6.447	6.618	6.708	6.865	6.426	6.759	6.869	6.870	6.708	7.360	6.726	7.028
390.0	1749	1783	1743	1676	1603	1574	1539	1517	1508	1502	1521	1497	1459	1402	1316	1256	1234	1219	1189	1151	1098	1042	969.1	894.0	830.2	709.1	542.3	426.9	331.1	255.4	223.2	515.4	2128	5456	4703	991.6	17.56	6.065	4.494	3.977	3.664	3.780	4.038	3.825	4.099	4.449	4.262	4.798	4.855	4.430	4.569	5.570	5.619	5.737	5.891	5.790	6.523	6.397	6.631	6.542	6.660	6.377	6.680	6.647	6.701	6.671	6.637	6.990	6.890	6.692	6.757	6.988	7.134	7.031	7.186	7.060	7.607
395.0	1819	1844	1820	1753	1691	1655	1620	1616	1576	1560	1570	1540	1485	1427	1351	1291	1265	1254	1232	1196	1161	1109	1042	955.8	871.8	799.0	685.4	530.7	421.5	325.2	247.1	251.6	564.3	1322	3621	6827	1478	19.59	6.093	4.941	4.240	4.057	3.932	4.176	4.219	4.492	4.424	4.864	4.918	4.708	4.515	5.823	5.819	5.959	6.195	6.237	6.695	6.873	6.833	6.852	6.826	6.841	6.907	6.931	7.150	6.913	6.925	7.166	6.792	6.809	6.876	7.300	7.077	7.037	7.137	7.314	7.799
400.0	1816	1935	1835	1794	1751	1729	1676	1647	1625	1608	1619	1574	1497	1435	1367	1305	1286	1269	1252	1227	1182	1140	1083	1007	915.0	831.6	768.4	624.7	486.9	384.5	293.8	225.6	241.0	372.6	1009	5137	6036	264.0	12.38	6.117	4.898	4.621	4.270	4.216	4.712	4.607	4.500	5.232	4.938	4.944	4.831	5.637	5.989	6.176	6.382	6.208	6.515	7.356	7.135	6.926	7.022	6.856	7.268	7.392	7.139	6.900	7.122	6.838	7.043	7.021	7.238	7.482	7.347	7.414	7.239	7.621	7.991
405.0	1859	1905	1879	1824	1775	1756	1725	1683	1669	1643	1620	1588	1522	1445	1371	1312	1285	1282	1254	1237	1204	1155	1101	1045	949.1	860.9	799.7	708.2	560.3	439.9	342.7	251.7	195.1	180.2	290.2	1518	5756	4638	204.9	8.958	5.742	5.224	4.418	4.280	4.767	4.812	4.729	5.151	4.948	4.887	4.922	5.922	6.233	6.482	6.419	6.338	6.715	7.167	7.100	7.498	7.458	7.138	7.152	7.408	7.436	7.168	7.211	6.887	7.215	7.506	7.212	7.001	7.220	7.567	7.280	7.975	8.035
410.0	1897	1937	1925	1849	1804	1798	1761	1744	1695	1672	1655	1597	1525	1441	1365	1310	1277	1269	1254	1231	1207	1166	1121	1067	985.6	896.2	820.8	758.9	663.4	524.9	407.9	306.9	227.2	169.5	153.5	399.9	1673	4265	3776	883.5	16.38	6.569	5.472	4.898	4.950	4.851	4.697	5.351	5.314	4.967	4.976	6.103	6.384	6.451	6.701	6.739	7.017	7.187	7.534	7.658	7.461	7.704	7.471	7.399	7.338	7.238	6.998	7.118	7.312	7.382	7.208	7.277	7.139	7.614	7.408	7.448	7.695
415.0	1893	1944	1914	1845	1821	1807	1778	1764	1724	1692	1672	1603	1512	1431	1343	1280	1251	1237	1225	1212	1184	1153	1117	1077	1008	927.0	847.0	771.2	718.8	620.8	474.2	362.1	272.7	200.8	149.5	169.7	427.7	1032	2880	5226	269.1	18.59	6.442	5.640	5.193	5.059	5.047	5.507	5.326	4.695	5.210	6.118	6.461	6.562	6.512	6.421	7.071	7.090	7.434	7.507	7.676	7.829	7.608	7.367	7.146	7.481	7.397	7.271	7.064	7.175	7.367	7.435	7.162	7.433	7.416	7.417	7.540
420.0	1880	1951	1883	1824	1817	1773	1764	1762	1737	1706	1660	1577	1502	1407	1322	1255	1223	1211	1195	1183	1159	1133	1100	1064	1008	935.0	859.7	786.0	727.6	666.9	534.0	401.6	305.0	229.2	168.4	134.4	163.7	277.5	795.1	3932	4487	243.3	11.72	6.325	5.604	5.490	4.910	5.348	5.415	4.874	5.171	6.562	6.622	6.398	6.407	6.457	7.037	7.365	7.760	7.630	7.558	7.540	7.586	7.872	7.261	6.938	7.193	7.265	6.793	7.032	7.225	7.294	7.336	7.209	7.589	6.901	7.654
425.0	1879	1876	1834	1812	1802	1771	1783	1771	1742	1703	1652	1575	1490	1389	1299	1224	1189	1177	1167	1157	1133	1110	1087	1052	999.4	937.1	868.0	798.0	731.4	675.3	590.5	443.5	335.1	256.8	192.9	143.4	118.3	120.4	219.0	1173	4399	2187	35.79	9.090	6.367	5.866	5.077	5.541	5.187	4.907	5.222	6.328	6.398	6.187	6.320	6.760	7.453	7.348	7.140	7.691	7.373	7.670	7.736	7.686	7.429	7.162	7.099	6.691	6.879	6.945	6.936	6.679	7.007	6.968	7.348	7.165	7.563
430.0	1997	1806	1796	1779	1758	1747	1752	1776	1729	1695	1648	1558	1457	1360	1257	1183	1149	1131	1122	1111	1094	1078	1057	1030	984.5	928.1	871.3	807.2	747.1	678.3	607.9	507.0	381.5	291.5	223.1	170.6	131.6	103.7	104.7	303.6	1274	2967	3102	792.2	15.94	7.040	5.795	5.708	5.260	4.928	5.107	6.157	6.361	6.271	6.389	6.586	7.212	7.215	7.234	7.603	7.506	7.385	7.693	7.550	7.351	7.009	7.209	6.820	6.812	6.755	6.875	6.733	6.710	6.821	6.786	6.828	7.299
435.0	2662	1795	1741	1733	1725	1732	1721	1754	1727	1688	1631	1538	1438	1314	1217	1140	1105	1088	1074	1061	1045	1042	1021	1000	958.2	922.4	864.9	810.4	754.3	691.0	611.8	534.2	440.7	331.8	255.4	201.7	155.1	121.2	95.51	122.1	324.8	723.9	2298	4456	1160	19.15	7.322	6.322	5.441	5.226	4.987	6.129	6.287	6.363	6.407	6.405	7.117	7.226	7.389	7.474	7.306	7.241	7.432	7.727	7.228	7.135	7.223	6.988	6.598	6.675	6.610	6.725	6.577	6.825	6.856	6.873	6.967
440.0	3551	1896	1740	1694	1677	1684	1701	1722	1693	1679	1621	1518	1400	1285	1183	1111	1071	1051	1033	1021	1004	1008	983.9	971.5	938.8	904.2	851.9	806.4	754.9	696.1	615.8	536.4	465.2	367.8	281.9	222.9	175.0	137.2	105.0	91.89	122.1	198.6	639.3	3359	4215	227.8	13.25	7.095	5.747	5.180	5.172	6.178	6.367	6.405	6.205	6.448	6.556	6.998	7.057	7.036	7.669	7.398	7.293	7.230	7.308	7.414	7.039	6.795	6.623	6.904	6.825	6.416	6.348	6.682	6.433	6.471	6.950
445.0	3763	2284	1696	1640	1633	1636	1673	1703	1678	1640	1601	1494	1367	1250	1150	1065	1032	1008	1002	983.0	974.6	965.0	950.6	935.7	911.9	874.7	836.3	795.5	749.0	696.0	620.4	537.0	467.5	398.3	307.4	239.8	193.2	152.8	119.8	96.82	85.83	89.03	177.6	1007	3951	3362	168.8	9.257	6.353	5.405	5.202	6.137	5.756	6.282	6.388	6.409	6.630	6.939	6.888	7.121	7.264	7.025	7.362	7.043	7.360	7.142	7.249	6.706	6.611	6.643	6.319	6.425	6.259	6.561	6.168	6.613	6.975
450.0	2840	3243	1760	1548	1541	1575	1587	1609	1615	1577	1539	1440	1307	1193	1089	1010	967.8	944.9	936.7	918.1	904.8	902.0	892.7	880.7	858.4	828.7	796.9	762.7	724.6	680.3	610.6	531.4	457.2	400.2	338.3	264.3	213.3	172.8	139.1	113.2	91.79	76.76	83.47	257.7	1137	2952	2808	734.6	14.46	6.110	5.399	5.940	5.986	6.037	5.914	6.267	6.439	6.457	6.798	6.788	6.944	7.176	7.097	6.727	7.198	6.699	6.865	6.467	6.348	6.209	6.055	6.076	6.062	6.158	6.121	6.228	6.256
455.0	1765	3421	2453	1457	1457	1477	1503	1524	1525	1492	1456	1356	1246	1128	1026	938.6	898.6	870.3	863.1	845.3	833.5	827.0	820.5	813.9	796.2	768.7	745.7	716.3	688.2	655.9	595.3	520.7	449.4	390.7	344.9	293.6	232.8	191.1	157.3	129.1	105.6	84.56	71.57	98.56	284.1	707.8	1850	3762	991.7	15.67	6.278	6.283	5.958	5.908	5.950	5.821	6.320	6.305	6.597	6.704	6.411	6.887	6.961	6.606	6.876	6.476	6.404	6.253	6.339	5.962	5.567	5.546	5.884	5.756	5.564	5.901	5.454
460.0	1397	2644	3240	1479	1379	1393	1421	1454	1441	1421	1381	1289	1183	1068	965.9	884.3	844.5	821.0	800.3	791.8	778.3	768.8	766.3	758.3	747.4	723.5	698.2	677.8	657.9	625.3	575.8	506.6	441.0	383.3	333.8	300.9	247.8	200.4	167.9	137.5	116.1	92.58	74.36	67.88	99.13	185.4	489.5	2544	3387	175.7	11.80	6.634	5.918	5.606	5.776	5.812	6.259	6.130	6.285	6.468	6.167	6.734	6.454	6.296	6.517	6.132	5.922	5.965	5.747	5.439	5.562	5.479	5.495	5.494	5.130	5.808	5.173
465.0	1203	1764	3538	1930	1293	1300	1336	1374	1362	1370	1311	1232	1122	1024	915.4	836.0	791.9	764.2	747.4	735.1	721.9	712.9	710.7	709.4	692.5	671.6	657.4	638.0	622.4	598.8	551.4	491.6	429.1	375.0	323.6	294.4	257.4	209.1	174.4	145.3	122.2	100.3	80.33	66.24	62.57	71.90	133.3	719.1	2948	2675	152.1	9.421	6.501	5.711	5.712	5.713	5.808	5.909	6.025	6.182	6.323	6.199	6.259	6.109	6.079	6.089	5.642	5.566	5.548	5.344	5.448	5.336	5.557	5.068	5.081	4.828	4.891
470.0	1139	1255	2534	2938	1349	1197	1232	1276	1262	1266	1213	1142	1028	937.2	837.4	763.4	719.3	688.9	678.2	658.9	648.1	640.9	638.5	637.9	622.1	607.5	596.4	581.8	569.3	550.7	512.2	461.6	407.7	357.4	311.9	276.2	250.8	218.9	180.7	151.6	127.0	106.3	87.15	70.93	59.23	51.02	56.99	182.7	813.3	2052	1948	712.0	15.25	6.495	5.690	5.322	5.624	5.662	5.564	5.644	5.741	5.742	5.806	5.869	5.564	5.439	5.389	5.324	5.079	4.866	5.106	5.093	4.887	4.531	4.593	4.525	4.574
475.0	1070	1058	1425	3034	2059	1099	1112	1140	1143	1144	1120	1051	936.9	852.6	755.0	687.9	640.9	615.8	601.2	588.1	576.9	574.9	565.7	563.6	553.1	543.8	534.9	525.5	516.6	498.4	466.4	427.8	380.7	334.8	293.2	260.7	232.9	211.2	187.8	155.6	131.1	110.9	91.28	75.56	62.17	50.71	44.17	65.23	200.5	479.9	1042	2545	939.1	18.83	6.014	5.065	5.325	5.157	5.283	5.308	5.430	4.979	5.418	5.500	5.255	5.054	5.099	4.793	4.617	4.702	4.561	4.465	4.292	4.234	4.271	3.997	4.432
480.0	957.1	957.9	1062	2300	2921	1145	1040	1063	1072	1077	1042	975.2	885.1	790.7	696.1	644.9	597.0	572.1	549.3	543.5	530.2	528.4	518.8	517.9	509.6	501.9	491.0	486.5	480.2	464.6	437.3	401.6	357.9	320.2	283.3	251.5	224.0	202.0	188.8	160.6	130.9	112.0	92.63	79.47	66.60	53.16	44.68	41.13	65.99	123.9	264.6	1392	2523	214.3	13.84	5.424	5.421	5.059	4.890	4.725	4.824	4.689	5.318	5.012	5.016	4.564	4.861	4.305	4.437	4.434	4.291	4.338	3.974	4.088	4.172	3.903	4.096
485.0	891.5	895.4	906.5	1470	3312	1624	978.6	1004	1015	1008	990.2	927.2	833.9	747.5	658.7	599.9	558.4	536.3	512.9	506.2	497.2	488.9	480.0	480.9	474.8	469.3	460.3	453.1	449.3	437.2	413.5	380.5	341.0	308.0	276.0	243.6	219.3	195.3	181.5	164.1	136.6	111.7	95.50	81.24	68.35	56.99	46.57	37.78	37.77	46.63	73.82	368.9	1803	1757	186.0	9.454	5.639	5.058	5.037	4.800	4.506	4.587	4.793	4.851	4.730	4.289	4.843	4.470	4.151	4.384	3.890	3.934	3.819	3.597	4.039	3.694	3.840
490.0	791.7	859.7	832.9	966.3	2306	2757	1088	928.5	939.1	934.9	919.3	860.4	768.9	689.7	611.8	554.0	516.3	490.8	473.2	459.9	450.6	445.5	438.7	435.9	433.4	426.7	418.4	414.1	411.8	404.1	384.2	354.4	319.1	290.5	259.5	233.6	209.6	186.8	171.1	158.8	140.1	116.5	97.48	83.88	71.16	59.62	49.02	40.75	34.68	31.13	33.50	96.41	469.0	1247	1820	759.6	17.57	5.791	5.189	4.675	4.411	4.510	4.426	4.490	4.341	4.316	4.247	3.965	3.953	3.890	3.691	3.720	3.648	3.569	3.655	3.259	3.543
495.0	657.4	777.2	781.6	778.5	1193	3036	1892	845.3	857.8	846.8	836.1	774.5	700.4	627.7	567.9	502.9	469.8	440.6	423.6	409.7	403.7	397.3	390.7	389.6	383.7	379.6	377.4	372.5	372.6	365.1	349.2	324.3	293.2	268.8	241.4	218.6	197.8	179.1	161.9	147.4	135.9	120.8	98.89	85.21	72.09	61.90	51.60	43.48	35.65	29.94	25.53	37.15	116.8	290.8	822.0	2280	1229	23.81	5.646	4.764	4.405	4.265	4.038	4.063	4.141	4.084	3.964	3.621	3.643	3.769	3.193	3.372	3.262	3.219	3.260	3.367	3.358
500.0	613.1	719.2	716.9	696.0	802.9	2202	2926	906.0	794.3	801.3	772.5	728.8	650.8	582.5	523.6	459.8	430.5	404.7	391.7	376.5	369.3	363.4	357.3	353.8	352.2	345.2	343.4	339.4	339.6	334.3	321.1	295.8	272.3	247.8	227.4	205.8	188.0	169.4	153.1	139.4	128.4	117.9	100.4	84.04	70.61	61.65	52.80	44.42	36.80	30.59	25.34	24.41	38.93	75.95	201.3	1082	2464	892.5	18.04	5.191	4.276	4.194	4.159	4.003	3.666	3.600	3.694	3.444	3.460	3.542	3.090	3.308	2.928	3.123	3.062	2.987	3.105
505.0	572.8	610.8	705.8	649.3	663.3	1264	3358	1382	728.5	733.4	714.4	666.3	609.8	533.1	478.0	425.6	396.5	376.5	358.9	344.4	336.6	330.6	326.5	325.2	323.1	314.2	312.8	309.3	310.5	306.7	292.3	276.0	252.3	230.0	208.0	192.4	176.8	158.9	145.1	131.2	119.4	109.8	101.9	82.98	70.78	61.99	53.31	45.29	37.63	31.25	26.07	23.09	21.70	28.74	54.90	270.2	1397	2071	226.5	11.95	4.584	4.039	4.111	3.824	3.659	3.564	3.564	3.179	3.078	3.093	2.888	3.118	2.947	2.820	2.918	2.678	2.933
510.0	495.8	534.6	598.6	597.5	572.7	735.8	2268	2756	824.8	649.2	640.6	597.5	540.0	481.0	426.1	380.8	351.5	333.1	316.1	305.2	294.8	289.9	287.7	284.7	280.5	276.5	275.8	274.4	274.7	272.8	260.4	245.3	225.3	207.0	187.7	173.9	159.5	145.0	134.0	120.2	108.8	99.62	93.20	83.31	70.18	60.07	52.32	44.16	37.66	31.16	26.91	22.77	19.35	18.71	22.66	69.11	345.0	1055	1585	820.4	18.33	4.512	3.824	3.775	3.378	3.208	3.168	2.906	2.872	2.880	2.651	2.754	2.598	2.634	2.526	2.446	2.562
515.0	430.6	455.0	493.9	529.7	518.5	554.0	1001	3168	1718	584.7	559.1	527.4	481.6	429.6	378.0	339.4	305.9	290.1	274.1	268.0	257.6	251.4	245.3	244.8	242.4	239.2	236.8	236.8	238.7	235.4	228.9	216.5	197.0	181.6	168.0	156.6	144.0	131.2	120.7	109.9	98.40	91.03	82.16	78.09	69.26	57.60	49.83	42.97	37.22	31.17	26.84	22.71	18.96	17.22	15.95	25.15	84.92	242.3	545.1	1651	1091	25.22	4.038	3.580	2.929	2.978	2.820	2.645	2.712	2.625	2.279	2.566	2.230	2.417	2.417	2.248	2.414
520.0	387.7	409.5	438.1	476.3	485.3	474.2	593.9	2202	2687	661.3	503.9	483.0	428.5	384.5	341.0	308.4	279.0	263.4	248.7	241.0	229.3	225.8	222.6	218.6	217.4	214.7	211.0	214.1	212.7	210.3	205.4	192.7	178.5	166.9	152.4	140.7	130.7	119.4	109.0	99.75	92.95	83.88	75.95	71.35	67.50	58.28	48.27	41.72	35.92	31.36	26.29	23.20	19.57	16.74	14.85	15.17	27.36	61.48	130.3	675.8	1747	770.2	19.16	3.626	3.277	2.863	2.621	2.676	2.480	2.386	2.292	2.341	2.035	2.125	2.233	2.054	2.175
525.0	366.7	385.9	380.3	415.8	456.3	426.8	465.4	1128	3582	1208	471.2	439.1	393.8	355.9	310.8	275.6	251.9	238.3	224.6	215.6	208.7	202.8	200.7	196.1	194.5	192.5	190.3	189.6	194.0	191.5	185.9	174.9	162.1	150.0	138.4	129.0	119.7	110.3	101.7	93.50	84.47	76.76	70.26	64.46	62.43	57.29	47.65	40.47	34.64	30.14	25.86	22.53	19.17	16.45	14.09	13.16	14.97	21.25	35.48	163.3	845.9	1625	233.8	12.05	3.365	2.834	2.372	2.478	2.514	2.015	2.045	2.182	1.867	1.955	1.811	1.892	2.038
530.0	320.9	333.6	335.9	346.3	407.0	397.6	386.6	567.7	2316	2766	598.8	386.9	346.1	307.9	273.8	244.7	222.5	208.9	196.4	189.1	181.5	174.9	175.7	172.2	169.2	167.8	164.7	165.4	167.6	165.1	161.6	153.5	141.8	132.2	122.2	112.0	105.3	96.73	89.48	82.86	76.12	69.40	63.50	58.18	54.92	51.92	46.61	39.31	32.90	28.35	24.84	21.63	18.42	16.67	14.25	12.85	11.94	12.26	14.14	41.81	202.7	690.0	1098	649.1	18.42	3.057	2.405	2.285	2.193	1.942	1.885	1.901	1.837	1.819	1.700	1.638	1.741
535.0	276.9	282.4	290.7	295.6	335.0	367.3	336.5	382.7	892.1	3336	1589	345.7	302.4	270.6	235.7	210.7	193.3	180.3	169.4	161.1	154.0	150.8	150.8	147.2	143.2	143.0	140.7	141.0	142.5	141.9	138.6	132.5	121.6	113.5	104.6	97.57	90.62	85.62	78.21	72.65	67.27	60.66	56.18	51.66	47.18	44.44	42.47	38.11	31.54	26.12	23.12	20.11	17.35	15.86	13.85	12.30	11.03	10.22	9.646	14.91	49.80	158.1	332.3	1066	843.8	25.48	2.810	2.370	2.000	1.767	1.786	1.843	1.748	1.572	1.473	1.573	1.481
540.0	257.3	251.6	264.5	253.8	282.7	337.2	319.7	309.3	440.5	2102	3087	411.6	265.6	238.4	213.8	183.3	172.1	157.6	150.7	140.2	136.7	132.6	130.9	128.6	125.4	125.6	124.9	123.5	124.4	125.6	120.7	116.4	107.3	100.2	93.04	87.08	81.56	76.10	69.88	65.48	60.14	54.81	50.87	46.64	42.74	39.12	37.96	35.64	30.29	25.08	21.79	19.14	16.57	15.15	13.20	12.15	11.07	9.264	8.037	8.689	15.50	39.36	78.40	392.4	1176	601.5	18.83	2.540	2.023	1.886	1.708	1.843	1.520	1.449	1.443	1.525	1.364
545.0	211.3	213.4	234.4	230.6	243.8	283.1	301.2	272.7	301.3	932.2	3748	900.2	235.4	211.7	188.2	168.3	153.1	140.2	133.9	125.6	118.6	118.1	115.5	113.9	110.6	110.3	109.6	108.3	110.5	109.9	106.0	102.1	95.71	88.30	83.38	76.66	72.42	67.05	62.22	57.71	53.71	50.14	45.10	42.54	39.16	35.98	33.82	32.11	29.35	23.97	20.54	18.05	15.69	14.18	12.63	11.52	10.51	8.971	7.941	7.024	8.134	12.70	20.92	93.41	517.0	1113	230.6	10.70	1.900	1.700	1.606	1.547	1.529	1.578	1.385	1.317	1.226
550.0	189.7	191.6	189.4	190.6	204.3	223.9	273.0	241.4	240.6	398.9	2170	2408	325.5	180.6	158.9	141.3	127.1	118.3	112.5	106.2	100.5	97.08	96.95	95.10	92.61	92.13	90.72	90.28	91.77	91.57	89.36	84.28	80.08	74.43	69.68	64.62	60.79	56.68	53.57	48.35	45.60	42.11	39.01	36.02	33.87	31.12	29.02	26.66	25.48	22.60	19.08	16.23	13.96	12.81	11.57	10.69	9.393	8.312	7.475	6.326	6.099	6.474	7.965	23.75	122.2	445.4	734.7	449.0	17.15	2.031	1.623	1.511	1.342	1.361	1.334	1.178	1.263
555.0	165.3	167.9	158.5	161.8	163.7	175.7	220.8	224.3	191.5	226.8	708.3	3098	1104	154.0	128.2	114.4	104.5	96.03	91.94	86.18	82.22	80.34	78.38	77.53	75.86	75.41	74.74	73.24	74.86	74.75	73.84	68.76	65.60	60.55	56.42	52.69	49.74	46.69	43.45	40.43	37.43	35.40	32.54	30.04	28.76	26.01	24.37	21.77	20.54	19.44	17.53	14.58	12.39	11.45	10.36	9.367	8.251	7.674	6.672	5.659	5.162	4.627	4.784	8.047	29.60	101.4	216.7	670.7	536.7	23.32	1.703	1.351	1.123	1.225	1.005	1.094	1.015
560.0	133.9	142.7	143.4	135.4	137.5	151.1	176.1	215.7	160.7	172.6	287.6	1885	2526	170.1	113.5	97.51	88.94	82.34	77.45	73.89	70.36	68.72	65.36	66.42	64.81	64.86	62.39	60.86	62.24	63.11	61.16	57.87	55.38	51.07	48.27	45.34	41.53	39.70	36.82	34.52	32.46	29.83	27.96	25.59	24.48	22.12	21.48	19.24	17.16	16.62	15.79	13.22	11.21	9.948	9.484	8.316	7.502	6.722	6.534	5.581	4.682	4.116	4.056	4.387	8.718	24.54	50.80	241.0	718.0	249.4	15.69	1.433	1.136	0.927	0.912	0.937	1.000
565.0	129.0	123.6	118.2	118.6	114.6	120.1	137.6	191.4	158.8	146.7	173.3	740.9	3231	549.1	100.4	82.08	76.32	70.44	65.43	62.76	59.56	58.28	55.69	55.49	55.08	54.22	53.54	52.41	53.04	53.21	52.80	49.86	47.34	43.19	40.58	38.68	35.96	34.22	31.15	29.62	28.36	25.92	24.49	22.67	20.87	19.22	18.56	16.31	15.27	14.18	14.00	12.14	10.52	9.259	8.472	7.591	7.019	6.218	5.823	5.033	4.418	3.912	3.388	3.303	4.160	7.337	13.14	56.98	303.4	632.7	199.4	7.027	1.100	0.938	0.921	0.873	0.862
570.0	115.9	108.4	101.7	98.59	94.30	101.6	113.0	148.3	156.1	123.7	131.2	262.1	1869	1829	119.7	68.55	63.21	58.44	54.67	50.99	48.72	47.01	45.96	45.23	43.73	43.34	42.82	42.29	43.18	43.19	42.32	39.85	38.66	35.02	33.09	31.33	29.37	28.28	25.97	24.30	22.97	21.46	19.88	18.27	17.47	16.30	15.20	13.62	12.39	11.47	11.04	10.69	9.607	8.036	7.182	6.549	6.146	5.470	5.061	4.531	4.208	3.638	3.135	2.949	2.837	3.358	4.516	14.29	71.28	250.2	437.4	228.2	15.39	1.208	0.924	0.826	0.799
575.0	109.5	95.10	86.43	84.56	83.61	80.18	89.21	103.2	148.0	118.7	107.5	133.2	559.0	2485	725.7	59.25	51.93	45.94	44.19	40.78	39.63	37.99	36.69	35.99	35.59	34.85	34.31	33.70	34.33	34.14	34.07	32.03	30.85	28.92	26.54	25.12	24.00	23.34	21.51	19.56	18.65	16.46	16.14	15.33	14.23	13.45	12.21	11.33	10.36	9.212	8.765	8.492	8.267	7.274	6.384	5.543	5.220	4.976	4.341	3.820	3.662	3.444	2.970	2.737	2.360	2.382	2.398	4.491	17.00	56.80	124.8	373.0	251.8	20.28	1.144	0.803	0.745
580.0	102.5	79.01	79.41	75.54	72.34	76.37	77.48	82.34	129.5	122.1	99.26	100.9	194.8	1497	1832	82.15	45.26	40.44	37.73	35.11	33.01	32.31	31.06	31.51	29.90	29.70	29.17	27.84	28.81	29.32	28.92	26.63	25.35	24.36	22.60	21.87	20.75	20.02	18.18	16.33	16.26	14.32	13.20	13.21	12.08	11.61	10.31	9.886	8.992	8.051	7.325	6.635	6.943	7.019	5.997	4.953	4.833	4.331	3.843	3.515	3.143	3.138	2.904	2.440	2.130	1.983	2.031	2.198	5.045	13.72	29.08	132.5	399.8	210.1	11.72	0.872	0.728
585.0	98.77	84.50	72.45	66.09	62.64	66.77	65.16	73.36	95.95	129.3	92.72	88.22	102.8	559.2	2414	296.0	39.60	35.29	32.75	30.93	29.04	27.38	26.38	26.02	26.37	24.83	25.47	24.54	25.07	25.28	24.80	22.64	21.28	21.10	19.07	18.59	17.79	17.04	15.66	14.21	13.90	12.09	11.69	11.28	10.53	10.05	8.942	8.415	7.838	6.993	6.180	5.731	5.817	6.304	5.729	4.551	4.232	3.791	3.422	3.169	2.782	2.788	2.724	2.486	2.060	1.772	1.827	1.658	2.205	4.141	7.620	31.52	168.4	387.8	144.2	4.570	0.754
590.0	89.92	83.36	69.08	59.22	57.10	55.32	55.46	63.03	76.95	115.8	100.3	78.50	76.79	181.1	1387	1228	60.41	28.83	26.61	24.83	23.80	22.03	22.33	21.78	21.08	20.33	20.16	20.54	20.58	20.72	20.19	18.81	17.70	16.71	15.86	14.61	14.60	13.80	12.70	11.66	11.23	10.27	9.737	9.194	8.775	7.939	7.618	7.151	6.432	5.940	5.324	4.961	4.684	4.785	5.007	4.456	3.909	3.303	2.919	2.844	2.532	2.383	2.392	2.257	2.070	1.678	1.565	1.611	1.534	1.841	2.687	7.832	39.39	147.9	262.2	141.9	14.10
595.0	87.94	78.35	62.84	55.24	46.23	49.51	50.60	57.58	65.26	87.71	109.7	73.82	69.28	81.34	391.8	1698	419.6	24.97	21.79	20.54	19.32	18.44	18.00	17.58	16.86	16.09	16.35	15.77	15.85	16.46	15.90	15.03	13.78	13.52	12.63	11.67	11.42	11.05	10.24	9.568	9.123	8.055	7.847	7.312	7.144	6.433	6.174	5.642	5.194	4.847	4.343	4.070	3.755	3.686	4.084	3.948	3.546	2.637	2.637	2.465	2.277	2.094	2.132	1.981	2.178	1.611	1.437	1.398	1.315	1.265	1.460	2.764	9.697	33.73	73.23	214.3	192.9
600.0	85.70	73.92	62.11	46.29	41.45	45.58	45.17	48.18	58.41	70.93	110.3	76.81	62.08	54.71	120.7	1076	1096	34.85	19.50	17.57	16.80	15.49	14.61	14.79	14.21	13.31	13.79	13.95	13.62	13.28	13.60	12.44	11.81	11.43	10.36	9.536	9.650	8.792	8.687	7.990	7.424	7.045	6.593	6.208	5.870	5.668	5.227	4.737	4.416	4.368	3.735	3.725	3.210	3.089	3.175	3.420	3.441	2.779	2.369	2.261	2.148	1.918	1.911	1.545	1.799	1.699	1.369	1.325	1.143	1.095	1.142	1.450	2.903	8.171	17.20	75.34	243.3
605.0	76.46	70.66	62.97	41.30	40.24	38.75	42.49	45.45	52.39	62.56	100.2	86.91	63.23	48.22	54.78	402.3	1536	86.70	16.81	15.63	13.98	12.92	13.06	12.46	12.04	11.83	11.79	11.93	11.89	11.59	11.14	10.54	10.00	9.800	9.172	8.362	8.186	7.781	7.412	6.364	6.274	6.138	5.715	5.237	5.021	5.070	4.595	4.114	3.945	3.599	3.281	3.100	3.006	2.685	2.731	2.939	3.032	2.493	2.111	1.955	2.014	1.691	1.615	1.511	1.515	1.593	1.402	1.336	1.048	1.242	1.072	1.176	1.316	2.444	4.391	17.78	97.83
610.0	69.59	65.74	57.34	43.10	36.96	36.82	37.60	40.66	48.01	55.12	77.23	93.38	60.93	47.03	37.16	116.6	972.8	783.7	29.65	12.54	11.91	10.72	10.69	10.19	9.903	9.986	9.813	9.647	9.869	9.454	9.357	8.713	8.286	7.911	7.772	7.196	6.867	6.436	6.119	5.536	5.145	4.769	4.551	4.531	4.220	4.053	3.799	3.452	3.167	2.956	2.719	2.619	2.475	2.293	2.225	2.244	2.453	2.281	2.024	1.753	1.636	1.552	1.475	1.317	1.376	1.247	1.432	1.279	1.100	1.028	0.995	0.965	0.956	1.151	1.545	4.504	23.05
615.0	76.45	64.51	54.79	40.18	31.44	32.09	33.68	35.09	43.60	51.94	61.94	89.28	67.22	44.86	31.05	42.08	279.8	1198	222.2	11.11	9.583	9.154	8.882	8.441	7.729	7.964	7.937	7.341	7.570	7.623	7.256	7.228	6.749	6.296	6.232	5.757	5.865	5.313	4.833	4.608	4.146	4.058	3.794	3.670	3.393	3.235	3.032	2.752	2.625	2.439	2.390	2.135	2.080	1.905	1.779	1.811	2.070	1.994	1.919	1.617	1.347	1.312	1.329	1.156	1.137	1.105	1.093	1.220	1.193	1.018	0.974	1.001	0.775	0.821	0.978	1.526	5.587
620.0	64.04	63.11	46.43	39.52	32.42	29.27	31.76	34.29	41.55	48.54	58.65	75.00	73.96	43.05	28.77	25.01	78.33	840.1	607.6	14.45	8.263	7.995	7.512	7.159	6.811	6.671	6.423	6.655	6.707	6.555	6.504	6.191	5.730	5.581	5.216	5.030	5.005	4.556	4.209	3.984	3.557	3.585	3.111	3.304	2.829	2.844	2.559	2.461	2.344	2.016	1.945	1.822	1.633	1.664	1.604	1.508	1.666	1.424	1.750	1.427	1.353	1.162	1.162	1.031	0.984	1.022	1.020	0.931	1.206	1.092	0.865	0.816	0.815	0.681	0.727	0.792	1.788
625.0	66.75	64.85	45.18	33.65	29.20	28.32	33.66	32.35	42.64	44.73	50.59	64.04	76.34	44.16	28.29	19.92	28.77	337.4	1061	53.73	7.939	7.213	6.347	6.435	5.807	5.923	5.576	5.615	5.478	5.386	5.727	5.181	4.912	4.859	4.521	4.228	4.322	3.902	3.712	3.631	3.241	3.094	2.639	2.489	2.444	2.441	2.272	2.203	1.990	1.779	1.663	1.575	1.521	1.521	1.365	1.290	1.378	1.262	1.478	1.360	1.296	1.066	0.999	1.034	0.873	0.906	0.993	0.946	0.980	1.012	0.807	0.902	0.784	0.686	0.668	0.624	0.883
630.0	61.23	59.93	46.43	32.26	26.50	25.64	26.83	30.78	37.12	42.30	49.07	56.33	68.69	50.96	26.95	17.63	16.20	91.43	766.7	444.1	12.74	6.144	5.397	5.279	4.644	4.994	4.583	4.460	4.488	4.359	4.419	4.172	4.050	3.832	3.877	3.616	3.460	3.265	2.940	2.999	2.609	2.357	2.296	2.063	1.949	2.040	1.892	1.756	1.656	1.609	1.389	1.289	1.214	1.231	1.147	1.109	1.134	1.153	1.190	1.205	1.181	1.055	0.943	0.860	0.853	0.799	0.801	0.818	0.873	0.920	0.933	0.758	0.732	0.617	0.677	0.619	0.616
635.0	60.63	49.82	45.52	30.14	27.75	23.48	26.00	29.98	35.36	41.17	45.80	50.68	56.13	57.40	29.24	16.70	13.88	27.54	230.1	884.0	64.59	5.337	4.412	4.100	4.139	3.977	3.754	3.545	3.651	3.723	3.642	3.468	3.373	3.169	3.025	3.164	2.815	2.730	2.432	2.248	2.302	1.938	1.858	1.633	1.703	1.524	1.521	1.475	1.227	1.248	1.140	1.099	1.047	1.082	1.004	0.907	0.922	0.924	0.930	0.971	0.947	1.050	0.846	0.855	0.653	0.699	0.793	0.719	0.783	0.817	0.932	0.810	0.745	0.645	0.571	0.481	0.520
640.0	57.09	59.46	46.62	30.07	24.97	23.47	24.43	27.82	32.13	39.24	42.80	47.44	48.16	56.82	34.27	17.96	12.32	12.78	61.13	695.6	415.0	7.006	4.266	3.969	3.510	3.409	3.175	3.063	2.916	3.352	3.038	3.101	2.880	2.905	2.568	2.552	2.385	2.420	2.117	1.943	1.893	1.677	1.528	1.455	1.537	1.354	1.261	1.236	1.112	0.991	1.027	0.925	0.889	0.939	0.820	0.841	0.910	0.821	0.721	0.815	0.882	0.916	0.855	0.715	0.731	0.571	0.716	0.718	0.707	0.707	0.711	0.770	0.761	0.671	0.543	0.481	0.429
645.0	51.59	51.28	49.92	29.28	23.79	21.64	22.94	27.12	29.47	38.56	41.82	44.75	45.63	48.87	38.90	17.19	11.70	10.19	19.42	309.3	755.6	31.73	3.882	3.444	3.164	2.954	2.947	2.692	2.710	2.498	2.877	2.557	2.507	2.657	2.332	2.454	2.221	2.124	1.892	1.863	1.566	1.626	1.347	1.302	1.262	1.104	1.096	1.112	1.107	0.782	0.914	0.809	0.875	0.815	0.801	0.783	0.810	0.684	0.804	0.787	0.781	0.756	0.758	0.670	0.642	0.621	0.669	0.642	0.641	0.686	0.652	0.548	0.831	0.639	0.531	0.480	0.456
650.0	59.18	55.53	44.31	31.35	21.23	21.81	22.85	27.66	29.40	34.86	39.53	42.89	41.93	41.25	40.35	18.67	11.83	8.767	9.565	90.93	772.1	190.4	3.742	3.193	2.875	2.543	2.739	2.387	2.636	2.476	2.436	2.336	2.259	2.372	2.016	2.329	1.904	1.919	1.677	1.672	1.392	1.442	1.435	1.189	1.147	1.097	1.064	0.973	0.925	0.774	0.803	0.704	0.771	0.802	0.708	0.735	0.759	0.681	0.698	0.713	0.697	0.638	0.677	0.778	0.609	0.664	0.643	0.599	0.678	0.654	0.631	0.593	0.734	0.703	0.514	0.436	0.521
