Sample:	'1
File name:	光大二厂20万吨系统进水.FD3
Run date:	'15:40:25, 05/13/2025
Operator:	Administrator
Comment:	'

Instrument
Model:	F-2700 FL Spectrophotometer
Serial number:	23B8-004
ROM Version:	4J14000 07

Instrument parameters
Measurement type:	3-D scan
Data mode:	Fluorescence
EX  Start WL:	220.0 nm
EX  End WL:	600.0 nm
EX Sampling interval:	5.0 nm
EM  Start WL:	230.0 nm
EM  End WL:	650.0 nm
EM Sampling interval:	5.0 nm
Scan speed:	12000 nm/min
EX Slit:	5.0 nm
EM Slit:	5.0 nm
PMT Voltage:	700 V
Response:	Auto 
Corrected spectra:	Off
Contour interval:	50.000

Peak integration
Integration method:	Rectangular
Sensitivity:	1
Threshold:	1.000

Peaks
No.	ApexEX/EM(nm)	Height(Data)
1	225.0/305.0	2966
2	225.0/345.0	3821
3	250.0/545.0	170.7
4	255.0/560.0	153.1
5	260.0/575.0	143.8
6	265.0/590.0	167.6
7	270.0/600.0	180.6
8	275.0/310.0	2669
9	275.0/345.0	3581
10	275.0/610.0	173.9
11	395.0/305.0	6.724
12	455.0/345.0	9.754
13	560.0/345.0	15.72
14	565.0/340.0	15.79

Data points
	220.0	225.0	230.0	235.0	240.0	245.0	250.0	255.0	260.0	265.0	270.0	275.0	280.0	285.0	290.0	295.0	300.0	305.0	310.0	315.0	320.0	325.0	330.0	335.0	340.0	345.0	350.0	355.0	360.0	365.0	370.0	375.0	380.0	385.0	390.0	395.0	400.0	405.0	410.0	415.0	420.0	425.0	430.0	435.0	440.0	445.0	450.0	455.0	460.0	465.0	470.0	475.0	480.0	485.0	490.0	495.0	500.0	505.0	510.0	515.0	520.0	525.0	530.0	535.0	540.0	545.0	550.0	555.0	560.0	565.0	570.0	575.0	580.0	585.0	590.0	595.0	600.0
230.0	107.6	3156	8485	2770	108.7	16.00	13.26	11.70	10.21	8.580	9.337	8.882	7.796	6.780	5.817	4.846	4.328	3.914	3.847	3.377	3.062	2.840	2.761	2.617	2.456	2.354	2.242	2.130	2.039	2.047	1.860	1.822	1.617	1.655	1.434	1.369	1.297	1.129	1.071	1.069	1.019	1.105	1.149	1.003	0.904	0.838	3.816	20.52	38.28	28.53	10.51	2.289	0.743	0.617	0.614	0.579	0.586	0.604	0.579	0.570	0.542	0.518	0.515	0.519	0.473	0.526	0.528	0.484	0.461	0.491	0.483	0.443	0.456	0.443	0.518	0.457	0.447
235.0	131.5	843.8	4929	8929	3129	181.1	16.29	13.17	11.86	10.66	9.277	9.350	8.292	6.896	6.100	4.835	3.996	4.472	3.770	3.148	3.165	2.868	3.010	2.709	2.532	2.617	2.335	2.026	2.301	2.080	1.980	1.877	1.679	1.702	1.433	1.394	1.185	1.213	1.162	0.995	1.031	0.951	1.114	1.087	1.097	0.974	1.576	5.385	13.49	25.51	39.56	26.44	17.01	4.339	0.827	0.619	0.657	0.571	0.558	0.550	0.623	0.561	0.581	0.576	0.477	0.592	0.448	0.479	0.453	0.470	0.555	0.564	0.462	0.430	0.553	0.434	0.449
240.0	158.5	287.7	1420	7388	9999.9	2463	87.54	17.14	14.31	13.09	10.98	10.27	9.144	7.250	6.382	5.867	4.282	4.281	3.817	3.384	3.435	3.348	2.998	2.966	2.649	2.527	2.461	2.120	2.043	2.144	2.040	1.988	1.715	1.520	1.332	1.462	1.355	1.241	1.217	1.117	1.100	1.044	0.955	1.026	0.984	1.061	1.212	1.829	3.660	7.369	19.96	48.35	65.70	26.68	15.06	2.811	0.774	0.663	0.665	0.598	0.616	0.604	0.640	0.618	0.550	0.555	0.490	0.495	0.549	0.451	0.563	0.495	0.482	0.428	0.519	0.465	0.486
245.0	126.8	218.3	383.6	2464	9999.9	9999.9	438.3	40.96	19.37	16.09	12.94	11.54	9.784	7.827	7.207	6.434	4.890	4.119	3.807	3.595	3.406	3.523	2.994	3.021	2.952	2.898	2.521	2.317	2.111	2.132	1.903	1.825	1.637	1.622	1.597	1.439	1.329	1.229	1.060	1.136	1.125	1.028	0.928	0.942	0.877	1.049	1.190	1.330	1.593	2.211	5.128	15.89	43.28	76.60	82.84	25.07	11.60	1.533	0.865	0.615	0.672	0.590	0.685	0.561	0.583	0.549	0.578	0.583	0.517	0.520	0.555	0.518	0.481	0.452	0.509	0.587	0.488
250.0	80.13	150.1	232.6	644.0	3236	9999.9	9999.9	4624	128.3	22.41	17.08	14.77	12.26	9.619	7.977	6.614	5.648	4.800	4.355	4.123	3.695	3.481	3.272	3.079	2.939	2.784	2.640	2.502	2.474	2.464	2.127	1.937	1.808	1.644	1.673	1.520	1.400	1.338	1.266	1.224	1.138	1.069	1.094	1.077	0.945	0.950	1.025	1.209	1.348	1.328	1.827	4.155	10.67	24.01	48.41	73.70	102.9	85.09	53.46	9.880	1.792	0.797	0.711	0.621	0.644	0.627	0.661	0.559	0.595	0.577	0.576	0.581	0.588	0.515	0.544	0.590	0.558
255.0	80.36	87.62	146.0	320.6	798.5	2521	9999.9	9999.9	2330	149.0	27.52	19.64	16.47	11.36	9.387	7.388	6.802	5.580	5.146	4.612	4.075	3.559	3.674	3.410	2.948	2.887	2.642	2.697	2.625	2.517	2.373	2.082	1.829	1.939	1.843	1.565	1.442	1.398	1.315	1.238	1.224	1.232	1.122	1.111	1.015	0.969	0.893	0.975	0.989	1.094	1.364	2.052	3.244	6.009	11.51	17.83	36.71	89.17	168.2	170.1	29.08	13.66	1.341	0.776	0.833	0.773	0.713	0.735	0.660	0.661	0.627	0.676	0.715	0.576	0.659	0.659	0.590
260.0	81.39	64.93	81.84	215.7	351.1	632.4	3110	9999.9	9999.9	1875	91.66	28.14	20.03	13.73	11.30	8.394	7.286	6.361	6.051	4.697	4.516	4.062	3.960	3.602	3.350	3.017	2.931	2.779	2.630	2.618	2.494	2.469	1.824	1.916	1.945	1.706	1.527	1.357	1.460	1.288	1.177	1.199	1.099	1.207	1.008	1.000	0.944	0.917	0.933	0.867	1.048	1.587	2.042	2.306	3.310	4.764	9.161	24.23	72.60	162.5	217.7	176.2	24.82	8.657	1.109	0.936	0.945	0.759	0.849	0.705	0.755	0.686	0.672	0.698	0.692	0.729	0.623
265.0	89.87	73.86	64.65	118.3	291.0	294.2	773.6	4450	9999.9	9999.9	1403	50.89	28.13	18.88	13.87	10.09	8.232	7.194	6.519	4.883	4.711	4.609	4.092	3.719	3.586	3.304	3.181	2.961	2.895	2.627	2.599	2.418	2.124	2.094	1.857	1.738	1.538	1.560	1.470	1.504	1.441	1.244	1.078	1.187	1.160	1.100	0.952	0.972	0.937	0.794	0.856	1.233	1.714	1.985	2.038	2.048	2.935	6.416	17.65	47.51	121.4	240.9	242.3	162.1	20.25	3.385	1.068	1.001	0.907	0.817	0.781	0.800	0.733	0.694	0.789	0.769	0.662
270.0	328.7	279.9	189.2	117.4	181.4	319.2	381.9	1123	5072	9999.9	9999.9	5186	88.09	28.96	19.33	13.78	10.87	8.771	7.310	6.224	5.353	4.915	4.500	4.204	4.068	3.624	3.463	3.103	2.962	2.975	2.912	2.747	2.455	2.347	2.047	2.059	1.855	1.801	1.808	1.665	1.637	1.724	1.562	1.697	1.713	1.612	1.417	1.532	1.420	1.141	0.967	1.073	1.287	1.556	1.948	2.275	2.295	2.794	5.165	11.72	29.24	69.78	129.4	218.9	238.0	202.5	113.7	13.59	4.011	1.209	1.041	0.955	0.908	0.903	0.874	0.886	0.763
275.0	855.9	804.9	570.1	233.9	139.7	232.1	463.1	522.5	1306	3094	9999.9	9999.9	6903	96.11	31.21	20.87	15.10	11.98	9.727	7.938	6.760	5.594	5.059	4.544	4.474	3.889	4.054	3.534	3.217	3.308	3.076	2.887	3.119	2.828	2.840	2.829	2.763	2.432	2.503	2.422	2.057	2.482	2.515	2.629	2.694	2.602	2.567	2.557	2.341	1.710	1.331	1.265	1.204	1.383	1.419	1.882	2.611	3.306	3.268	4.139	7.964	16.96	30.42	51.52	74.90	174.4	365.7	413.3	184.6	20.22	2.917	1.482	1.290	1.249	1.148	1.127	0.957
280.0	1455	1364	919.3	358.1	163.0	193.9	387.9	597.2	562.6	967.1	4346	9999.9	9999.9	1065	62.56	27.51	19.05	14.18	11.75	8.549	8.199	6.583	5.919	5.414	4.713	4.639	4.349	4.069	3.713	3.428	3.463	3.370	3.173	3.239	3.501	3.732	3.210	3.143	2.928	2.766	2.815	3.064	3.164	3.360	3.585	4.080	3.549	3.858	3.165	2.425	1.700	1.475	1.316	1.418	1.611	1.573	2.204	2.742	3.785	3.737	3.976	5.504	8.680	13.48	18.99	44.86	133.4	313.0	471.5	254.4	31.41	14.13	2.103	1.454	1.454	1.410	1.363
285.0	1949	1894	1296	519.7	209.0	204.7	313.6	630.4	702.2	653.5	1433	6659	9999.9	9999.9	742.1	43.04	26.20	18.80	14.28	10.58	9.150	7.316	6.550	6.319	5.128	5.190	4.442	4.441	3.973	3.563	3.697	3.334	3.273	3.809	4.185	4.580	3.996	3.668	3.668	3.188	3.395	3.737	4.044	4.302	4.432	5.245	4.742	4.821	4.091	2.951	2.190	1.826	1.582	1.561	1.700	1.708	2.017	2.328	3.147	3.931	4.478	4.329	4.554	5.662	7.020	12.74	32.96	82.54	198.9	381.3	505.9	235.1	25.84	7.655	1.962	1.777	1.516
290.0	2574	2499	1701	703.6	276.0	261.5	353.3	569.6	947.0	1115	1213	2372	6967	9999.9	9999.9	2993	59.67	28.13	19.63	14.51	10.97	9.248	8.098	7.214	6.535	5.482	5.017	4.892	4.345	4.091	4.009	3.641	3.728	4.268	4.965	5.147	4.939	4.394	4.097	4.117	4.185	4.567	4.813	5.261	5.899	6.348	6.185	6.078	5.245	3.806	2.786	2.305	1.905	1.831	1.890	1.980	2.103	2.415	3.021	3.434	4.498	5.275	6.016	6.064	6.303	7.285	11.87	22.71	49.00	101.4	202.8	306.9	408.3	378.9	142.6	18.01	7.787
295.0	2920	2842	1952	872.9	370.0	325.9	445.7	658.9	1014	1560	1815	1853	2548	3541	9999.9	9999.9	4169	61.76	28.91	19.86	15.45	11.79	10.10	8.517	7.604	6.444	5.839	5.401	4.807	4.654	4.246	4.212	4.157	4.641	5.616	5.541	5.788	5.220	4.917	4.814	4.903	4.912	5.294	5.456	6.377	7.173	6.944	6.642	6.156	4.341	3.250	2.734	2.314	2.045	2.126	2.317	2.374	2.724	3.604	3.830	4.592	5.288	6.399	8.161	9.296	8.728	8.992	11.34	17.10	28.21	49.76	72.46	106.6	203.3	437.7	625.0	256.5
300.0	3019	2925	2013	968.7	442.9	388.5	515.6	754.7	1116	1654	2280	2125	1802	1480	4327	9999.9	9999.9	621.5	49.05	27.15	19.25	14.59	11.91	10.31	8.594	7.527	6.439	5.876	5.627	5.187	4.493	4.642	4.435	4.773	5.715	6.044	6.302	5.559	5.302	4.982	4.926	5.135	5.575	5.680	6.595	7.366	7.046	7.267	6.275	4.642	3.403	3.249	2.443	2.367	2.512	2.640	2.894	3.252	3.673	4.221	5.015	6.041	6.712	8.091	9.936	10.73	10.99	9.887	10.81	12.45	16.35	20.59	27.18	49.84	132.0	351.8	610.5
305.0	2947	2966	2028	1019	527.5	457.4	594.1	848.3	1237	1750	2391	2579	1857	1156	1341	6499	9999.9	9999.9	456.1	38.72	25.31	18.00	13.82	11.48	9.925	8.471	7.239	6.686	5.912	5.541	5.177	4.615	4.782	4.959	5.685	6.724	6.333	5.916	5.481	5.222	5.092	5.218	5.623	6.081	6.620	7.559	7.105	7.482	6.243	4.811	3.667	3.544	2.807	2.740	2.632	2.835	3.151	3.624	4.053	4.603	5.872	6.491	7.183	8.203	9.808	10.79	12.42	11.96	10.61	9.954	9.783	9.421	9.719	14.19	32.38	86.34	215.1
310.0	2792	2759	1931	1026	581.7	522.5	668.1	932.2	1334	1845	2362	2669	2265	1324	787.5	1731	6549	9999.9	9999.9	2122	48.80	26.83	18.93	15.10	12.08	10.10	8.941	7.547	6.570	6.199	5.641	5.067	4.865	5.095	5.799	6.347	6.067	6.102	5.594	5.178	5.242	5.358	5.630	5.892	6.393	7.076	6.952	7.067	6.104	4.799	3.774	3.692	3.135	3.071	2.839	3.187	3.591	3.960	4.521	5.167	6.098	6.997	7.764	8.876	9.902	10.85	11.73	12.38	12.12	11.49	9.822	7.923	6.786	6.918	10.19	22.11	50.91
315.0	2674	2609	1880	1032	650.4	605.7	770.1	1047	1451	1963	2443	2622	2407	1759	875.2	745.3	1682	3052	9999.9	9999.9	3224	53.75	28.57	21.08	15.62	12.48	10.14	8.609	7.859	7.056	6.133	5.858	5.324	5.631	5.727	5.833	5.859	6.213	5.545	5.066	5.230	5.388	5.743	5.686	6.360	6.706	6.940	6.862	6.128	4.917	3.784	3.829	3.385	3.312	3.429	3.510	3.811	4.393	5.001	5.671	6.456	7.254	8.336	9.587	10.43	11.23	11.66	12.18	11.78	11.90	11.41	9.754	7.622	6.104	5.985	8.244	14.43
320.0	2592	2712	1978	1121	734.2	700.1	866.2	1170	1589	2101	2575	2732	2490	2023	1117	667.3	690.7	905.2	4043	9999.9	9999.9	478.4	44.86	27.58	19.02	14.72	12.00	10.19	8.864	7.859	6.589	6.235	5.514	5.558	5.693	5.692	5.557	5.896	5.490	5.190	5.452	5.417	5.851	5.870	6.585	6.832	7.190	7.355	6.210	4.910	3.972	3.883	3.615	3.744	3.597	4.080	4.362	4.783	5.323	6.296	7.112	8.154	8.556	9.874	11.27	11.70	12.14	12.41	11.98	12.18	11.71	10.43	9.595	7.596	6.071	5.636	6.811
325.0	2856	2905	2236	1249	827.4	797.1	957.7	1272	1740	2256	2745	2905	2642	2138	1539	844.5	565.5	478.7	1117	6117	9999.9	9999.9	369.4	37.29	24.41	17.62	14.02	11.16	10.35	8.631	7.538	6.352	6.000	5.489	5.709	5.981	5.892	5.968	5.850	5.501	5.620	5.825	6.178	6.378	7.251	7.587	7.323	7.396	6.720	5.367	4.339	4.310	4.137	3.852	4.075	4.234	4.548	5.315	5.769	6.395	7.473	8.609	9.290	10.39	11.84	12.05	12.62	12.89	12.89	12.87	11.68	11.01	10.25	9.549	7.867	6.274	5.746
330.0	3208	3283	2603	1555	985.6	914.6	1093	1423	1923	2464	2963	3164	2933	2376	1732	1180	718.5	473.1	496.5	1570	6193	9999.9	9999.9	1767	43.35	26.07	18.60	14.34	12.50	10.23	8.578	7.713	6.267	6.135	6.063	5.944	6.095	5.877	5.902	5.827	5.809	6.072	6.158	6.732	7.617	8.461	8.238	8.487	7.716	6.240	5.223	5.362	4.658	4.211	4.285	4.777	5.239	5.708	6.476	7.177	8.276	9.167	10.19	11.46	12.47	12.87	13.44	14.00	13.90	13.57	12.94	11.77	11.25	9.952	9.032	8.116	7.045
335.0	3535	3541	2837	1774	1162	1052	1220	1593	2106	2679	3184	3415	3206	2649	1937	1318	1011	611.5	430.0	569.8	1519	2953	9999.9	9999.9	2842	47.49	26.74	18.91	14.68	12.56	10.08	8.702	7.384	6.649	6.484	6.366	6.558	6.269	6.208	5.725	6.004	6.256	6.630	7.301	8.012	8.814	9.103	9.357	8.511	6.801	5.535	5.783	5.379	5.043	4.817	5.317	5.810	6.160	6.919	7.922	8.539	9.596	11.09	12.38	13.32	14.02	14.31	15.10	14.72	14.94	13.78	13.30	12.71	11.16	9.579	8.520	7.886
340.0	3591	3756	2983	1926	1256	1149	1317	1676	2207	2801	3300	3558	3355	2830	2078	1373	1079	772.6	474.6	383.0	501.6	776.7	3951	9999.9	9999.9	413.0	40.98	23.46	18.91	14.43	11.81	9.745	8.200	7.348	6.832	6.414	6.808	6.335	6.305	6.150	6.324	6.422	7.027	7.554	8.271	9.156	9.373	9.591	9.023	7.144	5.929	6.352	5.400	5.375	5.115	5.591	6.240	6.330	6.993	8.063	9.012	10.31	10.77	12.68	13.40	14.51	15.08	15.60	15.55	15.79	14.30	14.42	13.43	11.75	9.960	8.906	8.212
345.0	3600	3821	3040	1948	1306	1191	1353	1720	2244	2832	3319	3581	3393	2884	2156	1430	1041	871.7	579.5	376.9	301.2	306.5	1001	5979	9999.9	9999.9	347.0	33.92	22.82	16.60	13.05	11.06	8.602	7.598	7.313	6.739	6.668	6.483	6.187	6.268	6.346	6.318	7.226	7.457	8.319	9.225	9.221	9.754	9.039	7.268	6.131	6.660	5.560	5.574	5.137	5.603	6.231	6.974	7.378	8.596	9.292	10.18	11.42	12.85	13.51	14.92	15.12	15.49	15.72	15.72	14.46	14.70	13.74	12.41	10.37	9.111	8.238
350.0	3627	3704	2910	1925	1366	1232	1379	1732	2246	2786	3273	3485	3339	2891	2186	1458	1045	831.4	698.3	487.1	314.4	248.7	357.8	1465	5985	9999.9	9999.9	1631	39.58	23.05	16.90	12.89	9.995	8.419	7.480	6.976	6.748	6.570	6.478	6.474	6.381	6.438	7.156	7.603	8.333	8.952	8.857	9.369	8.649	7.068	6.038	6.291	5.588	5.565	5.167	5.726	6.294	6.819	7.395	8.575	9.300	10.50	11.47	12.50	13.43	14.44	14.67	15.15	15.59	15.67	14.81	14.15	13.81	11.93	10.74	9.394	8.526
355.0	3496	3595	2741	1860	1361	1264	1396	1716	2216	2723	3166	3363	3242	2828	2175	1472	1074	837.7	692.3	624.0	422.1	293.6	263.0	462.9	1439	2804	9999.9	9999.9	2827	44.85	23.38	16.91	12.43	9.887	8.581	7.436	7.152	6.547	6.236	6.262	6.389	6.565	7.262	7.784	8.305	8.792	8.728	9.317	7.910	6.697	5.804	6.342	5.291	5.512	5.335	5.719	6.182	6.757	7.240	8.355	8.997	10.30	11.31	12.07	13.12	13.50	13.88	14.29	15.03	14.91	14.35	14.30	13.85	12.09	10.28	9.239	8.289
360.0	3375	3409	2569	1797	1361	1273	1379	1721	2158	2634	3038	3223	3098	2750	2134	1469	1096	855.3	697.0	637.9	545.5	367.0	281.5	275.0	449.7	728.5	3486	9999.9	9999.9	2315	39.58	21.75	15.35	12.01	9.359	8.179	7.482	6.639	6.745	6.528	6.502	6.608	7.241	7.533	7.995	8.671	8.440	8.604	7.888	6.260	5.855	6.210	5.594	5.705	5.293	5.901	6.370	6.521	7.504	8.292	8.951	10.37	10.66	11.96	12.47	13.41	13.75	14.16	14.78	14.02	13.81	13.42	13.59	11.84	10.23	9.029	8.435
365.0	3265	3177	2411	1724	1370	1266	1384	1660	2071	2539	2891	3077	2974	2635	2070	1451	1098	883.9	729.8	640.2	599.2	479.6	335.4	271.7	258.7	279.7	876.6	4951	9999.9	9999.9	358.8	33.09	19.45	14.61	11.41	8.712	8.229	7.229	7.114	6.777	6.288	6.711	7.188	7.133	7.880	8.476	8.143	8.583	7.370	6.095	5.770	5.992	5.712	5.284	5.436	6.003	6.231	6.314	7.185	8.175	8.931	9.697	10.58	11.44	12.40	13.05	13.25	13.47	13.57	13.68	13.34	13.06	13.34	11.25	10.02	8.778	8.425
370.0	3054	2991	2250	1640	1336	1253	1369	1599	1964	2380	2709	2865	2780	2481	1978	1422	1109	916.7	784.2	682.6	610.4	573.5	466.4	338.9	268.5	219.5	310.1	1207	5092	9999.9	9999.9	7235	36.44	20.33	15.11	10.63	9.427	7.949	7.617	7.005	6.651	6.689	7.043	7.081	7.882	8.055	7.742	8.050	6.957	5.760	5.454	5.956	5.613	5.362	5.421	5.790	6.115	6.402	7.179	7.779	8.391	9.209	10.05	11.04	11.56	12.28	12.45	12.75	12.53	13.09	12.50	12.84	12.43	11.18	9.945	9.047	8.267
375.0	2878	2767	2102	1569	1328	1246	1299	1525	1845	2197	2499	2627	2566	2325	1883	1395	1123	962.3	837.9	744.2	653.8	596.7	571.4	461.8	330.8	253.9	220.2	379.1	1221	2644	9999.9	9999.9	2658	41.03	19.65	14.24	11.11	9.149	8.618	7.617	7.208	7.125	6.822	7.112	7.428	7.770	7.174	7.558	6.916	5.659	5.015	5.774	5.748	5.378	5.479	5.626	6.073	6.262	6.863	7.554	8.027	9.232	9.538	10.49	10.61	10.95	11.43	11.53	11.92	11.68	11.50	11.82	11.55	10.80	9.726	8.885	8.273
380.0	2665	2612	1989	1535	1314	1226	1276	1480	1754	2061	2329	2442	2400	2192	1807	1372	1134	983.0	873.1	787.5	696.6	629.6	593.7	552.2	406.4	295.4	228.7	216.8	372.6	673.9	3157	9999.9	9999.9	2160	34.33	18.11	13.65	10.25	9.207	7.745	7.256	7.201	7.151	6.965	7.011	7.492	7.150	7.370	6.561	5.385	4.931	5.695	5.451	5.440	5.451	5.715	6.053	6.227	6.595	7.133	7.836	8.311	8.844	9.835	10.21	10.16	10.73	11.01	11.16	11.39	10.98	10.98	10.86	10.44	9.483	8.622	8.086
385.0	2596	2439	1898	1446	1278	1228	1257	1426	1663	1935	2173	2292	2245	2078	1734	1354	1146	997.2	903.9	817.5	738.5	664.9	610.8	574.2	495.7	351.0	268.6	211.6	208.5	247.4	790.2	4062	9999.9	9999.9	307.1	26.99	16.51	12.78	10.36	8.636	7.569	7.367	6.904	6.878	7.014	7.194	7.149	7.348	6.254	5.243	5.050	5.694	5.362	5.766	5.378	5.584	5.797	6.124	6.753	7.131	7.408	7.832	9.025	9.120	9.580	9.564	10.24	10.44	10.63	11.13	10.51	10.11	10.67	10.02	9.285	8.549	7.920
390.0	2406	2251	1782	1411	1259	1208	1236	1368	1562	1791	2006	2112	2090	1943	1651	1336	1145	1020	928.4	854.3	779.9	718.2	655.1	590.4	551.7	463.5	340.1	262.1	219.9	193.9	283.2	998.2	3954	9999.9	9999.9	6469	30.74	17.06	12.84	9.893	8.405	7.568	7.108	7.123	6.836	7.143	6.681	6.747	5.992	5.301	4.779	5.713	5.301	5.624	5.382	5.471	5.828	5.876	6.328	6.696	6.942	7.731	7.970	8.566	8.829	9.005	9.366	9.878	9.946	9.909	9.819	9.966	9.962	9.496	8.800	8.615	8.129
395.0	2187	2005	1656	1362	1241	1176	1192	1310	1459	1679	1850	1950	1928	1806	1570	1305	1143	1032	945.7	872.5	816.1	762.5	698.3	632.3	577.5	533.2	450.6	340.0	275.6	230.1	210.7	336.3	970.3	2443	9999.9	9999.9	2304	35.62	17.41	12.28	10.18	8.242	7.793	7.604	7.341	6.876	6.520	6.590	5.835	5.089	4.770	5.328	5.478	5.351	5.269	5.429	5.589	5.925	6.097	6.600	6.426	7.249	7.614	8.154	8.273	8.334	8.648	9.278	9.540	9.329	9.251	9.218	9.371	8.853	8.217	8.615	7.927
400.0	2038	1910	1576	1337	1224	1168	1172	1257	1403	1586	1742	1832	1812	1699	1498	1280	1129	1025	943.9	882.3	829.1	776.5	728.6	667.5	599.9	551.3	517.7	415.3	327.2	272.2	223.7	215.1	321.9	625.4	2663	9999.9	9999.9	2032	31.34	15.57	11.90	9.505	8.381	7.581	7.560	6.698	6.461	6.441	5.821	4.845	4.936	5.213	5.360	5.171	5.376	5.509	5.719	5.800	6.270	6.604	6.560	7.103	7.230	7.446	7.825	7.972	8.108	8.618	9.101	8.559	8.935	8.507	9.234	8.811	8.353	8.064	8.066
405.0	1933	1812	1524	1299	1212	1149	1157	1216	1348	1529	1653	1728	1720	1617	1442	1244	1116	1018	932.5	879.1	831.0	789.1	745.7	693.0	630.9	569.6	535.1	488.2	385.9	317.0	257.9	213.7	198.6	233.2	664.6	3060	9999.9	9999.9	1606	24.97	14.06	10.47	9.058	7.629	7.365	6.387	6.271	6.200	5.768	4.900	4.650	5.406	5.188	5.378	5.221	5.445	5.712	5.892	5.867	6.325	6.068	6.822	6.911	7.369	7.898	7.937	7.603	8.163	8.220	8.036	8.186	8.096	8.232	8.537	8.216	7.672	7.986
410.0	1777	1673	1415	1277	1183	1125	1127	1200	1299	1443	1558	1617	1601	1506	1355	1185	1070	983.4	909.9	864.6	821.8	787.1	754.6	708.7	658.0	601.3	551.4	523.0	471.4	385.1	308.6	250.2	201.0	169.0	233.5	747.5	3087	9999.9	9999.9	6069	27.53	13.85	10.71	8.632	7.652	6.695	6.314	6.019	5.559	4.917	4.681	5.395	5.279	5.224	5.145	5.387	5.705	5.741	5.786	5.913	6.106	6.382	6.688	6.938	7.208	7.084	7.303	7.786	7.822	7.644	7.799	8.055	7.659	7.978	7.784	7.410	7.583
415.0	1633	1508	1319	1205	1138	1092	1093	1167	1243	1371	1462	1509	1472	1380	1259	1114	1016	937.5	875.7	832.3	793.5	771.3	743.9	709.6	668.9	623.4	573.7	527.3	505.9	463.0	362.7	289.1	228.3	176.8	155.8	241.3	743.4	2329	7397	9999.9	2118	32.98	13.52	10.24	8.430	7.272	6.301	6.130	5.469	4.922	4.692	5.456	5.064	5.099	4.881	5.099	5.723	5.399	5.573	5.744	6.106	6.015	6.460	6.831	6.860	7.035	7.148	7.288	7.336	7.209	7.468	7.299	6.801	7.631	7.233	7.027	6.979
420.0	1495	1455	1305	1179	1107	1089	1077	1128	1200	1301	1396	1429	1376	1299	1177	1052	974.9	894.6	839.8	796.5	767.4	752.5	733.6	701.2	667.4	626.5	581.3	540.3	508.0	497.4	415.4	320.2	252.0	192.8	149.6	139.7	228.4	565.0	1859	9779	9999.9	1944	27.86	12.25	9.857	8.240	6.652	6.022	5.630	4.991	4.648	5.497	5.139	5.487	4.939	5.185	5.535	5.384	5.774	5.507	5.821	5.961	6.059	6.504	6.475	6.941	6.411	6.971	6.930	6.947	6.963	6.838	7.201	6.844	6.734	6.675	6.600
425.0	1427	1363	1241	1124	1089	1048	1050	1107	1169	1270	1330	1354	1300	1218	1112	1004	923.9	862.2	801.4	776.1	745.5	726.3	715.7	689.6	665.8	632.0	593.0	553.4	515.7	493.4	454.2	357.0	274.5	212.8	162.9	126.9	123.8	179.5	456.2	2622	9999.9	9999.9	1553	22.38	11.46	8.894	7.317	6.751	5.719	5.032	4.520	5.029	5.141	5.265	5.259	4.940	5.362	5.420	5.633	5.363	5.958	5.726	5.914	6.166	6.461	6.561	6.282	6.526	6.486	6.741	6.554	6.418	6.962	6.696	6.691	6.407	6.488
430.0	1960	1254	1169	1071	1037	1033	1040	1082	1145	1220	1272	1278	1217	1132	1028	938.7	862.2	807.5	758.8	733.5	708.5	698.1	689.4	678.1	654.4	629.7	599.4	563.4	531.9	497.6	462.9	406.8	315.3	240.8	185.1	142.1	115.4	105.1	151.0	624.1	2707	9494	9999.9	5240	25.23	12.38	8.707	7.338	5.993	5.060	4.777	5.390	5.223	5.279	5.056	4.902	5.284	5.576	5.577	5.681	5.796	5.620	5.817	6.209	6.409	6.327	6.050	6.220	6.110	6.320	6.157	6.077	6.202	6.440	6.207	6.198	6.207
435.0	3828	1253	1110	1054	1011	1004	1014	1064	1117	1183	1228	1203	1138	1047	958.6	871.8	808.3	753.2	719.0	693.6	668.8	667.0	665.2	658.4	640.4	620.6	594.7	567.9	544.5	509.6	466.2	418.5	362.0	274.7	209.5	163.7	127.8	101.3	94.94	186.0	640.6	2178	5924	9999.9	7290	30.86	11.75	8.931	6.937	5.559	4.908	5.650	5.385	5.287	5.125	5.232	5.325	5.440	5.510	5.559	5.642	5.725	5.411	6.160	6.182	5.881	5.884	5.973	5.895	5.888	5.690	5.873	5.683	5.815	5.664	5.444	5.964
440.0	5372	1705	1056	1009	999.1	978.2	1005	1040	1089	1140	1167	1144	1065	991.0	908.7	814.2	775.4	712.1	680.8	660.4	640.4	640.0	636.3	640.2	621.8	605.4	591.3	567.4	542.7	512.1	466.7	414.4	374.5	302.6	227.0	175.7	140.5	108.4	90.54	94.81	185.8	519.9	1468	8390	9999.9	1816	24.65	11.09	8.247	6.101	5.460	5.761	5.593	5.290	5.147	5.226	5.582	5.543	5.491	5.312	5.532	5.772	5.666	5.910	5.714	5.463	5.564	5.897	5.496	5.525	5.578	5.434	5.684	5.518	5.265	5.474	5.366
445.0	5444	3065	1048	972.2	968.1	955.7	985.3	1023	1052	1093	1110	1088	1011	929.4	855.2	767.0	723.0	681.6	648.3	626.1	611.3	612.6	613.2	612.8	606.2	590.0	576.5	559.4	537.2	512.6	467.4	412.9	367.6	322.2	247.5	190.0	153.7	120.1	97.03	83.10	89.86	155.1	359.9	2248	9999.9	9999.9	1347	20.64	9.812	6.738	5.979	6.053	5.549	5.353	4.998	5.060	5.175	5.327	5.545	5.255	5.280	5.483	5.807	5.910	5.472	5.450	5.458	5.567	5.373	5.078	5.277	5.191	5.227	5.274	4.866	5.145	5.028
450.0	3225	5275	1684	916.5	912.1	920.3	928.0	969.9	1000	1032	1037	1008	919.6	849.0	766.2	699.4	661.6	619.7	593.0	572.0	563.2	563.7	567.0	569.0	567.1	553.0	546.9	532.7	518.3	497.7	457.6	407.8	354.0	315.7	268.2	210.6	167.5	133.3	110.0	91.29	78.43	81.02	117.0	532.0	2661	8804	9999.9	4720	21.31	9.192	6.973	6.491	5.939	5.481	5.127	5.039	5.312	5.277	5.515	5.390	5.095	5.483	5.373	5.348	5.549	5.293	5.124	5.264	4.892	4.850	4.987	4.972	4.854	4.957	4.657	4.878	4.678
455.0	1475	5080	4068	937.2	863.5	846.6	868.4	912.4	928.1	950.5	948.0	916.8	827.1	765.6	681.0	624.3	592.5	556.6	532.0	514.0	509.7	509.9	514.7	518.0	519.5	513.1	506.0	497.8	489.8	470.6	438.4	392.3	344.4	301.3	265.8	229.6	182.8	145.0	122.0	101.2	84.11	72.02	67.81	150.6	618.3	2012	5176	9999.9	5851	22.93	9.412	7.568	6.584	5.835	5.367	4.975	5.264	5.089	5.121	4.924	4.889	5.002	5.290	5.144	4.992	5.029	4.691	4.831	4.487	4.470	4.633	4.545	4.602	4.390	4.304	4.303	4.652
460.0	953.7	3163	6155	1448	782.0	789.0	815.6	849.8	865.5	882.7	872.1	851.1	756.7	695.9	627.8	573.1	537.2	511.8	489.3	472.0	467.1	472.3	477.0	480.6	481.2	479.9	472.8	470.1	465.5	451.3	420.9	379.6	332.4	289.5	255.2	232.2	195.0	153.5	127.8	107.2	89.49	74.26	60.71	68.51	165.0	470.4	1255	6994	9999.9	1381	20.20	9.342	7.139	6.003	5.751	5.229	5.105	4.763	4.988	4.835	4.873	4.894	5.033	4.981	4.789	4.777	4.532	4.672	4.515	4.215	4.258	4.218	4.349	4.146	4.145	4.123	4.063
465.0	793.0	1564	6298	3114	758.4	752.1	781.6	803.2	804.9	822.6	816.3	777.1	702.1	635.5	577.0	526.8	488.3	468.0	445.0	436.1	432.1	437.8	439.4	447.5	450.9	446.8	442.5	439.0	435.4	427.7	402.5	363.5	321.3	283.6	244.5	221.3	201.0	161.2	133.4	111.7	93.36	75.96	61.67	53.06	66.08	128.0	300.6	1825	9226	9999.9	1162	18.74	9.132	6.830	6.402	5.444	5.446	4.966	4.916	4.755	4.984	4.685	4.826	4.558	4.373	4.234	4.348	4.359	4.116	4.199	3.815	3.854	3.899	3.881	3.932	4.061	3.708
470.0	686.8	859.0	3678	6059	1466	674.3	693.4	733.3	729.5	744.7	737.2	691.5	622.8	561.3	514.0	464.7	431.7	409.5	395.2	385.7	382.2	387.2	388.8	396.0	401.3	397.3	396.1	395.6	392.8	387.1	367.6	336.5	299.2	263.4	232.2	204.3	187.7	166.0	137.6	113.3	95.40	78.90	63.31	51.36	45.24	52.71	86.66	424.2	2388	7075	9568	3683	21.06	8.928	6.753	6.011	5.672	5.085	4.927	4.889	4.780	4.432	4.331	4.256	4.107	4.094	4.056	4.016	3.932	3.902	3.583	3.509	3.730	3.616	3.451	3.657	3.410
475.0	630.4	637.7	1402	5882	4236	679.8	630.0	645.0	656.3	659.9	644.0	609.6	547.1	494.9	446.5	406.2	374.2	355.5	346.7	336.1	334.5	336.5	340.4	349.2	350.6	352.1	349.6	348.2	349.9	346.9	326.8	304.4	272.5	242.5	215.9	189.2	169.7	157.1	141.8	114.7	94.13	79.09	64.11	51.33	41.74	36.70	39.13	110.6	545.5	1603	3980	9999.9	1662	26.28	8.438	6.578	5.836	5.000	4.770	4.517	4.398	4.123	4.197	4.111	3.755	3.654	3.664	3.328	3.479	3.197	3.303	3.237	3.349	3.273	3.108	3.184	3.111
480.0	578.1	567.5	723.7	3678	6810	1152	586.6	597.1	599.7	608.0	591.4	552.6	497.3	454.4	405.2	367.1	342.0	323.6	313.8	306.7	302.2	307.2	309.3	317.8	317.3	321.4	321.5	318.6	321.1	319.6	304.3	284.2	257.1	228.0	204.1	180.7	162.3	146.5	135.8	118.1	94.28	78.88	63.97	51.46	41.37	33.66	29.40	41.21	135.1	369.6	949.9	5212	9963	1558	21.09	7.961	6.420	5.260	4.814	4.646	4.202	3.978	4.037	3.670	3.600	3.704	3.650	3.237	3.328	3.208	3.110	3.171	3.220	2.995	2.859	2.909	2.847
485.0	525.5	555.5	548.6	1693	7374	2966	557.5	556.8	568.5	561.7	539.8	514.8	464.5	409.5	367.9	334.4	310.7	294.1	290.0	278.3	278.7	278.6	282.9	290.1	294.7	295.4	296.3	297.7	297.2	297.5	284.0	263.7	240.6	217.7	193.6	173.0	153.7	138.2	129.5	118.2	96.19	78.40	64.84	52.49	42.25	33.95	28.12	27.28	44.54	95.33	224.2	1332	7065	9410	1180	16.49	7.818	6.092	5.003	4.828	4.080	4.236	3.920	3.649	3.598	3.483	3.329	3.224	3.194	3.184	2.999	2.855	2.895	3.141	2.694	2.758	2.699
490.0	475.0	526.3	480.1	750.8	4384	6423	1159	508.9	510.3	507.6	490.9	463.1	417.7	373.1	331.5	299.1	280.3	264.9	255.4	251.1	247.6	249.5	254.7	262.2	264.2	265.5	265.9	267.9	270.6	269.0	259.8	242.0	222.2	201.4	181.5	163.4	145.3	130.4	118.5	111.3	100.2	80.20	65.12	53.59	44.34	35.65	29.43	25.56	26.38	35.13	62.71	309.7	1810	5662	8251	3385	21.96	8.319	5.735	4.982	4.392	4.323	3.815	3.625	3.547	3.344	3.160	3.052	2.835	2.868	2.793	2.685	2.760	2.865	2.547	2.725	2.576
495.0	399.6	449.3	451.5	480.3	1510	6825	3471	489.4	461.3	459.8	440.1	409.6	369.4	331.0	295.5	264.1	243.8	234.4	223.7	219.9	218.8	221.3	224.8	230.2	233.3	234.1	234.4	238.2	239.9	240.3	230.8	219.2	201.0	183.7	165.4	149.3	135.6	121.2	111.7	101.4	94.85	83.85	67.12	54.29	45.24	37.49	31.48	26.67	23.97	23.66	28.29	82.52	416.5	1287	3768	9896	1866	28.36	7.968	5.718	4.704	4.540	3.978	3.661	3.392	3.272	3.049	2.859	2.696	2.751	2.681	2.457	2.416	2.528	2.366	2.489	2.417
500.0	364.3	377.7	421.3	396.8	616.8	4353	6978	844.0	421.5	415.0	400.1	372.4	332.6	297.6	265.3	236.4	218.9	210.5	201.4	198.6	199.3	198.4	202.4	207.3	211.5	211.2	214.4	214.9	218.6	218.8	211.3	199.4	184.9	170.0	153.4	139.8	128.0	114.9	104.1	94.04	86.86	81.69	69.80	53.89	45.64	38.44	33.39	27.53	24.26	21.78	21.33	32.42	106.3	300.9	907.1	5065	9715	1671	23.22	6.800	5.098	4.435	3.906	3.575	3.256	2.875	3.100	2.623	2.488	2.443	2.428	2.386	2.383	2.270	2.315	2.508	2.323
505.0	322.9	333.5	396.0	351.2	396.6	1963	8241	2345	392.2	374.5	363.5	339.3	303.9	269.1	241.1	218.1	200.7	193.0	182.7	180.3	180.4	178.7	185.1	187.4	190.8	190.3	193.0	193.7	197.1	198.9	195.0	184.4	168.3	155.5	140.5	129.9	118.4	108.5	97.46	88.11	80.82	75.18	69.11	54.70	45.19	38.78	32.80	28.45	24.52	21.98	20.31	21.76	37.41	80.56	216.1	1287	6476	8854	1292	16.53	6.148	4.959	3.958	3.470	3.132	2.834	2.925	2.656	2.514	2.426	2.208	2.243	2.011	1.997	2.259	2.128	2.221
510.0	279.1	294.1	326.2	334.7	314.2	705.8	5116	6580	816.1	337.4	324.1	297.0	266.1	237.7	211.4	189.0	173.8	167.1	159.0	157.2	156.5	156.1	160.6	161.8	165.3	165.7	167.4	169.9	171.4	174.3	170.5	161.7	149.7	137.9	126.3	115.3	107.3	97.37	89.55	81.20	73.83	66.82	63.62	55.67	46.05	37.89	32.80	28.37	25.05	22.30	20.30	19.42	22.02	31.04	60.67	299.1	1640	5092	6995	2713	20.61	6.336	4.336	3.699	3.421	2.916	2.627	2.490	2.367	2.227	2.052	1.933	1.969	1.878	2.060	1.984	1.917
515.0	250.0	248.5	269.7	306.0	280.4	352.2	1677	7966	2485	319.0	284.0	260.0	230.9	206.2	182.4	161.6	150.1	141.6	135.9	133.7	132.2	133.0	136.8	138.4	141.1	142.1	142.7	145.7	148.4	149.7	146.2	138.9	130.4	119.3	110.7	101.9	94.25	86.12	79.83	72.79	65.98	59.12	55.04	52.30	46.48	38.00	31.40	27.82	24.75	22.28	20.20	18.46	18.26	19.49	25.12	77.52	374.6	1151	2871	7503	1870	27.71	6.038	4.267	3.751	2.963	2.561	2.505	2.323	2.158	1.983	2.018	1.966	1.793	1.835	1.828	1.869
520.0	207.0	216.9	223.6	257.6	264.8	261.2	588.0	5353	6856	576.1	256.2	232.1	205.0	182.5	160.3	142.6	133.0	125.9	122.9	120.3	117.1	117.6	120.3	123.8	125.5	126.3	125.9	128.5	131.2	133.1	130.5	123.4	115.7	107.8	98.24	92.11	85.94	77.71	71.84	66.88	60.39	55.27	49.37	47.03	45.47	39.11	30.78	26.49	23.48	21.30	19.57	18.13	16.91	16.26	16.68	27.21	92.38	264.5	679.0	3677	7126	1625	22.04	4.906	4.216	2.983	2.604	2.506	2.318	2.004	2.032	1.852	1.761	1.844	1.742	1.623	1.657
525.0	190.2	199.6	201.1	219.7	261.2	225.7	311.3	2360	9186	1784	235.1	212.7	184.9	163.5	145.4	129.4	118.3	112.0	109.5	106.9	104.5	105.6	109.1	109.5	110.9	112.7	114.1	115.7	116.8	118.5	117.0	110.7	103.7	97.31	89.01	82.71	77.31	71.47	66.89	60.65	55.82	50.91	45.35	42.21	41.67	38.01	30.99	25.73	22.90	20.69	19.44	17.16	15.97	14.96	14.02	15.59	28.73	66.72	158.8	913.1	4393	6504	1261	15.55	4.819	3.229	2.653	2.614	2.172	2.074	1.843	1.756	1.727	1.778	1.517	1.627	1.523
530.0	185.2	181.3	176.6	183.0	230.1	215.2	216.4	741.8	6068	6605	562.1	185.8	162.9	142.9	125.5	110.0	103.4	97.78	92.39	92.84	89.99	90.76	93.07	93.97	94.86	96.93	96.66	98.36	99.84	101.9	100.4	95.74	90.42	84.64	78.01	72.79	67.21	62.85	59.01	54.02	50.02	45.45	41.06	37.86	35.17	34.69	31.11	25.68	21.96	19.46	17.98	16.01	14.87	13.71	13.01	12.07	14.13	21.70	41.63	209.7	1090	3468	5023	2118	20.43	4.630	3.080	2.675	2.132	2.081	1.869	1.699	1.673	1.602	1.431	1.575	1.362
535.0	157.4	160.2	155.0	152.6	180.3	201.1	182.5	298.0	1957	8788	1888	173.1	140.1	121.3	107.9	94.16	85.74	82.20	78.96	78.36	75.81	76.67	77.53	78.38	80.42	80.18	81.41	83.13	85.86	86.34	85.99	81.53	76.60	71.30	67.62	62.60	58.70	54.14	51.20	47.15	43.06	39.81	36.47	32.86	30.46	29.41	28.99	25.67	21.00	17.85	16.48	14.78	13.74	12.95	12.12	10.96	10.57	11.09	14.89	51.91	247.6	780.9	1857	5157	1868	27.99	4.254	2.957	2.335	2.034	1.675	1.748	1.479	1.580	1.387	1.339	1.340
540.0	166.8	160.4	150.3	136.1	149.0	196.7	167.1	185.4	594.0	5984	6711	226.6	124.0	107.7	95.55	84.98	77.55	73.57	69.96	67.06	66.00	67.35	68.98	68.03	69.11	71.57	71.31	72.46	74.73	74.87	74.49	71.42	67.01	61.37	58.99	55.43	52.36	48.16	45.94	41.69	39.49	35.51	32.73	30.26	27.55	25.56	25.64	24.49	20.56	16.63	15.58	14.15	12.90	11.52	11.25	10.49	9.129	8.195	8.514	16.48	59.52	178.7	431.5	2314	5090	1579	21.96	3.506	2.786	2.258	1.762	1.760	1.484	1.482	1.261	1.245	1.287
545.0	185.6	175.1	148.7	136.8	121.9	167.0	170.7	153.4	250.4	2529	9469	1221	115.9	99.65	86.62	73.87	67.03	65.22	61.81	59.63	59.37	59.38	60.31	61.24	61.69	62.73	61.46	65.20	65.02	66.02	65.42	63.22	59.08	53.49	51.74	48.72	45.35	43.03	40.20	37.59	34.83	31.42	29.43	27.27	24.92	22.71	22.06	21.62	19.89	15.98	14.00	13.20	11.79	10.86	10.54	9.858	8.367	7.086	6.774	8.073	17.31	43.77	100.6	558.5	2806	4690	1150	15.47	3.122	2.324	1.974	1.818	1.482	1.550	1.256	1.196	1.206
550.0	203.7	205.1	161.4	121.5	105.0	128.4	165.7	137.3	157.7	728.8	6168	5787	308.7	84.45	72.93	63.86	57.67	54.14	51.98	50.10	49.56	49.87	49.88	50.69	51.13	51.62	51.42	53.21	54.34	54.66	53.83	51.77	47.83	45.87	42.68	40.60	37.63	36.47	33.97	31.59	29.90	27.06	25.17	23.16	21.46	19.97	18.75	18.11	17.87	15.69	12.90	11.49	10.19	9.788	9.026	8.382	7.557	6.544	5.813	5.726	7.446	13.19	25.91	128.2	677.4	2219	3391	1122	20.71	3.206	2.305	1.869	1.505	1.470	1.295	1.274	1.158
555.0	237.2	216.3	171.0	115.9	88.75	96.32	142.9	141.3	120.2	250.7	1864	8365	1329	77.94	61.21	51.34	47.18	43.72	42.00	41.25	39.65	41.27	40.55	41.15	40.68	41.17	41.34	42.24	43.93	43.35	42.46	41.74	38.97	37.37	34.89	32.61	31.01	29.29	27.81	25.57	24.32	22.86	21.01	19.16	17.75	17.08	15.81	14.59	14.04	14.06	12.66	10.35	8.771	8.135	7.929	6.981	6.578	6.253	5.304	4.818	4.887	5.797	8.714	31.44	153.8	498.1	1127	3088	1798	29.34	3.055	1.987	1.532	1.352	1.208	1.217	1.122
560.0	252.5	236.2	171.5	107.9	78.94	81.57	116.4	153.1	113.8	143.0	521.3	5751	5374	134.7	53.92	44.82	40.28	37.37	34.99	34.28	34.61	35.01	34.30	35.09	34.40	34.62	34.90	35.34	36.01	36.18	36.23	34.96	32.06	31.21	29.16	28.17	26.48	25.07	23.23	21.68	20.76	19.09	17.86	16.66	15.79	14.69	13.52	12.40	12.00	11.67	11.60	9.744	7.935	7.464	6.835	6.497	5.527	5.510	5.150	4.574	3.896	4.039	4.595	9.568	36.85	113.6	258.7	1250	3228	1433	23.57	2.561	1.743	1.595	1.432	1.133	1.040
565.0	263.5	258.1	185.3	112.3	71.66	74.20	91.27	142.1	116.4	118.0	197.4	2320	8131	788.6	49.29	39.60	36.23	31.24	30.61	30.52	29.28	28.70	29.41	28.93	28.73	29.66	29.59	30.80	31.01	31.12	30.39	29.87	28.05	26.04	24.66	23.71	23.53	21.78	20.09	18.90	17.72	16.80	15.47	14.76	13.75	12.96	11.93	10.82	10.61	9.813	10.32	9.289	7.174	6.763	6.151	5.624	5.099	4.718	4.712	4.436	3.580	3.529	3.448	4.583	10.59	27.65	60.51	293.8	1498	2964	950.1	15.97	2.370	1.679	1.371	1.079	1.108
570.0	288.3	273.3	190.6	110.1	64.77	64.32	77.07	119.9	132.8	114.4	130.3	652.6	5432	4506	96.32	34.67	29.82	26.80	25.72	25.13	23.83	23.78	23.99	23.82	23.76	24.12	23.92	24.85	25.23	25.69	24.92	23.98	22.72	21.37	20.29	19.79	18.64	18.40	16.57	15.53	14.53	13.64	12.82	12.22	11.36	10.88	10.02	9.239	8.747	8.066	7.793	8.147	6.849	6.024	5.475	4.921	4.523	4.117	3.931	3.956	3.451	3.213	3.109	3.192	4.520	8.331	15.68	67.90	351.1	1209	1893	1063	98.50	2.959	1.555	1.170	1.136
575.0	306.4	274.8	187.1	104.7	58.81	56.05	66.41	93.24	143.8	127.0	123.4	230.5	1614	6718	906.0	33.24	25.34	23.23	21.12	20.24	20.59	18.91	19.96	19.58	19.02	19.36	19.49	19.20	20.05	20.39	19.62	19.51	17.87	17.44	16.31	15.91	14.98	15.22	13.77	12.71	11.84	11.36	10.55	10.06	9.352	9.006	8.430	7.689	7.518	6.612	5.990	6.115	6.220	5.687	4.679	4.248	3.843	3.749	3.370	3.214	3.424	3.204	2.844	2.782	2.998	4.043	5.342	17.19	80.17	272.0	552.6	1707	1498	31.26	2.374	1.421	1.173
580.0	287.2	281.9	197.7	98.24	57.13	52.96	61.47	82.70	137.7	146.2	132.3	146.3	456.8	4555	4084	75.81	23.40	20.85	18.70	17.33	17.39	16.40	16.63	16.83	16.20	16.40	16.79	16.74	17.57	17.23	16.81	16.09	15.61	14.91	14.03	13.54	13.80	12.96	11.44	10.90	10.08	9.526	8.973	8.773	8.251	7.693	7.528	6.762	6.267	5.686	5.330	5.093	5.128	5.259	4.547	3.908	3.586	3.152	3.054	2.810	2.902	2.944	2.774	2.790	2.700	2.558	3.155	5.914	19.88	62.64	126.3	599.4	1891	1089	24.66	2.027	1.376
585.0	318.4	283.6	206.3	97.35	57.60	49.40	60.42	79.32	122.6	164.0	141.5	136.1	183.8	1787	6222	493.3	21.41	19.15	17.17	16.07	14.90	14.97	14.26	14.42	14.81	14.11	14.20	14.10	14.48	14.54	14.26	13.86	13.74	12.92	12.00	11.99	11.48	11.26	10.73	9.244	8.595	8.080	7.826	7.453	6.953	6.713	6.590	5.982	5.382	4.803	4.600	4.403	4.385	4.790	4.360	3.612	3.222	2.885	2.827	2.693	2.705	2.563	2.728	2.772	2.485	2.431	2.596	3.371	6.224	15.82	30.14	138.8	748.2	1794	274.0	17.55	1.627
590.0	294.0	271.1	183.9	93.44	52.38	47.98	58.07	77.10	105.3	167.6	161.6	142.0	128.8	492.1	4026	3111	57.16	17.18	14.61	13.67	12.90	12.48	12.05	11.96	12.30	12.15	11.97	11.93	11.76	12.18	11.96	11.48	10.83	10.61	9.802	9.754	9.421	9.029	8.627	7.737	7.114	6.788	6.626	6.335	6.200	5.829	5.775	5.108	4.643	4.095	3.831	3.730	3.568	3.754	3.833	3.472	2.936	2.622	2.628	2.261	2.404	2.240	2.334	2.533	2.362	2.266	2.329	2.321	2.997	5.269	8.351	32.62	172.4	646.6	1107	753.3	100.4
595.0	272.5	250.3	163.4	89.34	50.98	48.71	55.37	71.69	93.87	145.3	177.2	145.4	121.3	165.4	1141	4719	635.5	16.74	13.34	11.69	11.41	10.40	10.17	9.904	9.853	10.23	9.918	9.379	9.711	10.37	9.800	9.539	8.694	8.493	8.005	8.262	7.712	7.140	6.753	6.315	5.699	5.593	5.313	5.166	5.200	5.009	4.497	4.406	3.914	3.652	3.097	3.201	2.972	2.843	3.093	3.062	2.821	2.536	2.177	2.040	2.161	2.050	1.942	2.147	2.102	2.258	2.120	1.992	2.031	2.627	3.133	8.620	39.51	145.4	293.9	939.7	1025
600.0	249.5	233.1	158.4	79.35	47.84	42.91	52.89	70.03	95.70	131.8	180.6	157.4	120.6	92.43	298.5	3225	2680	43.08	12.44	10.63	10.18	8.955	9.151	8.975	8.857	8.574	8.481	8.363	8.678	8.400	8.233	8.109	7.192	7.250	6.793	6.847	6.233	5.834	5.782	5.424	5.349	4.685	4.469	4.362	4.351	4.449	4.036	3.836	3.331	3.135	2.768	2.864	2.364	2.367	2.640	2.858	2.665	2.432	2.170	1.925	1.897	1.809	1.870	1.957	1.883	2.149	2.055	1.917	1.898	1.844	1.940	3.030	9.735	33.55	66.95	297.0	1082
605.0	233.2	217.0	145.0	76.12	47.52	43.15	55.13	67.12	93.71	122.3	173.5	167.5	118.6	77.51	96.15	1252	4190	314.8	12.35	9.855	8.998	8.074	7.886	8.145	7.583	7.631	6.981	6.826	7.694	7.647	6.883	7.341	6.471	6.481	6.060	5.929	5.934	5.513	4.922	4.660	4.409	3.934	3.765	4.119	3.570	3.653	3.329	3.313	3.215	2.711	2.536	2.372	2.198	2.124	2.259	2.355	2.597	2.305	2.011	1.793	1.777	1.740	1.773	1.829	1.667	2.048	2.135	1.911	1.707	1.769	1.681	1.714	3.191	8.552	16.01	68.13	384.7
610.0	203.5	199.0	135.5	74.61	45.13	40.53	50.26	63.19	86.87	117.1	156.0	173.9	121.4	75.28	49.73	325.5	2823	2157	39.34	9.472	8.029	7.432	7.402	6.936	6.627	6.681	5.873	6.082	6.555	6.481	5.980	5.922	5.845	5.408	5.299	5.047	4.876	4.658	4.243	3.929	3.652	3.363	3.260	3.205	3.120	3.183	3.003	2.806	2.644	2.418	2.143	2.087	1.893	1.899	1.836	1.880	2.181	2.011	1.858	1.664	1.552	1.599	1.526	1.613	1.689	1.712	1.778	1.702	1.534	1.481	1.444	1.413	1.599	2.814	4.484	16.13	87.83
615.0	184.0	180.1	132.6	74.10	43.99	42.62	47.09	59.68	80.16	110.4	139.7	166.8	131.5	73.68	40.61	88.82	812.6	3422	478.5	10.35	7.887	7.172	6.515	6.397	5.612	5.659	5.238	5.212	5.406	5.295	5.047	4.976	4.662	4.720	4.319	4.345	4.120	4.096	3.831	3.249	3.113	3.048	2.652	2.787	2.744	2.762	2.705	2.339	2.216	1.999	1.737	1.809	1.600	1.644	1.598	1.606	1.676	1.846	1.829	1.552	1.382	1.447	1.488	1.352	1.455	1.508	1.527	1.656	1.499	1.400	1.189	1.183	1.161	1.387	1.809	4.274	20.33
620.0	181.0	174.4	114.4	73.79	43.39	40.90	42.73	58.26	76.29	106.3	130.3	151.7	133.5	73.36	38.84	36.46	207.1	2444	1907	22.81	7.719	6.618	5.618	5.633	5.179	5.326	4.828	4.605	4.806	4.395	4.413	4.455	4.002	4.022	3.838	3.732	3.622	3.504	3.278	2.844	2.716	2.721	2.339	2.377	2.258	2.267	2.257	2.130	1.955	1.772	1.466	1.557	1.564	1.426	1.392	1.428	1.383	1.527	1.743	1.653	1.368	1.472	1.494	1.320	1.473	1.441	1.390	1.577	1.354	1.317	1.186	1.246	0.993	1.045	1.165	1.656	5.273
625.0	167.2	162.4	110.3	68.21	39.38	38.23	44.46	55.14	75.91	99.95	125.5	139.3	134.8	76.42	39.03	23.66	59.17	1006	3166	73.71	7.857	6.352	5.342	5.016	4.430	4.575	4.548	4.361	4.307	3.959	3.965	3.796	3.498	3.533	3.481	3.196	3.244	3.052	2.972	2.809	2.632	2.327	2.301	2.123	2.139	2.030	1.955	2.075	1.771	1.635	1.377	1.414	1.368	1.292	1.272	1.223	1.205	1.368	1.492	1.617	1.376	1.295	1.345	1.272	1.291	1.361	1.339	1.402	1.261	1.305	1.382	1.037	1.046	0.939	0.856	1.072	1.895
630.0	161.1	146.2	105.1	60.43	39.39	37.30	42.17	56.38	75.18	98.88	121.5	130.8	127.3	85.45	42.03	23.67	26.55	261.3	2328	1291	25.14	6.299	5.420	4.790	4.318	4.176	3.789	3.796	3.722	3.740	3.597	3.485	3.164	3.119	3.003	2.822	3.036	2.651	2.495	2.350	2.397	2.008	1.986	1.907	1.797	1.933	1.816	1.701	1.581	1.449	1.239	1.239	1.192	1.186	1.077	1.056	1.231	1.106	1.351	1.248	1.370	1.265	1.285	1.210	1.233	1.301	1.288	1.240	1.208	1.238	1.266	1.191	0.984	0.892	0.849	0.820	1.112
635.0	148.4	126.8	96.10	59.49	39.89	39.12	42.00	55.57	74.38	98.53	115.2	122.4	116.5	93.15	48.46	25.81	20.21	69.46	707.1	2652	329.6	6.733	5.468	4.602	4.221	3.666	3.743	3.623	3.268	3.083	3.229	3.291	3.008	2.842	2.808	2.685	2.448	2.437	2.310	1.862	2.034	1.859	1.717	1.741	1.631	1.708	1.695	1.557	1.287	1.307	1.095	0.964	1.116	1.016	0.951	1.048	1.083	1.064	1.041	1.055	1.253	1.320	1.238	1.092	1.182	1.145	1.241	1.148	1.157	1.163	1.052	1.238	0.961	0.819	0.792	0.854	0.878
640.0	149.2	125.3	91.23	55.39	39.41	37.99	42.77	56.04	71.96	97.15	111.8	120.3	108.0	90.98	53.93	29.29	19.59	26.99	181.6	2116	1285	13.59	5.374	4.343	4.088	3.313	3.458	3.281	2.916	2.943	2.853	2.650	2.723	2.621	2.475	2.271	2.421	2.085	1.993	1.812	1.778	2.024	1.724	1.399	1.291	1.526	1.317	1.476	1.322	1.221	1.007	0.885	0.968	0.978	1.034	1.081	1.116	1.006	0.902	0.951	1.173	1.092	1.212	1.131	1.062	1.075	1.216	1.139	1.095	1.057	1.005	1.048	1.029	0.899	0.886	0.834	0.779
645.0	154.9	131.0	91.09	54.26	38.18	35.78	43.10	55.92	71.46	93.65	109.4	114.9	109.1	90.84	61.34	31.85	20.59	18.60	51.37	956.3	2324	56.95	5.718	4.389	3.820	3.382	2.999	2.928	2.789	2.802	2.652	2.525	2.466	2.555	2.251	2.072	2.005	1.880	1.891	1.580	1.589	1.807	1.697	1.391	1.282	1.434	1.297	1.358	1.173	1.068	0.974	0.878	0.886	0.846	0.929	0.968	0.978	0.949	0.922	0.858	1.017	1.083	1.143	1.083	1.062	1.028	1.185	1.170	1.094	1.135	1.010	1.000	1.005	0.986	0.820	0.765	0.679
650.0	167.7	130.6	101.0	54.16	36.11	36.33	42.42	56.53	74.22	93.98	108.7	116.2	106.7	87.61	67.08	34.81	22.61	17.16	21.75	280.3	2395	453.7	6.525	4.466	3.932	3.133	3.105	2.866	2.696	2.603	2.463	2.495	2.418	2.243	1.994	2.093	1.898	1.923	1.662	1.617	1.389	1.595	1.743	1.364	1.318	1.240	1.204	1.325	1.137	1.017	0.958	0.894	0.853	0.842	0.933	0.912	0.921	0.879	0.884	0.897	1.056	1.074	1.080	1.103	1.164	0.992	1.101	1.011	1.070	1.184	0.959	1.009	1.055	0.929	0.909	0.791	0.712
