Sample:	'1
File name:	银河泊车设备公司原水4-（64倍）.FD3
Run date:	'11:06:46, 04/03/2025
Operator:	Administrator
Comment:	'

Instrument
Model:	F-2700 FL Spectrophotometer
Serial number:	23B8-004
ROM Version:	4J14000 07

Instrument parameters
Measurement type:	3-D scan
Data mode:	Fluorescence
EX  Start WL:	220.0 nm
EX  End WL:	600.0 nm
EX Sampling interval:	5.0 nm
EM  Start WL:	230.0 nm
EM  End WL:	650.0 nm
EM Sampling interval:	5.0 nm
Scan speed:	12000 nm/min
EX Slit:	5.0 nm
EM Slit:	5.0 nm
PMT Voltage:	700 V
Response:	Auto 
Corrected spectra:	Off
Contour interval:	50.000

Peak integration
Integration method:	Rectangular
Sensitivity:	1
Threshold:	1.000

Peaks
No.	ApexEX/EM(nm)	Height(Data)
1	225.0/420.0	66.68
2	225.0/490.0	182.9
3	230.0/505.0	164.6
4	235.0/255.0	395.4
5	235.0/515.0	140.7
6	240.0/265.0	459.4
7	240.0/525.0	139.1
8	245.0/270.0	450.1
9	245.0/540.0	120.4
10	250.0/465.0	28.94
11	250.0/550.0	122.5
12	265.0/585.0	545.8
13	270.0/300.0	7016
14	270.0/590.0	532.5
15	300.0/335.0	321.8
16	305.0/345.0	272.5
17	310.0/350.0	208.2
18	315.0/355.0	194.7
19	320.0/360.0	177.1
20	330.0/375.0	125.8
21	335.0/380.0	139.7
22	340.0/385.0	112.7
23	350.0/400.0	98.10
24	355.0/405.0	91.09
25	360.0/410.0	66.71
26	365.0/420.0	71.53
27	370.0/425.0	66.97
28	375.0/430.0	50.80
29	380.0/440.0	48.10
30	385.0/445.0	45.38
31	390.0/300.0	27.08
32	390.0/450.0	35.34
33	390.0/585.0	2.789
34	395.0/455.0	32.04
35	400.0/465.0	29.64
36	405.0/470.0	22.24
37	410.0/480.0	19.72
38	415.0/485.0	18.36
39	420.0/490.0	15.03
40	425.0/500.0	14.06
41	430.0/505.0	12.59
42	435.0/510.0	9.809
43	440.0/520.0	9.231
44	445.0/300.0	25.73
45	445.0/525.0	8.158
46	455.0/540.0	5.876
47	465.0/555.0	3.301
48	470.0/560.0	2.830
49	475.0/260.0	2.063
50	485.0/265.0	2.329
51	535.0/590.0	2.761
52	540.0/295.0	31.40
53	550.0/305.0	28.13

Data points
	220.0	225.0	230.0	235.0	240.0	245.0	250.0	255.0	260.0	265.0	270.0	275.0	280.0	285.0	290.0	295.0	300.0	305.0	310.0	315.0	320.0	325.0	330.0	335.0	340.0	345.0	350.0	355.0	360.0	365.0	370.0	375.0	380.0	385.0	390.0	395.0	400.0	405.0	410.0	415.0	420.0	425.0	430.0	435.0	440.0	445.0	450.0	455.0	460.0	465.0	470.0	475.0	480.0	485.0	490.0	495.0	500.0	505.0	510.0	515.0	520.0	525.0	530.0	535.0	540.0	545.0	550.0	555.0	560.0	565.0	570.0	575.0	580.0	585.0	590.0	595.0	600.0
230.0	81.17	987.3	2478	740.0	25.44	4.586	3.761	3.521	3.106	3.160	3.049	2.795	1.956	1.313	0.913	0.748	0.760	0.613	0.592	0.513	0.464	0.453	0.412	0.416	0.384	0.303	0.315	0.331	0.257	0.306	0.253	0.260	0.307	0.245	0.219	0.280	0.230	0.208	0.210	0.264	0.412	0.722	0.775	0.430	0.259	0.222	1.091	4.613	7.209	4.496	1.557	0.332	0.159	0.162	0.144	0.155	0.155	0.155	0.157	0.147	0.169	0.146	0.160	0.154	0.145	0.130	0.176	0.170	0.169	0.183	0.137	0.137	0.161	0.138	0.145	0.153	0.146
235.0	237.7	285.5	1355	2169	520.2	35.50	4.126	4.047	3.933	3.275	3.775	3.271	1.954	1.611	0.709	0.758	0.728	0.506	0.513	0.441	0.466	0.429	0.399	0.398	0.314	0.239	0.369	0.319	0.328	0.306	0.256	0.253	0.261	0.243	0.257	0.272	0.247	0.230	0.286	0.212	0.239	0.450	0.622	0.883	0.729	0.398	0.446	1.286	2.926	4.851	6.392	5.999	2.309	0.469	0.178	0.142	0.184	0.152	0.154	0.155	0.167	0.217	0.177	0.170	0.163	0.118	0.179	0.160	0.124	0.180	0.135	0.131	0.161	0.144	0.157	0.143	0.150
240.0	305.5	226.6	397.0	1769	2115	370.1	13.90	4.927	4.202	4.011	3.263	2.995	2.036	1.385	0.824	0.880	0.737	0.588	0.557	0.478	0.485	0.506	0.459	0.387	0.290	0.264	0.327	0.260	0.312	0.247	0.252	0.272	0.256	0.261	0.244	0.248	0.205	0.270	0.301	0.249	0.290	0.282	0.347	0.588	0.844	1.085	0.507	0.501	0.802	1.596	3.838	8.653	8.945	5.508	1.620	0.271	0.160	0.152	0.156	0.163	0.211	0.164	0.154	0.172	0.151	0.153	0.188	0.138	0.151	0.145	0.134	0.173	0.125	0.173	0.182	0.136	0.157
245.0	216.3	329.8	176.6	599.4	2262	1963	243.3	7.739	5.267	4.550	3.448	3.541	2.620	1.944	1.033	0.927	0.765	0.611	0.623	0.492	0.597	0.520	0.427	0.414	0.419	0.320	0.370	0.288	0.312	0.291	0.364	0.307	0.224	0.269	0.229	0.263	0.219	0.269	0.231	0.249	0.218	0.265	0.282	0.310	0.514	1.010	1.112	0.748	0.447	0.494	1.049	3.209	7.110	11.37	10.04	4.793	0.977	0.184	0.169	0.190	0.194	0.175	0.178	0.166	0.135	0.180	0.171	0.131	0.165	0.155	0.127	0.163	0.175	0.152	0.198	0.142	0.158
250.0	82.83	226.5	327.6	251.7	742.0	2032	2324	774.9	33.94	5.521	5.032	4.258	2.637	1.835	1.378	1.033	0.726	0.804	0.697	0.649	0.614	0.509	0.456	0.450	0.491	0.307	0.329	0.302	0.305	0.317	0.335	0.311	0.301	0.269	0.318	0.238	0.249	0.255	0.239	0.240	0.187	0.252	0.219	0.241	0.301	0.401	0.591	0.983	1.112	0.790	0.670	0.930	1.846	3.987	7.327	10.30	11.87	9.479	5.504	1.069	0.249	0.205	0.187	0.166	0.167	0.157	0.174	0.141	0.172	0.157	0.131	0.157	0.138	0.145	0.200	0.169	0.154
255.0	37.63	71.54	228.0	395.4	271.3	531.9	1989	2918	294.6	27.22	7.021	5.287	3.302	2.035	1.347	1.375	0.809	0.880	0.759	0.709	0.578	0.573	0.481	0.433	0.470	0.339	0.378	0.329	0.326	0.298	0.393	0.298	0.286	0.300	0.332	0.213	0.230	0.242	0.212	0.280	0.253	0.218	0.213	0.240	0.221	0.232	0.298	0.394	0.617	1.042	1.493	1.357	0.833	1.115	1.854	2.721	5.197	11.54	21.66	15.36	7.372	1.158	0.179	0.139	0.179	0.170	0.162	0.185	0.145	0.184	0.137	0.182	0.166	0.126	0.180	0.196	0.179
260.0	34.64	32.47	89.53	353.5	359.1	174.4	629.3	3040	2356	235.3	14.93	6.515	4.009	2.143	1.691	1.225	0.896	0.837	0.887	0.864	0.667	0.568	0.452	0.406	0.479	0.332	0.396	0.345	0.404	0.337	0.365	0.312	0.320	0.261	0.322	0.258	0.222	0.256	0.211	0.289	0.257	0.206	0.255	0.218	0.267	0.226	0.235	0.249	0.341	0.431	0.970	2.063	1.701	0.957	0.670	0.831	1.420	3.401	10.67	18.16	25.97	14.59	4.184	0.474	0.252	0.190	0.198	0.180	0.159	0.156	0.186	0.148	0.173	0.124	0.179	0.184	0.233
265.0	32.46	24.37	38.32	165.9	459.4	255.6	172.8	1106	3778	2009	168.0	9.871	4.624	2.407	1.838	1.391	1.020	1.075	0.802	0.758	0.694	0.589	0.569	0.512	0.423	0.523	0.390	0.402	0.404	0.402	0.403	0.360	0.430	0.319	0.383	0.320	0.267	0.212	0.291	0.262	0.287	0.236	0.256	0.221	0.237	0.293	0.215	0.230	0.220	0.214	0.418	1.102	1.889	2.329	1.339	0.554	0.498	1.010	2.698	5.994	16.86	24.22	21.88	11.06	2.082	0.329	0.299	0.168	0.212	0.224	0.177	0.145	0.171	0.171	0.155	0.200	0.199
270.0	135.0	75.84	37.17	54.05	225.6	450.1	279.8	322.6	1363	3354	3353	654.1	28.14	4.980	2.524	1.823	1.377	1.175	0.911	0.767	0.913	0.601	0.655	0.519	0.569	0.486	0.406	0.404	0.390	0.367	0.450	0.543	0.692	0.678	0.795	0.562	0.605	0.502	0.464	0.534	0.536	0.475	0.497	0.450	0.415	0.469	0.335	0.241	0.253	0.218	0.213	0.417	0.749	1.411	2.019	2.171	1.767	0.978	0.991	1.690	4.326	7.901	13.32	19.02	21.64	18.01	8.800	1.993	0.375	0.249	0.175	0.161	0.183	0.197	0.182	0.177	0.208
275.0	1005	582.3	191.5	71.90	103.6	266.9	677.6	400.3	578.1	1398	3739	6135	805.0	24.39	4.401	2.938	2.177	1.617	1.125	1.128	1.011	0.684	0.799	0.666	0.659	0.544	0.418	0.425	0.415	0.465	0.580	0.937	2.099	3.065	2.794	2.186	1.516	1.387	1.429	1.542	1.750	1.814	2.021	1.867	2.176	1.837	1.519	0.932	0.634	0.427	0.307	0.333	0.389	0.665	0.912	1.620	3.169	3.951	2.739	1.688	2.605	3.508	5.057	6.715	9.771	19.06	30.59	27.14	13.44	2.360	0.521	0.300	0.299	0.328	0.233	0.292	0.236
280.0	2519	1683	665.6	233.7	165.1	271.1	744.5	1283	1300	1790	2608	6549	4576	135.5	11.27	4.303	2.889	2.128	1.685	1.319	1.191	0.798	0.669	0.865	0.645	0.593	0.506	0.478	0.512	0.556	0.783	2.397	5.019	7.779	7.047	5.232	3.515	3.391	3.532	3.943	4.487	4.678	5.577	5.853	6.028	5.805	4.365	3.028	1.978	0.936	0.665	0.724	0.627	0.800	0.902	1.405	2.393	4.108	6.321	5.564	5.284	5.778	6.748	8.058	9.432	11.14	17.23	28.48	35.09	24.53	8.394	1.224	0.501	0.493	0.431	0.461	0.372
285.0	5517	3923	1286	704.9	384.4	420.7	839.7	1828	2424	2971	3278	4115	6041	3100	89.80	6.555	3.807	2.944	2.154	1.801	1.298	0.954	0.995	0.903	0.701	0.771	0.616	0.565	0.621	0.605	1.008	3.569	8.492	13.60	12.84	9.469	7.211	6.694	6.627	6.701	8.078	8.498	9.772	10.83	11.63	11.25	8.505	6.774	4.727	3.121	2.084	1.770	1.425	1.425	1.608	1.915	2.731	4.004	6.006	9.371	10.89	10.96	11.36	13.35	14.75	13.36	14.49	16.66	22.18	32.78	31.78	17.77	4.372	0.966	0.638	0.576	0.495
290.0	9355	7158	3822	1935	873.3	705.8	1158	2168	3786	4994	5020	4309	3271	4094	2652	349.5	13.50	4.081	2.847	2.152	1.860	1.322	1.149	1.089	0.949	0.876	0.858	0.729	0.787	0.757	1.563	4.951	13.05	20.48	21.02	15.74	12.91	11.33	10.81	11.07	12.33	13.99	15.36	17.83	18.83	18.54	15.57	13.32	10.30	7.482	5.533	4.718	3.336	2.668	2.645	3.108	4.009	5.369	7.380	10.16	13.99	17.79	20.28	21.88	23.06	20.74	20.42	19.00	14.93	14.88	17.42	21.84	24.31	21.35	12.74	4.498	1.111
295.0	9999.9	9586	5865	3077	1403	984.0	1378	2440	4132	6088	6514	5051	2614	1580	2775	3912	94.66	9.320	3.705	2.897	2.482	1.561	1.554	1.347	1.184	0.934	0.954	0.886	0.904	0.799	1.831	6.282	15.36	25.48	25.90	20.47	17.08	14.80	13.87	14.12	14.97	17.12	19.03	21.77	23.04	24.04	20.84	19.32	15.33	11.47	8.451	7.226	4.974	3.827	3.526	3.736	5.239	6.619	8.771	11.00	14.95	19.07	22.67	28.62	31.40	27.11	24.92	22.36	15.95	11.62	9.511	8.162	8.508	14.39	26.31	31.28	17.12
300.0	9999.9	9999.9	6800	3659	1669	1091	1446	2453	4064	5903	7016	5438	2592	1007	929.7	3690	3402	73.80	5.664	3.429	2.897	1.878	1.705	1.371	1.343	1.041	0.981	0.998	0.868	0.893	1.782	6.706	16.03	25.54	27.08	21.49	18.61	16.84	14.99	14.94	15.48	17.70	19.93	22.15	25.01	25.73	23.10	20.85	17.36	13.58	10.24	8.660	5.916	4.359	4.117	4.389	5.444	6.820	9.020	11.65	15.32	18.66	22.14	26.88	30.48	29.72	27.74	23.67	16.70	11.34	8.406	5.250	3.989	4.912	9.313	20.01	31.24
305.0	9999.9	9961	6939	3880	1766	1119	1393	2294	3752	5349	6415	5592	2595	883.5	335.4	1265	4424	2418	51.72	4.330	3.219	2.265	1.847	1.403	1.246	1.230	1.103	0.990	0.930	0.897	1.837	6.406	14.58	24.33	25.93	21.34	18.83	16.55	14.80	14.28	14.88	17.35	18.59	21.61	23.09	24.54	22.25	21.27	18.54	14.01	10.96	8.861	6.178	4.906	4.281	4.395	5.113	6.177	8.217	10.98	14.19	17.46	20.72	24.46	26.92	27.99	28.13	25.00	17.37	11.37	8.007	4.899	2.808	2.484	3.331	6.068	12.75
310.0	9449	8718	6273	3573	1652	1015	1169	1892	3065	4347	5060	4639	2690	891.0	204.3	328.9	1408	3098	2290	254.9	8.948	2.992	2.010	1.573	1.408	1.148	1.039	0.987	1.003	0.856	1.632	5.147	12.45	20.36	22.20	18.71	16.48	14.64	13.23	12.48	12.94	14.44	15.87	18.37	19.98	20.87	19.30	18.87	16.98	13.17	10.19	8.121	5.829	4.665	3.898	3.679	4.390	5.181	6.805	8.824	11.62	14.47	17.11	20.06	21.95	21.97	21.62	20.80	16.34	12.54	8.568	4.702	2.575	1.835	1.734	2.216	3.694
315.0	7339	6994	5144	2979	1385	851.5	924.2	1422	2277	3225	3732	3341	2187	1122	217.7	115.5	336.8	775.0	2331	3387	68.47	6.260	2.622	1.779	1.517	1.285	1.012	0.979	0.799	0.911	1.288	4.268	9.594	15.52	17.34	15.37	13.19	11.86	10.56	10.06	10.11	11.10	12.45	13.87	15.16	16.02	15.29	15.19	13.68	10.68	8.368	7.195	5.327	3.728	3.176	2.878	3.364	4.036	5.415	6.799	8.374	10.98	12.35	15.02	16.88	15.50	16.33	15.20	11.33	9.634	8.565	6.254	3.223	1.652	1.383	1.300	1.600
320.0	6007	5561	4186	2491	1188	699.6	731.2	1111	1753	2488	2873	2550	1592	1035	405.0	80.82	98.04	190.9	664.8	3084	2556	57.59	3.931	2.101	1.723	1.073	1.128	0.988	0.788	0.805	1.070	3.175	7.726	11.95	13.69	12.05	10.70	10.02	8.306	7.691	7.933	9.151	9.622	10.81	12.23	12.91	12.51	12.63	10.77	9.137	6.964	6.006	4.302	3.423	2.784	2.455	2.915	3.266	4.055	5.401	6.540	8.466	9.496	11.65	12.35	12.06	12.47	11.46	8.959	7.010	6.168	5.586	4.612	2.925	1.564	0.967	1.096
325.0	4743	4385	3400	2021	957.9	570.6	575.0	845.7	1355	1902	2207	1962	1201	679.2	557.7	118.7	45.95	56.82	163.6	979.1	3016	1795	43.20	2.960	2.001	1.390	1.130	1.015	0.935	0.759	1.076	2.676	5.914	9.769	10.78	9.490	8.495	7.938	6.639	6.109	6.131	6.982	7.596	8.606	9.541	10.35	9.643	10.01	8.950	7.305	5.891	4.939	3.582	2.803	2.266	2.021	2.229	2.597	3.187	3.988	5.100	6.393	7.638	9.039	9.674	9.315	9.424	8.519	7.075	5.292	4.322	3.647	3.382	3.887	2.917	1.559	0.992
330.0	3373	3167	2480	1497	706.6	426.8	416.5	594.8	939.8	1327	1554	1391	861.3	417.2	324.0	340.7	134.5	30.76	48.57	233.9	923.8	2050	1485	207.2	7.994	1.972	1.327	1.112	0.948	0.863	1.023	2.040	4.355	7.026	7.729	7.064	6.173	5.873	4.879	4.576	4.681	4.924	5.502	6.182	6.744	7.549	7.091	7.356	6.593	5.292	4.298	3.654	2.793	2.144	1.654	1.592	1.669	1.856	2.329	2.871	3.647	4.442	5.476	6.488	6.926	6.696	6.840	6.151	5.132	4.048	3.134	2.173	1.701	1.957	2.454	2.665	2.252
335.0	2275	2180	1718	1053	504.3	307.9	282.4	395.8	626.8	874.0	1043	942.2	594.2	278.2	140.8	200.4	321.8	78.06	23.14	63.71	216.4	501.0	1431	2247	290.7	5.879	1.658	1.306	1.228	0.868	0.887	1.627	3.133	4.879	5.300	5.072	4.609	4.283	3.553	3.334	3.337	3.516	4.167	4.302	4.657	5.088	5.011	5.136	4.537	3.708	3.134	2.564	2.082	1.566	1.323	1.157	1.300	1.401	1.520	2.097	2.291	3.066	3.473	4.365	4.583	4.529	4.795	4.226	3.629	2.904	2.152	1.520	1.085	0.905	1.114	1.220	1.985
340.0	1683	1645	1293	799.9	382.9	226.4	212.3	294.5	449.3	631.9	742.0	678.1	441.5	210.3	86.51	87.48	253.3	242.0	42.27	25.34	59.64	122.1	403.6	1895	1864	51.65	2.911	1.539	1.438	1.009	0.970	1.528	2.464	3.726	4.095	3.723	3.427	3.302	2.683	2.807	2.597	2.580	2.885	3.270	3.440	3.852	3.428	3.938	3.457	2.816	2.416	2.129	1.656	1.187	1.081	0.847	1.022	1.169	1.199	1.641	1.713	2.340	2.699	3.043	3.242	3.300	3.485	3.228	2.708	2.122	1.621	1.194	0.842	0.762	0.749	0.697	0.833
345.0	1257	1232	983.8	599.4	296.4	182.7	165.1	222.3	332.4	453.7	545.0	497.2	337.6	165.9	66.45	45.82	109.5	272.5	144.2	22.30	22.85	36.70	99.42	586.0	2031	1464	39.98	2.447	1.605	1.151	1.181	1.308	2.157	2.919	3.160	2.985	2.633	2.349	1.962	1.968	2.125	2.126	2.394	2.355	2.614	2.832	2.842	2.899	2.585	2.167	1.895	1.695	1.144	0.968	0.849	0.680	0.794	0.892	0.981	1.205	1.291	1.688	2.076	2.242	2.579	2.462	2.722	2.387	1.964	1.599	1.278	0.994	0.783	0.579	0.545	0.457	0.506
350.0	888.4	854.1	666.8	430.0	215.9	135.0	118.0	148.8	225.8	312.5	367.9	342.8	236.8	120.5	52.03	32.70	41.70	117.7	208.2	112.3	23.01	16.69	29.91	138.6	608.3	1434	1040	194.8	11.03	1.453	1.299	1.153	1.709	2.214	2.456	2.237	1.999	1.869	1.553	1.365	1.498	1.534	1.646	1.699	1.867	2.104	1.974	2.125	1.850	1.493	1.307	1.180	0.825	0.798	0.604	0.577	0.632	0.641	0.674	0.885	1.028	1.180	1.413	1.618	1.715	1.829	1.873	1.683	1.518	1.228	0.995	0.710	0.626	0.506	0.434	0.408	0.409
355.0	625.2	573.1	458.3	296.4	159.7	100.5	82.28	103.4	147.4	203.9	242.4	224.5	162.4	87.18	42.04	25.27	22.53	37.54	88.97	194.7	70.19	15.53	12.80	37.17	141.2	341.1	854.3	1704	327.4	8.500	1.861	1.268	1.644	1.666	2.011	1.631	1.497	1.367	1.257	1.078	1.072	1.210	1.177	1.280	1.350	1.481	1.356	1.460	1.305	1.054	0.907	0.873	0.631	0.547	0.456	0.486	0.549	0.487	0.608	0.652	0.746	0.828	1.023	1.100	1.170	1.308	1.322	1.138	0.967	0.898	0.740	0.523	0.444	0.449	0.335	0.323	0.388
360.0	473.4	436.4	345.4	228.3	125.2	80.75	64.25	81.33	110.0	147.5	175.3	163.5	122.1	68.62	36.22	22.22	17.05	18.94	33.78	121.0	177.1	48.83	9.782	14.27	37.35	82.12	230.7	1243	2080	51.98	4.089	1.446	1.771	1.569	1.782	1.326	1.247	1.234	0.970	0.918	0.922	0.855	0.996	1.010	1.105	0.993	1.054	1.058	1.006	0.816	0.711	0.751	0.522	0.402	0.392	0.431	0.396	0.429	0.479	0.442	0.618	0.719	0.711	0.946	0.972	0.964	0.999	0.858	0.797	0.704	0.576	0.475	0.419	0.363	0.343	0.344	0.347
365.0	355.2	328.9	264.4	173.8	98.78	67.64	54.03	61.43	90.89	112.2	133.2	130.0	94.78	56.09	31.10	21.17	15.69	13.89	17.05	47.15	155.6	133.8	22.71	8.882	14.19	23.66	57.89	357.4	1925	1511	44.62	2.191	1.841	1.527	1.417	1.297	0.903	1.059	0.902	0.827	0.796	0.717	0.761	0.734	0.848	0.892	0.875	0.965	0.884	0.747	0.626	0.569	0.543	0.433	0.395	0.361	0.385	0.367	0.405	0.430	0.574	0.596	0.604	0.759	0.741	0.718	0.699	0.663	0.605	0.581	0.539	0.438	0.387	0.375	0.309	0.330	0.300
370.0	283.0	254.9	210.9	137.1	81.87	57.46	46.80	48.25	66.37	82.67	99.03	93.88	69.81	44.24	26.30	19.64	15.48	12.73	12.97	20.46	60.88	133.6	97.89	24.04	9.132	10.85	18.51	85.78	539.1	1260	1357	193.7	11.58	1.583	1.502	1.214	1.035	0.892	0.751	0.721	0.683	0.689	0.679	0.664	0.706	0.664	0.685	0.764	0.670	0.562	0.472	0.483	0.436	0.388	0.315	0.364	0.325	0.378	0.351	0.375	0.415	0.424	0.489	0.631	0.590	0.566	0.614	0.587	0.533	0.498	0.463	0.410	0.332	0.305	0.301	0.315	0.305
375.0	213.7	197.4	164.8	107.0	73.95	49.54	38.38	41.00	46.78	60.14	69.86	66.95	53.54	36.44	22.63	17.16	14.89	13.43	11.55	13.35	22.83	51.54	125.8	99.53	18.50	8.782	9.409	24.27	125.5	294.4	787.4	1430	303.4	11.89	1.879	1.106	0.981	0.912	0.703	0.594	0.595	0.589	0.618	0.700	0.576	0.577	0.655	0.601	0.531	0.436	0.533	0.396	0.380	0.350	0.306	0.264	0.322	0.321	0.315	0.306	0.382	0.316	0.360	0.466	0.489	0.485	0.539	0.418	0.429	0.349	0.380	0.304	0.231	0.260	0.262	0.284	0.259
380.0	174.8	163.2	135.7	89.72	61.56	44.81	34.04	33.10	39.95	47.32	56.27	52.91	43.75	29.81	20.84	15.60	14.93	13.24	11.40	11.93	14.20	21.98	69.28	139.7	51.90	10.33	8.032	10.79	33.12	70.66	201.7	921.7	1771	234.4	5.407	1.203	0.941	0.843	0.662	0.660	0.495	0.469	0.468	0.515	0.511	0.462	0.524	0.625	0.469	0.417	0.425	0.349	0.356	0.305	0.282	0.307	0.330	0.275	0.239	0.328	0.300	0.363	0.332	0.367	0.397	0.456	0.501	0.416	0.373	0.303	0.362	0.286	0.288	0.340	0.261	0.288	0.275
385.0	161.2	138.8	118.3	80.31	56.62	40.87	33.39	29.87	33.67	40.71	46.78	44.21	35.86	26.24	18.43	14.70	14.25	12.75	11.52	12.13	11.41	13.53	28.37	98.10	112.7	29.65	7.909	7.790	12.82	20.25	50.01	251.5	1403	1329	39.73	2.148	1.087	0.956	0.792	0.695	0.530	0.491	0.479	0.499	0.428	0.369	0.475	0.480	0.432	0.347	0.300	0.363	0.327	0.268	0.258	0.312	0.310	0.259	0.269	0.240	0.310	0.301	0.363	0.359	0.359	0.346	0.417	0.413	0.383	0.317	0.333	0.314	0.339	0.309	0.247	0.269	0.269
390.0	131.0	113.4	96.96	66.90	49.70	39.74	29.28	26.09	29.49	34.48	38.18	37.12	30.01	22.54	17.23	15.20	13.28	12.92	12.05	12.02	11.20	11.82	15.06	37.77	92.17	80.42	27.11	7.863	7.889	9.175	15.22	59.74	371.1	935.1	1379	158.0	10.15	1.040	0.785	0.643	0.505	0.525	0.443	0.489	0.422	0.396	0.404	0.447	0.373	0.277	0.297	0.313	0.308	0.320	0.273	0.287	0.311	0.268	0.305	0.275	0.300	0.285	0.303	0.318	0.318	0.354	0.346	0.289	0.394	0.322	0.310	0.314	0.294	0.276	0.307	0.272	0.285
395.0	99.99	92.49	76.66	58.38	47.21	38.92	29.18	22.74	25.32	29.49	30.86	31.59	25.95	20.85	16.46	13.93	12.67	12.67	12.65	12.68	11.73	11.58	12.01	17.28	35.09	81.05	84.36	20.80	7.082	6.537	7.596	16.82	85.97	216.1	742.9	1173	245.5	9.524	1.044	0.713	0.468	0.524	0.440	0.465	0.436	0.401	0.451	0.288	0.300	0.287	0.251	0.328	0.297	0.274	0.266	0.321	0.272	0.246	0.251	0.253	0.257	0.255	0.266	0.273	0.256	0.324	0.290	0.278	0.376	0.341	0.336	0.266	0.203	0.259	0.293	0.359	0.317
400.0	95.72	85.46	72.48	55.55	41.71	33.03	29.63	24.77	22.33	25.85	27.40	26.19	23.34	18.67	15.62	13.66	12.63	11.69	11.89	12.49	11.03	11.55	11.28	12.13	16.45	42.25	98.10	50.98	11.14	6.178	5.907	7.241	22.37	51.15	185.2	708.1	991.1	182.9	3.906	0.820	0.669	0.505	0.390	0.406	0.398	0.346	0.462	0.267	0.296	0.281	0.280	0.309	0.327	0.242	0.268	0.312	0.275	0.219	0.263	0.225	0.233	0.320	0.233	0.271	0.240	0.297	0.265	0.243	0.300	0.281	0.255	0.256	0.217	0.224	0.290	0.309	0.375
405.0	86.50	77.93	62.61	50.51	42.32	34.87	26.61	26.01	23.13	21.74	24.19	22.46	21.63	18.13	14.19	12.66	12.27	11.25	11.64	11.46	11.18	11.09	10.89	10.42	11.81	19.65	63.36	91.09	30.44	6.569	4.883	5.319	7.865	14.11	44.83	189.2	751.2	811.5	34.20	1.567	0.748	0.551	0.439	0.402	0.358	0.388	0.345	0.375	0.373	0.293	0.266	0.289	0.304	0.230	0.277	0.266	0.282	0.265	0.298	0.190	0.222	0.271	0.288	0.267	0.231	0.292	0.234	0.198	0.261	0.235	0.250	0.291	0.217	0.266	0.263	0.252	0.244
410.0	82.25	66.99	59.33	48.42	40.15	34.12	27.46	24.98	21.06	21.81	22.69	22.07	18.76	16.16	13.38	12.77	12.12	11.40	11.44	11.21	11.42	10.98	11.05	10.77	10.57	12.38	25.62	63.39	66.71	26.18	6.538	4.643	4.931	6.141	12.59	45.03	197.7	559.3	742.2	142.9	8.346	0.736	0.488	0.403	0.392	0.409	0.382	0.331	0.296	0.293	0.285	0.267	0.269	0.279	0.246	0.262	0.234	0.263	0.285	0.273	0.268	0.231	0.248	0.262	0.233	0.269	0.274	0.236	0.257	0.275	0.226	0.240	0.208	0.241	0.262	0.225	0.234
415.0	76.22	60.78	54.45	44.71	39.24	32.23	27.62	23.87	21.75	20.25	20.46	20.69	16.70	15.47	13.03	12.02	11.73	10.87	11.02	10.25	11.12	10.59	10.56	10.66	10.03	10.40	13.08	24.34	57.94	68.64	20.27	5.142	4.224	4.111	5.630	12.19	46.18	129.3	363.0	739.0	213.5	7.726	0.589	0.511	0.428	0.439	0.398	0.394	0.382	0.275	0.248	0.269	0.262	0.246	0.253	0.266	0.251	0.243	0.291	0.314	0.277	0.242	0.228	0.285	0.265	0.242	0.282	0.211	0.317	0.224	0.258	0.233	0.242	0.257	0.299	0.275	0.244
420.0	60.16	66.68	49.11	40.47	36.35	30.71	27.77	25.50	21.27	20.42	19.97	19.07	15.72	14.48	12.53	11.40	11.34	11.18	11.15	10.64	10.79	11.13	10.60	10.28	9.936	10.54	10.23	12.60	29.92	71.53	45.94	9.594	4.153	3.660	3.995	5.092	11.94	30.78	89.97	442.1	714.0	161.4	2.589	0.559	0.472	0.470	0.448	0.441	0.358	0.223	0.276	0.345	0.271	0.261	0.224	0.237	0.248	0.245	0.283	0.279	0.190	0.212	0.216	0.297	0.250	0.287	0.332	0.231	0.255	0.265	0.226	0.188	0.249	0.219	0.295	0.282	0.219
425.0	65.19	57.87	51.17	38.46	32.94	28.57	25.49	25.72	19.94	19.52	20.67	16.90	15.45	13.94	12.89	11.63	11.13	10.25	10.24	9.982	10.82	10.73	10.77	10.35	10.19	9.908	9.439	9.678	14.86	43.75	66.97	25.68	5.331	3.650	3.489	3.777	4.890	8.465	22.04	117.8	518.0	645.0	30.40	0.979	0.573	0.451	0.525	0.394	0.317	0.246	0.300	0.275	0.228	0.248	0.262	0.240	0.225	0.289	0.286	0.255	0.215	0.250	0.220	0.258	0.254	0.219	0.265	0.255	0.229	0.281	0.239	0.223	0.216	0.218	0.259	0.237	0.302
430.0	400.6	57.02	45.94	38.99	34.38	29.03	25.59	24.09	21.44	20.52	19.26	17.27	14.89	13.71	12.34	10.83	10.87	10.24	10.28	10.08	10.50	10.13	10.32	10.25	10.19	9.933	9.971	9.337	10.69	18.78	44.55	50.80	20.55	5.017	3.742	3.249	3.467	3.878	6.592	27.87	135.6	427.0	388.5	124.5	7.693	0.619	0.497	0.416	0.314	0.297	0.276	0.292	0.241	0.256	0.221	0.254	0.258	0.279	0.256	0.246	0.277	0.269	0.238	0.255	0.256	0.216	0.256	0.243	0.237	0.235	0.217	0.207	0.194	0.214	0.218	0.230	0.275
435.0	1215	90.55	42.34	35.28	32.88	29.99	26.24	24.53	22.47	19.96	19.17	16.99	15.89	14.39	11.71	10.55	10.43	9.968	10.28	10.24	10.38	10.39	10.74	10.68	10.54	10.26	10.06	9.696	9.279	11.22	18.03	41.43	47.40	15.30	4.353	2.965	2.918	3.313	3.380	7.418	31.67	98.40	222.5	551.3	190.7	5.560	0.626	0.493	0.357	0.305	0.284	0.277	0.342	0.280	0.244	0.269	0.262	0.231	0.278	0.230	0.247	0.269	0.272	0.224	0.259	0.268	0.210	0.231	0.192	0.208	0.253	0.201	0.171	0.242	0.244	0.202	0.246
440.0	1763	330.8	46.17	34.82	31.58	29.40	27.01	25.29	24.18	21.04	19.91	17.30	15.79	13.24	11.88	10.52	10.22	10.26	10.31	9.837	9.930	10.53	10.36	10.26	10.47	9.860	9.677	9.521	9.757	9.643	11.08	21.75	48.10	32.94	8.320	2.979	2.812	2.940	2.797	3.061	8.577	23.42	57.00	341.7	612.1	31.83	2.388	0.595	0.393	0.356	0.272	0.299	0.344	0.306	0.258	0.264	0.325	0.256	0.246	0.251	0.274	0.285	0.327	0.263	0.244	0.301	0.246	0.197	0.209	0.226	0.233	0.193	0.249	0.229	0.267	0.230	0.255
445.0	1639	865.3	46.78	37.81	30.97	28.80	25.92	25.64	23.25	20.34	18.39	16.94	15.12	13.49	11.10	10.06	9.967	9.626	9.828	9.654	9.294	9.924	10.04	9.920	10.26	10.33	10.13	9.833	9.818	8.954	9.242	11.81	30.04	45.38	19.56	4.426	2.693	2.745	2.652	2.657	3.250	6.499	14.15	92.01	478.1	558.6	26.28	1.116	0.536	0.317	0.309	0.324	0.319	0.290	0.273	0.239	0.306	0.269	0.269	0.235	0.266	0.319	0.257	0.272	0.292	0.238	0.217	0.234	0.259	0.252	0.227	0.240	0.197	0.224	0.240	0.223	0.249
450.0	831.8	1588	309.0	35.94	29.90	29.29	26.32	25.56	24.34	20.82	18.73	17.68	15.25	13.31	10.72	10.19	9.524	9.847	9.304	9.719	9.145	9.773	9.393	10.15	10.32	10.11	10.10	9.948	10.19	9.179	8.860	8.741	13.92	31.02	35.34	15.00	3.996	2.738	2.395	2.519	2.473	2.778	4.373	21.75	127.4	421.4	742.8	116.6	6.673	0.449	0.339	0.321	0.363	0.295	0.280	0.233	0.304	0.307	0.296	0.284	0.296	0.249	0.300	0.272	0.280	0.283	0.232	0.217	0.245	0.234	0.237	0.262	0.208	0.219	0.212	0.197	0.222
455.0	248.6	1362	1042	59.85	30.99	29.48	27.61	26.92	25.29	19.97	20.30	17.52	14.89	12.34	11.09	10.38	9.023	8.780	8.786	8.885	9.002	9.366	8.631	9.384	10.14	10.58	10.03	9.993	10.06	9.391	8.991	7.766	8.946	13.43	27.07	32.04	12.16	3.118	2.423	2.139	2.434	2.195	2.234	5.835	29.53	97.25	378.4	607.7	170.5	6.068	0.537	0.344	0.326	0.290	0.248	0.267	0.284	0.308	0.258	0.245	0.253	0.255	0.259	0.271	0.246	0.287	0.257	0.225	0.228	0.195	0.225	0.159	0.243	0.235	0.229	0.178	0.178
460.0	111.4	725.3	1587	217.7	31.33	26.90	28.70	26.74	24.67	21.72	20.80	18.86	15.51	12.91	10.73	10.01	9.369	8.826	8.865	8.381	8.671	8.770	8.438	9.168	9.417	10.14	10.15	9.660	10.13	9.836	9.094	8.221	7.501	7.937	14.91	31.73	22.51	6.149	2.576	2.086	2.000	1.982	1.814	2.335	7.565	22.81	93.03	366.8	604.3	119.9	1.928	0.447	0.374	0.335	0.319	0.310	0.306	0.290	0.343	0.279	0.293	0.229	0.250	0.208	0.235	0.236	0.228	0.222	0.267	0.197	0.254	0.208	0.253	0.191	0.258	0.204	0.181
465.0	89.85	266.4	1545	668.7	33.05	26.36	28.94	27.64	25.17	21.57	21.01	17.58	14.90	13.77	10.93	9.197	8.922	8.537	8.367	8.123	8.635	8.616	8.740	8.780	8.975	9.396	9.679	9.632	10.03	9.878	8.969	8.006	7.288	6.698	8.370	20.85	29.64	13.39	3.863	2.376	2.060	1.867	2.123	1.779	2.757	6.139	22.05	97.81	466.8	492.2	20.96	1.121	0.494	0.306	0.334	0.383	0.362	0.305	0.324	0.278	0.316	0.236	0.290	0.268	0.217	0.210	0.283	0.209	0.287	0.250	0.223	0.213	0.257	0.200	0.203	0.219	0.229
470.0	147.4	102.6	769.5	1364	208.0	27.20	26.26	25.68	25.27	20.78	20.26	17.50	14.69	12.81	10.97	8.960	7.949	7.870	7.920	7.538	7.727	8.290	7.807	8.200	8.847	8.866	9.001	9.208	9.602	9.458	8.884	8.070	7.203	6.603	6.697	10.17	20.02	22.24	10.38	3.392	2.153	1.926	2.012	2.123	1.834	2.282	5.967	22.92	123.0	337.1	415.1	98.54	6.773	0.469	0.348	0.391	0.341	0.301	0.303	0.290	0.320	0.277	0.257	0.260	0.239	0.217	0.283	0.231	0.234	0.221	0.241	0.212	0.210	0.208	0.234	0.187	0.226
475.0	218.4	77.54	224.5	1256	665.6	39.54	26.46	25.78	23.53	21.00	19.36	16.73	14.38	13.00	9.856	8.099	7.637	6.922	6.982	6.987	7.234	7.080	7.555	7.567	7.751	8.057	8.738	8.833	8.951	9.204	8.568	8.010	7.084	6.606	6.140	6.429	9.230	17.61	19.68	7.799	2.624	2.021	1.829	1.822	1.870	1.787	2.158	5.905	28.20	77.15	198.3	323.8	166.0	3.737	0.389	0.410	0.350	0.316	0.314	0.264	0.265	0.248	0.298	0.238	0.263	0.259	0.255	0.244	0.282	0.263	0.228	0.201	0.157	0.248	0.216	0.204	0.194
480.0	204.5	109.9	84.75	703.1	1328	157.3	25.02	24.94	24.24	20.86	19.37	16.19	14.53	11.26	9.425	8.139	6.716	6.938	6.398	6.746	6.966	6.240	7.016	7.112	7.718	7.719	7.945	8.559	8.047	8.846	8.211	8.033	7.040	6.229	5.538	5.291	5.979	10.17	19.72	14.43	4.310	1.846	1.916	1.738	1.843	1.894	1.481	2.067	7.123	18.01	48.71	179.7	492.5	27.01	1.341	0.573	0.396	0.249	0.339	0.348	0.221	0.294	0.330	0.235	0.254	0.266	0.234	0.195	0.246	0.230	0.178	0.232	0.180	0.195	0.173	0.235	0.192
485.0	152.0	152.9	47.81	269.7	1424	477.0	27.89	24.37	23.71	19.64	17.78	16.32	14.63	11.30	9.246	8.050	7.123	6.981	5.997	6.070	6.515	6.046	6.573	7.459	7.393	7.746	7.679	8.300	7.964	8.581	7.911	7.795	6.779	6.148	5.669	4.783	4.790	6.205	13.52	18.36	9.062	2.675	1.906	1.656	1.538	1.795	1.641	1.387	2.458	4.748	11.72	47.80	353.5	219.3	21.62	1.224	0.435	0.297	0.344	0.291	0.334	0.256	0.271	0.245	0.261	0.280	0.217	0.210	0.226	0.224	0.203	0.215	0.205	0.206	0.210	0.233	0.228
490.0	90.00	182.9	68.94	85.51	774.9	1210	140.7	23.18	22.86	20.64	19.09	16.17	13.36	10.57	9.155	7.778	6.788	6.116	6.026	6.051	5.996	5.637	6.073	6.530	6.677	6.965	7.370	7.647	7.359	8.025	7.867	7.128	6.643	6.155	5.420	5.000	4.647	4.523	7.087	13.52	15.03	6.880	2.279	1.777	1.583	1.513	1.724	1.483	1.330	1.742	3.300	11.33	91.31	179.1	232.0	113.7	6.132	0.378	0.365	0.287	0.341	0.260	0.260	0.220	0.294	0.242	0.220	0.227	0.216	0.244	0.195	0.208	0.228	0.218	0.211	0.218	0.214
495.0	48.57	142.4	131.6	46.11	228.1	1249	453.5	27.78	21.25	18.39	17.40	15.22	12.58	10.31	8.156	6.918	5.671	5.284	5.875	5.527	5.576	5.802	5.698	5.824	6.099	5.947	6.489	6.710	7.301	7.551	7.347	6.866	6.004	5.883	4.981	4.691	4.344	4.027	4.468	6.453	12.79	13.10	5.354	2.043	1.377	1.435	1.400	1.658	1.361	1.080	1.358	3.116	20.99	41.11	122.0	429.1	154.0	4.061	0.483	0.370	0.348	0.275	0.381	0.239	0.275	0.220	0.209	0.195	0.251	0.200	0.173	0.264	0.190	0.194	0.199	0.260	0.196
500.0	39.46	87.37	163.8	48.83	73.46	748.5	1098	102.8	19.99	17.12	17.18	13.94	11.68	9.919	7.890	6.485	5.387	5.255	5.488	5.078	5.443	5.148	5.387	4.936	5.433	5.570	6.086	6.391	6.653	6.533	6.836	6.523	6.255	5.533	5.067	4.399	4.173	3.620	3.762	3.896	7.600	14.06	9.460	3.084	1.484	1.335	1.228	1.522	1.738	1.130	0.865	1.262	5.285	9.816	30.28	227.8	390.6	29.41	2.170	0.406	0.319	0.337	0.329	0.221	0.242	0.247	0.228	0.201	0.238	0.269	0.240	0.259	0.189	0.196	0.205	0.220	0.187
505.0	29.94	46.55	164.6	77.71	34.81	302.4	1281	335.1	19.90	17.53	17.44	13.89	10.82	9.036	7.256	5.951	4.624	4.882	4.923	4.565	4.731	4.944	4.892	4.737	5.344	5.393	5.459	5.752	6.075	6.142	6.296	6.102	5.600	5.003	4.874	4.343	3.862	3.602	3.194	3.125	4.192	9.915	12.59	5.833	1.844	1.316	1.273	1.184	1.338	1.251	0.762	0.845	1.724	2.742	7.369	58.46	263.1	234.0	26.96	0.792	0.386	0.358	0.350	0.237	0.235	0.267	0.250	0.201	0.221	0.209	0.171	0.254	0.150	0.178	0.175	0.171	0.156
510.0	34.24	28.82	110.0	125.2	33.44	89.05	756.9	1090	124.4	17.00	14.61	13.06	9.987	7.840	6.864	5.604	4.923	4.483	4.272	4.261	4.122	4.139	4.157	4.243	4.482	4.763	4.892	5.222	5.573	5.719	5.698	5.208	5.245	4.693	4.255	4.034	3.601	3.217	2.915	2.729	2.808	4.860	9.584	9.809	4.450	1.712	1.209	1.066	1.187	1.159	1.144	0.828	0.881	1.084	2.180	13.65	67.27	159.3	236.5	101.3	5.882	0.392	0.323	0.273	0.252	0.223	0.265	0.235	0.206	0.194	0.198	0.196	0.160	0.196	0.180	0.207	0.200
515.0	28.62	28.86	50.41	140.7	64.47	33.35	225.3	1262	851.0	21.49	14.01	11.50	9.637	7.142	6.141	4.617	4.662	3.756	3.972	3.455	3.663	3.330	3.966	3.832	3.977	4.001	3.950	4.337	4.939	4.842	5.008	4.745	4.620	4.140	3.740	3.533	2.861	2.917	2.667	2.275	2.357	2.835	4.345	8.831	8.550	3.380	1.308	0.996	1.052	0.820	1.087	1.432	0.995	0.621	0.910	3.546	15.53	36.43	101.4	292.3	134.2	5.138	0.456	0.319	0.366	0.277	0.251	0.210	0.183	0.195	0.201	0.170	0.179	0.172	0.179	0.210	0.177
520.0	37.71	22.59	28.55	108.6	105.0	24.69	66.97	805.7	1792	70.06	14.67	10.95	9.574	7.398	5.735	4.457	4.260	3.692	2.898	2.933	3.447	3.166	3.367	3.468	3.519	3.547	3.843	3.672	4.269	4.314	4.414	4.263	3.899	3.658	3.523	3.390	2.909	2.678	2.468	2.007	1.933	2.033	2.436	5.507	9.231	5.946	2.050	0.986	0.938	0.742	0.823	1.338	1.163	0.575	0.608	1.175	3.909	8.634	24.44	147.0	293.5	30.89	2.776	0.292	0.336	0.254	0.228	0.237	0.167	0.239	0.184	0.192	0.168	0.175	0.199	0.169	0.154
525.0	33.35	19.83	20.54	66.17	139.1	33.69	30.97	323.5	2208	240.3	12.82	9.872	8.390	6.756	4.959	3.799	3.622	3.167	3.087	2.708	3.228	2.867	2.875	3.113	3.074	3.222	3.477	3.500	4.006	4.172	3.831	3.882	3.593	3.549	3.271	2.888	2.556	2.441	2.170	1.781	1.798	1.736	1.725	2.826	6.811	8.158	3.751	1.108	0.909	0.733	0.665	0.988	1.295	0.830	0.448	0.771	1.356	2.362	5.906	36.91	171.6	228.5	28.88	0.913	0.351	0.281	0.259	0.218	0.158	0.225	0.181	0.166	0.184	0.148	0.207	0.188	0.209
530.0	30.72	21.70	16.03	30.88	120.1	74.46	22.07	92.95	1284	998.2	70.23	9.242	8.374	6.351	4.608	3.401	3.325	2.919	2.748	2.522	2.621	2.515	2.585	2.737	2.560	2.812	3.033	2.961	3.308	3.360	3.441	3.128	3.089	3.214	2.754	2.457	2.371	2.183	1.935	1.725	1.674	1.578	1.338	1.656	3.259	6.533	6.070	2.669	1.029	0.711	0.550	0.664	0.893	1.118	0.746	0.552	0.670	0.902	1.706	8.628	42.53	122.3	219.9	75.12	7.962	0.384	0.267	0.205	0.194	0.240	0.157	0.202	0.185	0.179	0.187	0.194	0.227
535.0	36.11	23.60	14.62	16.45	65.98	115.0	29.37	32.81	377.1	1233	424.7	11.12	7.178	5.911	4.204	3.032	2.822	2.465	2.538	2.333	2.360	2.102	2.113	2.242	2.505	2.520	2.615	2.639	2.639	2.690	2.591	2.688	2.854	2.524	2.497	2.091	1.934	1.881	1.644	1.571	1.390	1.358	1.184	1.310	1.588	2.990	5.947	5.403	1.937	0.661	0.494	0.482	0.550	0.688	1.110	0.731	0.545	0.542	0.703	2.318	9.842	27.77	75.98	161.5	128.2	7.060	0.290	0.217	0.223	0.264	0.176	0.223	0.187	0.202	0.154	0.238	0.186
540.0	35.85	21.00	12.84	12.18	34.25	120.4	52.72	21.15	102.6	773.3	941.2	36.31	7.051	5.148	3.940	2.771	2.563	2.415	2.095	2.147	2.288	1.866	1.745	1.846	2.095	2.159	2.316	2.026	2.237	2.419	2.425	2.412	2.250	2.439	2.279	1.914	1.781	1.576	1.589	1.460	1.302	1.265	1.051	1.162	1.072	1.624	3.710	5.876	3.208	1.077	0.495	0.447	0.455	0.511	0.852	1.005	0.651	0.384	0.497	0.831	2.484	6.557	17.79	68.25	208.9	32.51	3.726	0.275	0.254	0.221	0.166	0.208	0.187	0.164	0.202	0.187	0.191
545.0	42.55	24.81	16.86	13.60	18.48	92.61	90.19	23.53	39.98	304.6	1217	158.4	7.346	4.756	3.730	2.568	2.176	2.020	1.698	1.918	1.876	1.749	1.792	1.749	1.671	1.892	2.033	1.844	2.023	2.161	2.143	2.158	1.902	2.138	1.943	1.748	1.665	1.560	1.323	1.408	1.200	1.133	1.148	1.083	1.035	1.081	1.885	4.823	4.516	1.967	0.661	0.406	0.444	0.406	0.464	0.878	1.036	0.435	0.344	0.403	0.817	1.750	4.341	16.48	101.9	181.5	29.85	1.326	0.234	0.250	0.196	0.189	0.209	0.159	0.173	0.227	0.170
550.0	113.4	59.25	25.63	12.47	13.76	48.96	122.5	55.93	49.00	123.1	751.7	703.7	42.46	5.016	3.684	2.346	1.816	1.831	1.802	1.832	1.536	1.568	1.637	1.539	1.404	1.669	1.604	1.656	1.711	1.765	2.008	1.915	1.814	1.865	1.910	1.626	1.382	1.341	1.285	1.237	1.223	1.126	1.014	1.114	0.952	0.971	1.102	2.353	3.922	3.193	1.438	0.502	0.385	0.330	0.369	0.535	0.983	0.875	0.503	0.422	0.574	0.716	1.393	4.037	24.54	79.76	132.3	70.24	7.579	0.318	0.194	0.170	0.190	0.173	0.183	0.183	0.196
555.0	271.0	157.2	56.63	20.50	16.24	33.28	111.3	131.6	108.0	152.4	321.2	959.6	169.9	7.397	3.010	2.341	2.004	1.632	1.515	1.568	1.239	1.257	1.401	1.326	1.218	1.352	1.249	1.399	1.423	1.668	1.565	1.540	1.776	2.028	1.784	1.681	1.256	1.229	1.364	1.391	1.110	1.190	1.260	1.164	1.149	1.046	1.071	1.187	2.215	3.301	2.553	0.945	0.390	0.313	0.318	0.343	0.564	0.935	1.025	0.628	0.620	0.703	1.013	1.591	6.112	18.44	40.92	109.0	83.20	7.052	0.286	0.196	0.236	0.191	0.237	0.151	0.195
560.0	454.6	249.0	88.43	29.02	24.61	36.91	96.58	197.8	169.0	214.8	259.5	686.4	611.6	23.28	3.169	2.161	1.711	1.408	1.360	1.422	1.236	1.270	1.087	1.064	1.098	1.094	1.176	1.316	1.288	1.249	1.256	1.568	1.871	2.082	2.099	1.812	1.242	1.154	1.337	1.293	1.359	1.322	1.430	1.291	1.283	1.199	1.016	1.012	1.233	2.307	2.830	1.637	0.545	0.376	0.276	0.332	0.445	0.725	1.287	0.982	0.778	0.947	1.051	1.216	2.268	5.251	10.15	40.40	109.3	32.72	3.828	0.285	0.267	0.185	0.232	0.201	0.169
565.0	564.3	341.8	133.0	51.00	29.95	45.19	89.84	222.8	241.4	272.4	291.0	409.7	839.9	104.5	3.985	2.232	1.680	1.308	1.329	1.312	1.156	1.128	1.023	0.934	0.949	1.001	1.088	1.208	1.184	1.094	1.154	1.601	1.912	2.325	2.205	1.770	1.227	1.273	1.274	1.378	1.429	1.336	1.572	1.541	1.657	1.397	1.160	0.977	0.834	1.356	2.331	2.118	0.940	0.435	0.343	0.449	0.453	0.656	1.049	1.518	1.253	1.229	1.299	1.432	1.743	2.380	3.373	10.17	46.24	83.98	29.23	1.836	0.310	0.241	0.260	0.203	0.187
570.0	721.2	486.8	242.9	104.1	58.07	57.41	95.28	215.3	330.1	360.5	379.8	338.1	572.8	473.3	21.11	2.180	1.652	1.282	1.124	1.023	0.966	0.890	0.870	0.836	0.875	0.938	0.878	0.840	0.930	0.861	1.110	1.320	2.042	2.450	2.542	1.929	1.472	1.407	1.502	1.466	1.633	1.563	1.607	1.735	1.972	1.768	1.452	1.255	0.955	0.969	1.394	2.101	1.750	0.810	0.414	0.455	0.525	0.669	0.842	1.292	1.725	1.588	1.541	1.848	1.986	1.933	2.209	3.610	11.36	32.21	68.27	52.06	10.00	0.343	0.278	0.217	0.222
575.0	867.4	661.4	359.1	163.1	85.30	69.89	109.2	211.9	396.1	462.6	463.6	378.4	271.6	635.5	113.4	2.687	1.776	1.253	1.281	0.915	0.965	0.949	0.907	0.775	0.755	0.762	0.797	0.704	0.847	0.679	0.886	1.143	1.989	2.654	2.501	2.072	1.691	1.603	1.611	1.571	1.565	1.668	1.832	1.978	2.072	2.042	1.670	1.471	1.067	0.930	0.995	1.395	1.908	1.463	0.690	0.463	0.510	0.689	0.952	1.146	1.595	2.179	2.074	2.297	2.310	2.127	2.243	2.405	3.645	7.804	19.07	61.22	65.32	6.377	0.303	0.255	0.215
580.0	973.1	740.8	420.2	203.2	103.3	77.09	115.7	208.8	391.6	516.6	501.3	394.9	195.6	419.7	386.9	9.594	1.630	1.171	0.903	0.848	0.909	0.731	0.710	0.792	0.679	0.783	0.672	0.672	0.801	0.630	0.757	1.154	1.901	2.436	2.629	2.124	1.811	1.544	1.414	1.601	1.508	1.709	2.013	2.062	2.271	2.158	1.787	1.654	1.370	1.032	0.871	0.951	1.633	1.688	0.997	0.572	0.566	0.725	0.805	1.092	1.574	2.198	2.414	2.378	2.511	2.323	2.227	2.096	1.952	2.384	4.859	19.82	64.87	31.58	3.325	0.324	0.234
585.0	1001	784.7	448.7	232.6	107.8	84.61	118.4	210.8	379.5	545.8	514.2	408.2	184.0	189.0	530.4	51.88	1.688	1.278	0.978	0.817	0.797	0.664	0.574	0.634	0.552	0.636	0.590	0.579	0.736	0.651	0.612	1.074	1.911	2.509	2.789	2.005	1.768	1.536	1.621	1.593	1.793	1.672	2.052	2.258	2.201	2.272	1.886	1.740	1.417	1.095	0.865	0.844	1.102	1.694	1.264	0.740	0.642	0.729	0.878	0.987	1.574	1.950	2.458	2.597	2.452	2.117	2.291	2.047	1.523	1.274	1.714	4.914	23.56	49.66	25.67	1.457	0.257
590.0	988.6	790.3	469.5	245.6	117.0	83.51	112.3	204.6	342.7	526.7	532.5	403.1	185.5	89.72	327.2	259.6	8.765	1.175	1.168	0.832	0.887	0.606	0.569	0.566	0.634	0.629	0.549	0.532	0.615	0.590	0.680	1.106	1.910	2.495	2.686	1.971	1.784	1.536	1.499	1.408	1.594	1.647	1.833	2.145	2.198	2.148	1.907	1.815	1.392	1.118	0.839	0.734	0.810	1.148	1.366	1.105	0.800	0.698	0.821	1.068	1.353	1.725	2.051	2.761	2.747	2.342	2.299	1.946	1.456	1.015	0.928	1.503	5.659	17.46	40.24	29.32	7.032
595.0	911.7	773.2	501.3	258.9	125.8	80.61	106.0	183.7	309.8	463.8	530.2	382.9	183.6	66.39	98.20	363.3	71.07	1.459	1.188	0.842	0.717	0.593	0.462	0.513	0.526	0.535	0.589	0.507	0.513	0.531	0.628	1.022	1.451	2.303	2.557	1.987	1.781	1.551	1.319	1.433	1.537	1.505	1.705	1.876	2.225	2.018	1.741	1.801	1.323	1.165	0.924	0.847	0.682	0.686	1.000	1.238	1.033	0.824	0.828	0.903	1.230	1.566	1.889	2.098	2.684	2.422	2.170	1.868	1.287	1.002	0.707	0.740	1.462	4.148	10.49	30.59	35.79
600.0	835.3	728.6	469.6	260.9	123.1	74.60	104.7	169.9	279.1	409.8	496.2	369.4	176.6	58.61	31.98	241.7	234.7	4.564	1.032	0.779	0.794	0.536	0.529	0.556	0.582	0.562	0.555	0.414	0.562	0.528	0.582	0.878	1.302	2.150	2.215	1.851	1.764	1.470	1.301	1.401	1.454	1.506	1.514	1.809	1.895	1.915	1.796	1.745	1.270	1.076	0.842	0.738	0.607	0.559	0.717	1.116	1.140	0.858	0.852	0.935	1.299	1.500	1.806	2.008	2.371	2.359	2.136	1.774	1.031	0.882	0.754	0.530	0.596	1.171	2.598	9.457	41.79
605.0	776.9	651.0	436.8	244.5	118.0	71.25	95.09	155.7	250.0	349.6	453.7	362.5	168.0	55.57	15.71	95.98	351.0	28.71	1.195	0.781	0.650	0.573	0.554	0.481	0.599	0.605	0.542	0.442	0.465	0.427	0.546	0.803	1.429	1.914	1.946	1.717	1.677	1.328	1.088	1.221	1.300	1.260	1.581	1.523	1.770	1.701	1.631	1.433	1.393	1.051	0.784	0.717	0.611	0.520	0.478	0.837	1.201	0.959	0.868	0.804	1.058	1.359	1.506	1.822	2.000	2.030	2.121	1.660	1.109	0.823	0.639	0.424	0.367	0.466	0.765	2.353	14.93
610.0	679.3	581.4	412.8	228.6	109.3	67.13	83.83	135.8	218.7	303.9	370.8	337.3	154.2	51.63	12.01	26.44	235.5	151.4	5.198	0.760	0.657	0.535	0.456	0.451	0.434	0.475	0.491	0.375	0.414	0.442	0.468	0.691	1.095	1.566	1.782	1.516	1.416	1.325	1.112	1.023	1.122	1.189	1.313	1.406	1.517	1.665	1.494	1.453	1.345	0.907	0.735	0.672	0.568	0.437	0.412	0.596	0.891	1.028	0.932	0.805	0.939	1.192	1.353	1.549	1.634	1.657	1.775	1.700	1.101	0.784	0.633	0.420	0.296	0.348	0.344	0.695	3.585
615.0	594.1	499.2	372.6	208.1	98.75	57.89	70.71	113.3	182.3	255.8	302.1	286.5	148.5	45.18	11.21	9.108	70.24	250.8	54.55	0.768	0.690	0.622	0.429	0.443	0.428	0.405	0.491	0.364	0.378	0.457	0.425	0.651	0.952	1.418	1.492	1.277	1.102	1.213	1.194	1.003	0.975	1.049	1.121	1.091	1.349	1.400	1.336	1.349	1.139	0.916	0.663	0.593	0.532	0.410	0.373	0.430	0.572	0.750	0.959	0.742	0.900	1.020	1.192	1.380	1.380	1.464	1.421	1.445	1.199	0.753	0.572	0.424	0.304	0.266	0.279	0.347	1.001
620.0	527.0	452.2	335.4	191.3	88.81	53.25	59.04	97.92	158.7	221.4	261.6	242.9	150.9	42.49	9.652	4.674	19.13	181.6	202.1	1.942	0.772	0.634	0.461	0.488	0.387	0.359	0.354	0.379	0.386	0.387	0.427	0.527	0.807	1.340	1.138	1.248	1.055	0.991	1.101	0.976	0.778	0.860	1.100	1.023	1.158	1.224	1.141	1.168	1.139	0.848	0.631	0.585	0.441	0.402	0.317	0.347	0.472	0.617	0.871	0.865	0.843	0.913	1.073	1.205	1.238	1.217	1.173	1.324	1.147	0.954	0.594	0.380	0.255	0.237	0.261	0.225	0.397
625.0	483.6	400.6	300.9	175.2	80.46	48.31	53.66	83.56	138.1	194.8	223.0	198.0	144.7	43.91	8.731	3.889	6.067	78.22	348.2	12.08	0.830	0.525	0.520	0.386	0.381	0.367	0.327	0.437	0.322	0.349	0.301	0.500	0.848	1.148	1.220	1.019	0.976	0.846	0.865	0.771	0.838	0.900	0.911	1.009	1.047	1.131	0.979	1.010	0.998	0.748	0.585	0.555	0.459	0.365	0.250	0.338	0.313	0.520	0.739	0.823	0.783	0.815	0.915	1.086	1.135	1.114	0.961	0.962	0.932	0.986	0.551	0.344	0.245	0.213	0.205	0.204	0.254
630.0	383.6	337.8	261.9	147.5	71.61	44.81	46.87	70.12	110.8	161.4	180.4	157.3	118.4	51.74	8.683	3.449	2.940	21.26	257.8	91.70	1.973	0.505	0.505	0.482	0.442	0.344	0.304	0.394	0.301	0.331	0.330	0.406	0.740	1.027	1.013	0.945	0.893	0.738	0.720	0.736	0.733	0.684	0.733	0.917	0.840	0.976	0.908	0.849	0.750	0.679	0.509	0.482	0.416	0.305	0.279	0.287	0.348	0.373	0.481	0.693	0.737	0.734	0.846	0.846	0.825	0.958	0.866	0.800	0.754	0.736	0.658	0.454	0.262	0.232	0.213	0.232	0.211
635.0	305.5	287.2	212.2	121.6	60.70	37.08	39.11	54.31	90.85	127.3	147.2	126.1	86.32	57.16	10.98	3.103	2.176	6.087	77.86	165.7	21.93	0.608	0.497	0.493	0.452	0.332	0.337	0.392	0.307	0.278	0.347	0.416	0.581	0.843	0.845	0.877	0.696	0.689	0.528	0.637	0.707	0.662	0.577	0.711	0.732	0.866	0.705	0.788	0.677	0.580	0.433	0.430	0.354	0.305	0.300	0.255	0.279	0.359	0.356	0.555	0.637	0.789	0.746	0.686	0.707	0.795	0.781	0.715	0.575	0.546	0.522	0.487	0.253	0.199	0.189	0.204	0.195
640.0	262.7	253.5	183.3	111.8	51.51	31.39	33.10	47.85	75.50	104.9	126.1	107.7	68.01	54.29	15.57	3.283	1.949	2.304	20.70	132.4	66.03	0.993	0.502	0.375	0.504	0.321	0.326	0.344	0.303	0.304	0.309	0.373	0.566	0.745	0.776	0.722	0.629	0.597	0.430	0.606	0.571	0.635	0.541	0.662	0.741	0.670	0.704	0.683	0.608	0.509	0.364	0.375	0.336	0.237	0.210	0.236	0.241	0.302	0.296	0.427	0.513	0.560	0.735	0.653	0.670	0.666	0.648	0.575	0.585	0.493	0.421	0.397	0.345	0.221	0.192	0.205	0.202
645.0	224.0	215.7	150.4	93.21	48.27	24.89	27.52	40.97	63.33	89.52	106.3	90.51	56.66	42.63	22.90	3.573	2.093	1.556	5.921	62.60	140.2	5.868	0.530	0.457	0.416	0.330	0.336	0.332	0.277	0.393	0.280	0.361	0.460	0.631	0.626	0.591	0.585	0.514	0.543	0.465	0.543	0.557	0.693	0.589	0.640	0.583	0.588	0.595	0.545	0.425	0.303	0.316	0.301	0.217	0.206	0.265	0.201	0.288	0.261	0.325	0.353	0.454	0.648	0.593	0.547	0.672	0.569	0.482	0.515	0.410	0.321	0.276	0.374	0.245	0.199	0.175	0.168
650.0	195.7	182.3	134.4	84.40	39.44	22.43	24.03	35.97	51.60	75.34	87.74	76.94	48.45	29.43	27.87	4.767	1.899	1.494	2.410	19.37	148.4	32.88	0.531	0.493	0.406	0.338	0.332	0.328	0.340	0.308	0.338	0.335	0.398	0.492	0.633	0.556	0.554	0.546	0.444	0.428	0.412	0.460	0.604	0.482	0.486	0.558	0.505	0.559	0.427	0.406	0.283	0.321	0.315	0.223	0.221	0.203	0.184	0.221	0.241	0.237	0.357	0.442	0.585	0.541	0.650	0.557	0.560	0.463	0.452	0.343	0.271	0.254	0.372	0.308	0.232	0.172	0.155
