Sample:	'1
File name:	t2025042109докндоге.FD3
Run date:	'10:08:35, 04/22/2025
Operator:	Administrator
Comment:	'

Instrument
Model:	F-2700 FL Spectrophotometer
Serial number:	23B8-004
ROM Version:	4J14000 07

Instrument parameters
Measurement type:	3-D scan
Data mode:	Fluorescence
EX  Start WL:	220.0 nm
EX  End WL:	600.0 nm
EX Sampling interval:	5.0 nm
EM  Start WL:	230.0 nm
EM  End WL:	650.0 nm
EM Sampling interval:	5.0 nm
Scan speed:	12000 nm/min
EX Slit:	5.0 nm
EM Slit:	5.0 nm
PMT Voltage:	700 V
Response:	Auto 
Corrected spectra:	Off
Contour interval:	50.000

Peak integration
Integration method:	Rectangular
Sensitivity:	1
Threshold:	1.000

Peaks
No.	ApexEX/EM(nm)	Height(Data)
1	225.0/555.0	79.73
2	225.0/580.0	88.68
3	225.0/600.0	81.29
4	230.0/340.0	3487
5	230.0/620.0	93.48
6	230.0/635.0	94.05
7	240.0/520.0	270.8
8	245.0/535.0	225.4
9	250.0/545.0	181.4
10	255.0/280.0	633.1
11	255.0/560.0	151.2
12	260.0/285.0	693.9
13	260.0/575.0	128.8
14	265.0/585.0	127.4
15	275.0/320.0	3332
16	275.0/615.0	193.0
17	280.0/620.0	178.6
18	445.0/525.0	22.72
19	460.0/340.0	9.506
20	515.0/280.0	3.538
21	520.0/285.0	3.881
22	560.0/315.0	15.49
23	565.0/320.0	15.47

Data points
	220.0	225.0	230.0	235.0	240.0	245.0	250.0	255.0	260.0	265.0	270.0	275.0	280.0	285.0	290.0	295.0	300.0	305.0	310.0	315.0	320.0	325.0	330.0	335.0	340.0	345.0	350.0	355.0	360.0	365.0	370.0	375.0	380.0	385.0	390.0	395.0	400.0	405.0	410.0	415.0	420.0	425.0	430.0	435.0	440.0	445.0	450.0	455.0	460.0	465.0	470.0	475.0	480.0	485.0	490.0	495.0	500.0	505.0	510.0	515.0	520.0	525.0	530.0	535.0	540.0	545.0	550.0	555.0	560.0	565.0	570.0	575.0	580.0	585.0	590.0	595.0	600.0
230.0	37.27	987.1	4440	2306	132.4	7.325	5.895	5.231	4.500	4.551	4.259	4.527	3.951	3.837	3.320	3.051	2.489	2.270	1.918	1.748	1.498	1.579	1.341	1.274	1.144	1.076	1.011	0.982	0.911	0.853	0.829	0.756	0.691	0.744	0.666	0.632	0.605	0.502	0.486	0.418	0.482	0.487	0.505	0.445	0.401	0.406	0.826	5.645	14.60	14.62	7.478	1.666	0.365	0.209	0.214	0.196	0.218	0.216	0.206	0.155	0.162	0.169	0.150	0.144	0.150	0.119	0.125	0.096	0.112	0.097	0.096	0.084	0.062	0.072	0.069	0.063	0.046
235.0	119.3	270.7	2211	5591	3107	225.8	9.159	7.728	6.090	5.049	4.550	5.741	4.149	4.062	3.495	3.089	2.838	2.397	1.915	1.710	1.529	1.646	1.252	1.420	1.221	1.184	1.109	1.050	0.912	0.942	0.847	0.762	0.730	0.837	0.649	0.596	0.528	0.501	0.433	0.463	0.428	0.432	0.509	0.523	0.608	0.460	0.445	1.580	4.627	9.884	17.06	22.52	14.77	3.884	0.428	0.203	0.203	0.184	0.209	0.210	0.218	0.169	0.144	0.169	0.126	0.196	0.138	0.112	0.098	0.138	0.089	0.097	0.079	0.102	0.066	0.070	0.024
240.0	139.6	168.3	595.2	3678	7525	2727	128.6	10.39	7.889	7.012	5.982	5.740	4.308	3.973	3.906	3.143	2.783	2.342	2.323	2.194	1.889	1.596	1.448	1.472	1.277	1.076	1.223	1.147	1.010	0.901	0.881	0.699	0.647	0.702	0.741	0.485	0.523	0.612	0.478	0.445	0.436	0.499	0.393	0.435	0.501	0.637	0.559	0.731	1.269	2.730	6.921	20.57	33.60	23.99	13.33	2.365	0.287	0.251	0.201	0.226	0.187	0.174	0.180	0.166	0.129	0.180	0.152	0.133	0.133	0.138	0.100	0.131	0.068	0.094	0.062	0.058	0.061
245.0	89.13	218.2	228.1	1072	6209	8632	2026	59.85	10.76	9.219	6.816	6.935	5.675	4.664	4.354	3.641	3.246	2.741	2.318	2.235	1.873	1.731	1.710	1.468	1.453	1.289	1.293	1.105	0.813	1.045	0.876	0.820	0.817	0.764	0.621	0.592	0.507	0.528	0.466	0.456	0.429	0.478	0.375	0.395	0.423	0.666	0.790	0.909	0.694	0.910	1.805	5.868	16.96	33.79	45.76	22.81	10.13	1.173	0.333	0.196	0.206	0.205	0.188	0.190	0.170	0.191	0.129	0.123	0.124	0.145	0.101	0.125	0.069	0.101	0.080	0.067	0.071
250.0	42.29	131.4	266.0	366.9	1747	6140	9961	4303	145.7	14.54	10.60	8.827	6.993	5.964	5.012	4.228	3.253	2.881	2.357	2.542	2.133	1.650	1.688	1.656	1.449	1.365	1.325	1.265	1.035	0.996	0.879	0.856	0.884	0.793	0.659	0.814	0.618	0.644	0.513	0.504	0.472	0.483	0.428	0.419	0.422	0.520	0.516	0.808	1.059	1.029	1.035	1.676	4.153	9.540	20.97	32.17	50.12	46.47	17.57	8.482	1.115	0.345	0.199	0.231	0.196	0.191	0.189	0.129	0.133	0.152	0.137	0.108	0.111	0.110	0.119	0.092	0.105
255.0	34.93	57.07	153.9	350.4	522.0	1452	5334	9999.9	7270	188.4	18.02	12.68	9.142	7.417	5.673	4.857	3.895	3.548	2.627	2.553	2.503	1.988	1.797	1.734	1.487	1.458	1.584	1.199	1.228	1.109	1.064	1.037	0.918	0.847	0.929	0.714	0.627	0.653	0.739	0.511	0.633	0.525	0.410	0.460	0.461	0.518	0.431	0.491	0.650	0.854	1.316	1.655	1.642	2.519	4.930	7.658	14.23	32.46	69.03	89.22	27.25	11.62	0.845	0.377	0.333	0.253	0.221	0.183	0.192	0.157	0.186	0.123	0.119	0.147	0.138	0.114	0.132
260.0	41.75	36.67	62.01	240.8	413.0	409.6	1393	7975	9999.9	2047	123.3	17.93	12.56	9.096	7.536	5.606	4.523	3.937	3.413	2.683	2.574	2.173	2.181	1.635	1.779	1.590	1.624	1.363	1.243	1.352	1.155	1.082	0.819	0.961	0.804	0.741	0.608	0.637	0.724	0.638	0.658	0.560	0.559	0.598	0.477	0.432	0.461	0.422	0.484	0.479	0.718	1.493	1.885	1.652	1.442	2.065	3.669	8.126	24.03	63.16	100.7	95.97	23.20	5.986	0.553	0.269	0.313	0.230	0.253	0.170	0.237	0.138	0.202	0.188	0.170	0.170	0.136
265.0	41.29	30.01	39.31	100.9	361.9	336.3	369.7	2344	9999.9	9999.9	1617	67.04	18.80	13.45	9.664	6.777	5.283	4.357	4.049	3.072	2.799	2.442	2.079	1.941	1.779	1.545	1.674	1.465	1.386	1.467	1.138	1.269	0.939	0.987	0.815	0.740	0.720	0.657	0.687	0.707	0.603	0.540	0.619	0.650	0.557	0.499	0.486	0.463	0.480	0.412	0.450	0.788	1.552	2.091	1.718	1.226	1.319	2.153	5.909	16.36	44.22	97.56	128.7	32.04	17.70	2.128	0.453	0.333	0.293	0.217	0.214	0.254	0.277	0.206	0.159	0.181	0.190
270.0	79.27	74.51	60.55	56.67	158.7	370.6	365.1	603.4	2975	9999.9	9999.9	6235	99.21	22.13	13.83	10.50	7.152	6.230	4.593	4.032	3.447	2.934	2.624	2.332	2.081	2.010	1.795	1.723	1.508	1.559	1.306	1.339	1.059	1.205	0.982	0.883	0.778	0.831	0.746	0.785	0.684	0.639	0.662	0.654	0.636	0.602	0.587	0.515	0.534	0.479	0.343	0.567	0.734	1.127	1.674	2.047	2.146	1.474	1.820	4.172	10.40	25.29	52.36	78.91	117.5	95.89	78.37	11.67	2.636	0.432	0.354	0.324	0.291	0.308	0.274	0.220	0.202
275.0	182.9	189.9	175.9	95.13	87.52	164.4	477.5	448.2	760.8	2403	8006	9999.9	8456	121.1	24.20	16.04	10.44	7.863	6.178	5.073	4.251	3.146	3.118	2.827	2.542	2.188	2.193	2.060	1.690	1.752	1.522	1.483	1.256	1.398	1.055	1.071	0.978	1.037	1.036	0.791	0.761	0.738	0.761	0.863	0.754	1.007	0.811	0.875	0.850	0.623	0.601	0.621	0.482	0.642	0.787	1.074	1.881	3.064	2.774	2.105	2.804	6.221	12.32	18.35	30.37	56.94	146.8	183.2	32.64	17.93	1.891	0.577	0.465	0.343	0.399	0.295	0.302
280.0	315.7	369.4	317.8	162.1	95.10	107.6	280.5	633.1	422.1	679.5	2167	9999.9	9999.9	5928	83.83	22.75	14.50	10.39	7.738	6.113	4.953	3.775	3.344	3.154	2.719	2.491	2.377	1.963	1.845	2.230	1.794	1.633	1.521	1.491	1.257	1.314	1.391	1.193	0.974	0.969	0.952	0.846	1.090	0.930	0.965	1.270	1.331	1.342	1.338	0.960	0.714	0.817	0.623	0.638	0.690	0.726	1.105	2.024	3.246	3.538	2.185	2.235	3.570	4.883	7.699	14.20	42.51	102.9	174.7	197.2	29.81	12.49	0.989	0.566	0.501	0.336	0.435
285.0	430.0	527.3	447.0	254.4	129.2	113.8	170.6	480.4	693.9	387.7	714.8	3040	9999.9	9999.9	926.8	55.11	19.54	13.34	9.550	7.211	5.756	4.781	3.997	3.409	3.127	2.508	2.427	2.377	2.108	2.044	2.153	1.764	1.812	1.596	1.671	1.393	1.534	1.440	1.113	1.087	1.014	0.996	1.144	1.170	1.262	1.547	1.593	1.700	1.531	1.184	0.963	0.859	0.767	0.730	0.795	0.652	0.876	1.231	1.857	3.213	3.881	3.084	2.154	2.361	2.872	4.378	10.72	25.41	61.12	146.2	209.2	178.1	25.00	5.989	0.731	0.568	0.496
290.0	588.6	723.0	646.4	375.0	203.2	165.0	190.4	304.0	637.9	812.9	623.4	1050	3211	9999.9	9999.9	9999.9	63.73	22.85	14.05	9.634	7.265	6.002	4.704	3.996	3.716	2.893	3.084	2.706	2.392	2.288	2.138	1.825	1.782	1.818	1.897	1.809	1.661	1.726	1.382	1.385	1.172	1.227	1.254	1.366	1.606	2.031	1.873	2.085	2.036	1.711	1.312	1.241	1.144	1.004	0.873	0.917	1.046	1.254	1.410	1.830	2.703	3.503	4.253	3.821	3.102	2.817	4.349	7.484	15.52	36.15	68.97	121.1	151.5	113.1	116.2	17.02	6.655
295.0	709.1	897.6	846.3	550.8	304.1	257.1	278.7	344.7	509.0	907.0	1186	886.0	1202	2607	8324	9999.9	5348	76.80	23.05	13.90	10.91	8.005	6.133	5.279	4.341	3.952	3.404	2.933	2.849	2.649	2.213	2.114	2.170	2.099	2.094	2.155	1.923	1.847	1.689	1.461	1.395	1.403	1.459	1.502	1.861	2.222	2.432	2.828	2.656	2.293	1.796	1.637	1.484	1.431	1.342	1.331	1.299	1.591	1.708	1.839	2.280	2.763	3.283	5.215	6.246	5.039	4.347	4.552	6.056	10.32	17.40	28.89	36.79	49.22	142.5	226.0	192.0
300.0	850.5	1098	1049	700.6	451.1	410.1	448.2	584.6	749.1	1093	1706	1540	1225	1268	2529	9999.9	9999.9	4077	61.77	21.01	14.43	9.553	7.662	6.199	5.123	4.705	3.690	3.552	3.049	3.014	2.327	2.122	2.162	2.391	2.219	2.192	2.060	1.943	1.969	1.577	1.626	1.603	1.832	1.777	2.041	2.702	2.698	3.334	3.125	2.800	2.156	2.169	1.969	1.883	1.943	1.830	2.121	2.575	2.674	3.022	3.158	3.814	4.630	5.289	7.353	8.705	8.711	6.738	6.331	6.678	7.741	9.856	11.28	14.20	38.86	97.23	208.6
305.0	1076	1359	1339	929.6	661.7	600.9	774.8	1024	1322	1768	2162	2818	2195	1420	1500	3562	9999.9	9999.9	593.4	41.48	20.56	12.64	8.970	7.558	6.407	5.243	4.179	3.928	3.525	3.216	2.903	2.343	2.226	2.321	2.384	2.515	2.400	2.189	2.173	1.940	2.083	1.945	2.063	2.143	2.424	3.098	3.510	3.905	3.864	3.435	2.738	3.049	2.885	2.722	2.714	2.853	3.384	3.786	4.261	4.981	5.637	6.450	7.262	8.626	9.316	10.97	12.58	12.64	11.31	9.660	9.017	8.839	8.411	8.771	13.82	26.80	63.10
310.0	1197	1624	1659	1200	871.8	847.3	1050	1327	1662	2161	2608	3136	3089	2232	1728	1753	3867	9999.9	9999.9	7810	47.81	20.23	13.40	10.05	8.108	6.055	5.363	4.400	4.123	3.598	3.290	2.769	2.482	2.426	2.646	2.612	2.516	2.470	2.138	2.155	2.152	2.216	2.249	2.334	2.695	3.565	3.932	4.419	4.635	4.072	3.590	3.819	3.506	3.351	3.445	3.736	4.388	5.091	5.641	6.541	7.058	7.808	8.800	10.48	11.32	12.12	13.04	14.05	15.21	14.46	12.73	10.95	9.761	9.712	9.623	11.55	19.14
315.0	1383	1913	1997	1454	1092	1029	1240	1520	1827	2352	2829	3249	3265	2950	2109	1509	1795	2850	9069	9999.9	3909	54.86	20.17	14.82	10.23	7.860	6.408	5.295	4.957	3.989	3.559	3.028	2.932	2.721	2.775	2.568	2.697	2.405	2.271	2.388	2.305	2.358	2.456	2.562	3.052	3.937	4.623	5.520	5.384	4.688	4.155	4.275	4.465	3.944	3.923	4.003	5.218	5.906	6.821	7.288	7.529	8.539	10.02	10.99	11.52	13.23	14.14	14.12	15.49	15.06	15.33	14.88	12.39	11.35	9.840	9.080	9.810
320.0	1525	2162	2289	1638	1198	1123	1335	1625	1889	2422	2922	3332	3299	3049	2507	1561	1391	1228	2449	9999.9	9999.9	3008	43.34	19.40	13.80	9.495	7.186	6.363	5.334	4.920	3.953	3.214	3.058	2.794	2.778	2.657	2.907	2.519	2.566	2.308	2.222	2.442	2.587	2.764	3.265	4.309	5.055	6.253	6.559	5.279	4.736	4.769	4.534	4.183	4.390	4.544	5.565	6.226	6.827	7.659	7.660	8.671	9.827	11.52	12.35	13.46	14.33	14.95	15.31	15.47	14.55	14.99	14.61	13.69	10.78	8.825	8.233
325.0	1643	2456	2617	1854	1284	1149	1339	1608	1868	2338	2807	3228	3199	2868	2591	1716	1268	857.6	750.8	3087	9999.9	9999.9	456.8	33.01	18.03	11.73	9.116	7.394	5.833	5.260	4.175	3.586	3.375	3.158	2.733	2.679	2.801	2.498	2.551	2.347	2.570	2.491	2.929	2.956	3.695	4.662	5.926	7.185	7.373	6.463	5.162	5.247	4.903	4.475	4.562	4.741	5.715	6.143	6.869	7.454	7.823	8.654	9.437	11.10	12.30	12.97	13.66	14.25	15.29	14.67	14.13	14.17	13.78	14.51	12.63	9.552	7.916
330.0	1761	2705	3055	2441	1637	1264	1290	1527	1727	2158	2606	3004	3002	2689	2306	1794	1334	777.8	422.4	845.8	3382	9999.9	9999.9	6821	39.96	17.93	12.44	9.443	7.189	5.841	5.108	4.091	3.771	3.369	2.822	2.891	2.708	2.521	2.489	2.381	2.420	2.673	2.971	3.255	3.980	5.158	6.188	7.699	8.329	7.865	6.431	7.034	6.343	5.173	5.130	5.020	5.453	6.063	6.530	6.843	7.391	7.821	8.807	10.30	11.13	11.77	12.59	13.08	13.77	14.11	13.86	13.10	12.52	12.51	11.60	10.31	9.283
335.0	1789	2875	3436	2926	2139	1471	1281	1458	1627	2005	2395	2784	2804	2573	2153	1657	1444	899.1	426.1	405.7	910.4	2454	9999.9	9999.9	3224	45.44	18.35	12.75	8.956	7.080	5.864	5.156	4.020	3.992	3.223	3.094	3.030	2.637	2.464	2.593	2.499	2.620	2.944	3.365	4.150	5.583	6.505	8.461	9.477	8.844	7.831	8.684	8.103	6.815	5.940	4.878	5.341	5.687	6.495	6.719	6.929	7.777	8.473	9.374	10.40	11.32	11.87	12.08	12.63	13.01	13.16	12.84	12.26	11.65	10.93	9.381	9.169
340.0	1730	2902	3487	3064	2219	1526	1245	1364	1514	1839	2201	2533	2589	2389	2014	1519	1298	1013	487.6	331.0	377.2	683.1	2686	9999.9	9999.9	2572	36.51	16.19	11.14	8.576	6.654	5.335	4.791	4.148	3.513	3.146	3.039	2.713	2.678	2.658	2.563	2.454	2.997	3.191	4.250	5.555	6.371	8.521	9.506	9.054	8.346	9.307	8.569	7.266	6.208	4.898	5.416	5.394	6.062	6.169	6.589	6.945	7.678	8.650	9.299	9.892	10.81	11.41	11.72	11.81	12.40	11.84	11.44	11.01	9.778	8.224	7.938
345.0	1640	2694	3329	2972	2145	1473	1184	1263	1398	1673	1984	2270	2324	2178	1833	1390	1123	947.1	607.1	344.1	271.7	301.9	714.9	3297	9999.9	9999.9	396.7	25.43	14.52	10.40	7.727	5.932	5.227	4.377	3.537	3.373	3.085	2.910	2.649	2.356	2.197	2.623	2.863	3.284	3.955	5.091	6.099	8.191	9.074	8.681	8.076	8.979	8.659	7.226	6.162	5.087	4.934	5.461	5.690	5.903	6.155	6.267	7.059	7.849	8.266	8.593	9.874	10.21	10.74	11.10	11.03	10.94	10.48	10.06	9.133	7.820	7.361
350.0	1506	2384	3055	2830	2164	1472	1136	1172	1267	1494	1734	1971	2015	1911	1636	1264	1014	797.9	658.1	478.3	300.8	247.2	298.0	836.3	3535	9999.9	9999.9	5621	34.28	14.80	10.36	7.816	5.650	4.872	3.914	3.375	3.152	2.773	2.856	2.529	2.231	2.483	2.838	2.952	3.551	4.592	5.531	7.430	8.155	7.948	7.418	8.559	8.390	7.324	6.165	5.050	4.930	4.866	5.139	5.510	5.605	5.910	6.237	6.789	7.485	7.717	8.609	8.934	9.289	9.734	9.781	9.432	9.130	8.853	8.180	7.463	6.851
355.0	1322	2142	2677	2558	2079	1461	1092	1108	1167	1346	1525	1709	1735	1673	1447	1151	937.1	738.0	580.2	561.9	424.2	271.6	231.9	303.8	863.9	2404	9706	9999.9	2945	40.98	14.79	10.40	7.479	5.512	4.533	3.631	3.250	2.956	2.852	2.502	2.339	2.311	2.600	2.728	3.214	4.280	4.984	6.533	7.042	7.161	7.028	7.889	7.847	6.638	6.057	4.822	4.662	4.760	4.887	5.013	5.146	5.458	5.593	6.087	6.471	6.991	7.501	7.820	7.851	8.351	8.550	8.409	8.152	7.673	7.497	6.703	6.290
360.0	1172	1818	2390	2309	1929	1374	1072	1051	1107	1230	1373	1523	1554	1493	1313	1068	882.8	709.4	558.7	517.6	507.4	340.6	237.1	201.5	282.6	601.7	2567	9999.9	9999.9	2442	32.51	14.02	9.342	6.343	5.019	3.906	3.769	3.225	2.999	2.542	2.295	2.408	2.401	2.625	3.394	3.880	4.343	5.503	6.278	6.472	6.319	7.037	7.369	6.106	5.658	4.808	4.624	4.783	4.682	4.768	4.999	4.990	5.429	5.567	6.025	6.488	6.834	6.872	6.952	7.504	7.759	7.362	7.300	6.886	6.580	5.988	6.132
365.0	1096	1603	2122	2108	1785	1314	1048	1017	1049	1152	1273	1389	1402	1354	1214	987.7	839.9	690.9	559.3	484.3	498.9	441.9	273.1	197.6	173.1	213.8	635.9	3255	9999.9	9999.9	373.0	24.38	11.83	8.146	6.098	4.505	4.067	3.180	3.147	2.737	2.491	2.344	2.611	2.789	3.093	3.473	4.125	5.182	5.615	5.754	5.661	6.626	6.663	5.883	5.449	4.532	4.550	4.307	4.669	4.598	4.501	4.662	5.092	5.275	5.664	5.863	6.182	6.375	6.393	6.779	6.647	6.801	6.684	6.458	6.353	5.444	5.765
370.0	984.4	1454	1845	1882	1651	1273	1019	977.2	1005	1076	1170	1242	1252	1215	1098	930.3	807.4	688.0	574.9	497.8	458.6	463.5	392.6	250.4	178.5	152.0	218.6	790.7	3432	9999.9	9999.9	5689	30.25	12.44	8.118	5.848	4.696	3.852	3.325	2.966	2.588	2.485	2.630	2.459	2.840	3.321	3.727	4.702	5.291	5.098	5.271	5.976	6.172	5.712	5.194	4.434	4.515	4.265	4.412	4.300	4.466	4.561	4.856	5.068	5.222	5.186	5.415	5.407	5.737	5.901	5.964	5.973	5.755	5.945	5.748	5.510	5.316
375.0	823.7	1267	1580	1666	1511	1211	992.3	949.8	968.1	1014	1062	1127	1129	1089	1001	862.6	768.5	680.0	587.5	515.4	460.7	427.2	437.8	360.8	224.0	165.4	149.3	253.0	821.6	2400	9664	9999.9	2607	35.40	12.00	7.406	6.591	4.643	3.696	3.287	2.818	2.536	2.946	2.326	2.721	3.170	3.451	4.091	4.654	4.313	4.516	5.313	5.701	5.172	4.829	4.205	4.330	4.098	4.300	4.221	4.161	4.441	4.659	4.815	4.850	4.853	5.202	5.161	5.266	5.345	5.475	5.671	5.055	5.417	5.101	5.167	4.935
380.0	786.2	1134	1429	1491	1384	1157	967.4	916.5	934.8	963.8	1013	1043	1040	1008	927.0	821.7	738.3	668.9	592.0	528.5	476.5	427.0	412.0	416.7	291.8	194.6	153.3	147.3	252.9	590.3	2579	9999.9	9999.9	2091	27.05	10.09	7.563	5.617	4.458	3.704	3.047	2.647	2.797	2.513	2.755	2.862	3.170	3.897	4.514	4.322	4.289	5.226	5.335	4.973	4.617	4.247	4.278	4.021	4.186	4.221	4.133	4.104	4.385	4.345	4.851	4.603	4.712	4.770	4.800	4.968	4.891	5.274	5.008	4.937	4.674	4.957	4.475
385.0	739.3	1034	1305	1393	1318	1115	948.9	900.5	899.4	928.1	949.5	988.6	976.5	946.3	879.6	782.1	716.1	658.3	593.0	540.1	491.6	439.5	398.1	399.8	369.2	240.6	171.8	139.5	139.7	193.6	627.4	3171	9999.9	9999.9	307.7	18.78	9.781	6.634	4.955	3.988	3.402	2.931	2.870	2.792	2.672	2.762	3.185	3.862	4.083	3.907	3.905	4.759	4.997	4.471	4.651	4.259	3.883	4.047	4.028	4.095	3.790	3.916	4.365	4.189	4.376	4.216	4.622	4.596	4.573	4.870	4.587	4.572	4.737	4.748	4.450	4.494	4.423
390.0	678.7	933.4	1211	1266	1207	1067	927.9	880.8	877.3	890.2	901.5	920.4	906.9	872.8	821.1	744.5	684.4	638.0	592.6	548.3	501.7	455.6	412.4	378.7	373.6	327.2	223.3	165.7	136.7	125.4	200.8	757.0	3183	9999.9	9999.9	4458	25.17	9.733	6.645	5.139	3.833	3.397	3.167	2.778	2.717	2.793	2.974	3.489	3.764	3.591	3.670	4.439	4.711	4.537	4.521	3.940	3.976	3.986	3.842	3.914	3.921	3.989	3.934	3.901	4.144	4.123	4.076	4.175	4.055	4.567	4.474	4.250	4.677	4.499	4.371	4.177	4.349
395.0	611.2	882.0	1077	1170	1165	1008	903.5	867.7	852.0	849.5	862.2	859.0	854.0	816.6	774.5	706.0	653.9	621.9	588.6	543.4	502.1	469.0	428.8	386.2	355.8	353.6	308.8	211.1	162.5	131.2	122.9	226.2	750.5	2353	7655	9999.9	2216	31.54	9.979	6.507	5.033	4.165	3.591	3.085	2.856	3.117	3.163	3.218	3.618	3.426	3.388	4.301	4.149	4.327	4.224	3.974	3.940	3.833	3.921	3.875	3.691	3.785	3.743	3.881	3.996	3.790	3.956	4.021	3.916	4.006	4.183	3.920	4.481	4.114	4.007	4.197	4.283
400.0	576.0	825.0	1008	1106	1109	994.3	898.5	854.7	822.6	826.7	837.1	823.3	812.2	783.9	737.7	679.1	632.3	603.1	578.3	544.7	502.3	474.6	437.9	397.7	357.8	340.0	344.3	269.4	187.7	147.8	118.8	118.5	215.2	560.2	1987	9534	9999.9	1884	25.70	8.687	5.879	4.712	3.957	3.084	3.118	3.311	3.142	3.246	3.386	3.347	3.537	4.054	4.061	3.964	3.982	3.584	4.025	3.879	4.032	3.783	3.691	3.782	3.764	3.751	3.958	3.898	3.826	3.732	3.725	3.789	3.806	4.012	4.118	3.999	3.938	4.237	4.230
405.0	572.1	793.5	958.6	1047	1039	978.9	873.6	833.3	807.7	810.8	808.9	796.8	778.1	752.5	701.3	648.2	622.4	589.6	564.9	536.8	498.5	472.7	441.4	408.3	370.1	338.3	331.6	320.0	226.6	166.4	130.9	104.2	105.3	165.3	475.7	2669	9999.9	9999.9	278.7	18.65	7.274	5.706	4.394	3.781	3.160	3.332	2.942	3.243	3.530	3.257	3.286	3.992	4.025	4.139	3.892	3.699	4.024	4.012	3.863	3.549	3.580	3.843	3.468	3.674	3.839	3.762	3.548	3.609	3.666	3.692	3.703	3.806	4.081	3.913	3.760	3.976	3.768
410.0	537.6	749.1	904.7	983.9	988.0	924.2	867.9	834.0	801.4	789.6	777.2	769.3	743.4	718.0	664.1	619.2	591.2	565.8	543.1	517.8	490.4	467.6	443.3	410.1	381.9	344.5	320.4	315.8	288.9	210.8	152.8	116.2	91.39	86.39	142.3	624.1	2804	8973	9999.9	4088	23.33	8.440	5.510	4.422	3.547	3.418	3.147	3.354	3.518	3.341	3.113	3.819	3.960	3.928	3.883	3.648	3.981	4.112	3.790	3.705	3.527	3.778	3.590	3.543	3.626	3.641	3.419	3.431	3.518	3.744	3.658	3.774	3.728	3.666	3.754	3.745	3.841
415.0	487.5	694.6	850.3	936.0	930.5	879.7	843.1	814.8	779.9	783.9	752.6	738.2	706.0	671.8	629.0	588.2	558.6	533.7	513.3	495.6	471.8	451.9	433.2	409.7	381.2	352.7	321.4	298.0	295.7	270.1	186.0	132.8	100.1	79.03	75.06	171.7	648.6	2064	5503	9999.9	2079	31.13	8.068	5.655	4.383	3.930	3.365	3.363	3.373	3.291	2.944	3.459	3.721	3.586	3.731	3.443	3.865	3.902	3.486	3.744	3.513	3.531	3.728	3.498	3.685	3.433	3.391	3.338	3.511	3.375	3.364	3.418	3.565	3.569	3.435	3.567	3.626
420.0	490.0	671.6	827.3	886.1	894.1	857.9	824.3	801.6	772.2	754.6	736.2	712.2	677.4	642.4	606.8	555.1	535.2	513.0	490.7	476.1	451.0	438.7	423.4	403.2	379.9	351.6	326.3	298.7	280.7	283.3	222.6	150.4	111.1	82.82	67.05	75.05	171.8	481.3	1360	6784	9999.9	1883	25.28	7.922	5.377	4.474	3.660	3.540	3.481	3.170	2.897	3.705	3.920	3.705	3.621	3.431	3.834	3.808	3.646	3.585	3.464	3.787	3.655	3.651	3.631	3.618	2.973	3.287	3.192	3.127	3.261	3.191	3.302	3.295	3.560	3.342	3.448
425.0	460.3	649.3	778.5	859.2	870.8	840.7	811.0	786.6	759.8	740.6	714.0	697.0	658.0	614.9	583.0	531.7	505.9	486.5	474.3	457.0	439.7	427.8	409.8	395.6	376.2	354.6	327.0	300.6	276.4	266.2	252.7	176.4	121.1	92.53	69.74	57.34	69.26	130.3	323.7	1788	8224	9999.9	1494	19.09	6.640	5.090	4.168	3.563	3.387	3.338	2.982	3.622	3.649	3.722	3.535	3.387	3.756	3.483	3.691	3.428	3.712	3.618	3.448	3.482	3.282	3.419	3.023	3.175	3.235	3.030	3.107	3.209	3.263	3.289	3.324	3.194	3.252
430.0	547.8	608.3	747.9	822.1	829.9	811.6	793.9	776.3	746.7	728.8	705.5	671.2	634.0	588.5	552.6	506.6	478.0	464.1	447.3	433.2	417.8	406.9	398.0	385.3	369.6	350.4	327.6	305.3	280.0	256.9	242.8	211.7	150.6	104.6	78.93	62.03	53.18	57.10	94.25	417.0	2114	6635	9999.9	3980	104.3	7.759	5.230	4.362	3.811	3.400	2.998	3.504	3.699	3.664	3.669	3.480	3.844	3.543	3.584	3.505	3.419	3.326	3.367	3.471	3.404	3.251	3.217	3.114	3.018	3.150	3.012	3.081	3.257	3.142	3.092	3.161	3.151
435.0	873.5	610.9	709.0	764.7	812.5	784.2	770.5	772.2	743.6	705.3	699.4	658.0	606.6	567.3	521.3	475.8	453.2	434.1	421.4	408.9	396.6	389.4	382.5	372.3	355.9	341.0	323.5	307.1	286.7	260.3	231.5	212.7	185.9	127.4	90.06	70.96	56.78	46.48	48.10	113.4	487.6	1508	4291	9999.9	6033	31.26	8.330	5.580	4.635	3.754	3.323	3.646	3.892	3.860	3.561	3.527	3.801	3.791	3.777	3.408	3.347	3.475	3.485	3.429	3.417	3.195	3.173	2.955	2.957	2.786	2.912	2.968	3.040	3.064	2.983	2.757	2.900
440.0	1178	726.9	677.4	729.3	764.4	770.8	763.3	750.7	731.7	705.3	678.5	642.9	590.7	542.2	500.6	455.0	433.7	415.0	402.7	391.4	378.3	371.5	365.5	356.4	345.2	333.7	320.9	304.4	285.7	261.6	229.1	202.6	192.3	154.9	103.8	78.91	62.62	47.62	40.94	47.90	126.7	351.9	1027	5408	9999.9	1888	24.99	7.691	5.431	4.333	3.702	3.648	3.828	3.707	3.414	3.470	3.713	3.773	3.834	3.511	3.344	3.391	3.393	3.256	3.399	3.140	2.882	2.894	2.956	2.925	2.794	2.750	2.955	2.884	2.911	2.908	2.763
445.0	1230	1147	684.7	700.1	742.2	730.2	744.1	734.6	717.8	683.3	666.9	632.7	577.6	524.1	480.6	433.7	414.0	393.3	385.3	373.8	356.6	353.7	348.1	344.5	334.7	323.6	312.9	298.5	282.0	258.3	230.3	198.9	179.2	168.7	121.9	86.10	67.78	51.84	42.04	36.41	48.23	94.82	244.2	1355	6700	9999.9	1476	21.34	6.871	4.749	3.812	3.961	3.772	3.577	3.558	3.477	3.644	3.839	3.628	3.489	3.210	3.479	3.232	3.373	3.275	3.043	2.916	2.813	2.922	2.961	2.702	2.702	2.751	2.735	2.380	2.616	2.573
450.0	823.7	2017	990.3	671.4	681.3	694.4	706.0	692.9	691.3	662.7	632.9	603.0	547.6	494.1	448.9	407.7	384.3	366.1	354.8	341.9	332.2	326.9	322.3	321.1	313.6	306.0	296.0	285.8	274.3	254.5	227.3	196.9	170.2	156.1	140.6	102.4	73.47	57.28	46.49	37.01	34.08	39.45	70.05	315.7	1654	5493	9210	4614	101.8	7.938	4.783	4.584	4.165	3.692	3.617	3.494	3.656	3.643	3.524	3.412	3.389	3.379	3.420	3.282	3.093	2.927	2.983	2.761	2.953	2.739	2.796	2.557	2.516	2.685	2.484	2.440	2.505
455.0	441.9	1922	2271	700.0	619.5	655.5	657.7	653.6	661.7	626.3	598.2	565.1	512.7	454.2	411.0	371.6	350.4	333.1	323.6	310.3	303.7	298.5	296.0	293.9	290.1	283.5	275.5	269.7	260.3	242.4	220.8	193.1	164.5	142.5	133.2	119.5	86.28	62.80	50.65	39.99	32.67	29.34	32.93	84.49	380.5	1242	3221	9281	5943	24.87	7.699	5.133	4.544	3.762	3.870	3.367	3.661	3.448	3.342	3.317	3.385	3.230	3.311	3.003	3.043	2.768	2.775	2.876	2.711	2.583	2.522	2.357	2.308	2.604	2.343	2.434	2.434
460.0	349.1	1197	3417	964.8	595.2	610.3	611.8	620.6	626.5	595.3	570.5	531.6	481.1	425.8	379.3	347.6	325.0	315.4	298.0	285.7	282.8	276.3	275.3	273.8	269.2	265.8	258.4	254.2	245.9	233.4	214.0	189.7	161.1	137.3	121.3	119.6	99.38	69.02	53.97	42.90	34.59	28.21	25.68	33.73	97.36	288.1	748.7	3951	9999.9	1464	21.76	7.462	5.240	4.137	3.895	3.558	4.087	3.326	3.185	3.291	3.172	3.061	3.183	2.771	3.098	2.742	2.583	2.764	2.339	2.491	2.422	2.419	2.233	2.339	2.164	2.325	2.349
465.0	299.6	634.0	3367	2299	596.3	566.9	580.5	590.2	583.6	556.1	541.7	505.9	455.6	403.3	358.0	322.9	300.7	292.2	277.5	266.1	261.0	259.3	257.0	256.6	254.5	249.8	243.0	239.5	232.8	223.0	204.0	181.7	156.0	133.4	116.8	108.6	102.2	77.91	56.33	44.78	35.80	29.24	25.54	23.48	35.10	76.41	177.8	952.4	5416	8760	1276	21.90	6.673	4.927	4.388	3.765	3.875	3.556	3.216	3.315	3.201	3.297	3.131	2.800	2.850	2.746	2.675	2.477	2.432	2.541	2.297	2.460	2.189	2.200	1.981	2.248	2.018
470.0	300.7	419.7	1803	4024	1225	520.6	524.9	539.4	532.7	518.1	498.4	462.5	418.4	369.0	329.1	294.8	272.9	260.6	248.0	239.0	232.9	230.0	229.7	227.5	229.4	223.2	221.0	217.6	213.0	204.8	189.8	168.8	146.8	126.8	110.1	97.05	90.88	83.40	63.92	46.89	36.98	30.73	25.37	21.46	21.93	28.85	50.33	222.3	1304	4202	6508	3815	108.7	8.221	5.105	4.211	3.908	3.554	3.279	3.273	3.050	2.998	2.877	2.772	2.632	2.670	2.478	2.365	2.127	2.259	2.191	2.168	2.151	2.120	2.036	2.019	1.864
475.0	309.0	347.2	731.7	3378	3478	585.8	484.1	488.0	480.8	470.5	453.8	417.6	381.4	336.2	294.8	266.3	242.3	230.8	221.7	212.5	208.2	203.3	202.4	200.8	202.5	195.7	198.8	193.8	192.0	185.4	173.9	157.8	137.6	119.0	103.6	91.35	80.19	75.63	70.42	52.83	37.65	31.98	26.31	22.04	19.66	19.26	21.67	58.95	298.6	945.8	2021	6083	4721	28.24	7.096	4.611	3.904	3.539	3.079	3.008	2.697	3.020	2.751	2.513	2.480	2.348	2.313	2.296	1.973	1.957	1.909	1.903	1.801	1.799	1.815	1.625	1.868
480.0	260.9	333.1	445.1	1854	4979	1188	448.0	456.4	450.6	435.3	426.7	385.6	353.4	314.8	277.1	248.9	223.7	211.4	200.9	193.7	192.5	185.0	187.5	183.9	185.2	183.2	183.1	179.1	177.2	171.9	163.1	147.7	129.7	113.6	99.41	88.19	75.52	68.56	68.48	58.01	40.38	33.23	27.28	22.76	19.21	17.42	15.42	22.66	75.01	218.2	465.1	2269	7222	1674	26.79	6.332	4.491	3.754	3.351	2.996	2.791	2.759	2.587	2.307	2.354	2.211	2.101	2.060	2.178	1.836	1.958	1.910	1.629	1.791	1.874	1.516	1.726
485.0	247.3	331.7	358.4	801.4	4741	2839	451.9	432.2	430.1	413.5	400.6	371.4	334.5	296.3	257.8	232.8	212.5	197.0	187.1	182.8	177.7	174.4	172.1	173.1	173.2	170.0	171.6	167.3	167.2	162.6	154.6	138.9	124.2	110.0	95.66	84.38	72.65	63.59	62.37	59.68	46.19	34.36	27.94	23.13	19.86	17.57	14.58	14.50	25.13	55.99	110.6	534.8	3427	6758	1544	21.87	5.950	4.328	3.671	3.165	2.897	2.482	2.768	2.513	2.387	2.181	2.121	1.795	2.002	1.933	1.932	1.748	1.686	1.566	1.693	1.677	1.679
490.0	201.8	318.7	350.7	440.5	2380	4934	1204	403.3	398.5	387.5	374.0	346.7	310.3	272.7	237.4	210.5	192.6	182.3	171.6	165.9	161.6	158.9	157.0	156.2	157.0	155.0	153.3	154.0	152.9	150.4	141.7	130.9	116.5	103.7	90.89	79.81	69.95	61.73	55.28	53.22	50.22	39.36	29.34	24.01	20.43	18.02	14.92	13.92	14.31	19.65	31.20	125.8	808.0	2861	5625	3698	121.7	8.751	4.234	3.468	3.044	2.697	2.629	2.402	2.323	2.117	2.023	1.947	1.838	1.783	1.753	1.685	1.632	1.477	1.550	1.502	1.487
495.0	157.4	274.0	342.2	327.0	808.3	4240	3443	430.2	357.2	352.9	336.9	320.6	284.7	245.4	217.1	192.0	175.8	164.1	153.5	147.9	144.4	142.4	142.3	137.6	138.7	140.9	137.6	137.1	135.5	136.1	129.4	119.0	106.6	97.03	84.60	75.85	65.96	58.08	51.30	47.14	45.22	44.20	33.00	24.46	21.10	18.13	15.05	13.70	12.41	11.87	13.29	34.01	185.8	644.3	1758	5676	5039	187.6	7.363	4.237	3.434	2.934	2.649	2.452	2.226	2.098	1.953	1.932	1.691	1.585	1.380	1.561	1.356	1.362	1.556	1.405	1.413
500.0	154.8	219.8	340.0	299.6	409.3	2220	5490	1011	322.8	324.2	315.3	292.7	260.1	226.3	202.3	178.2	161.4	148.9	140.8	134.1	129.0	128.9	127.4	124.8	125.8	127.6	124.6	125.4	126.7	125.7	119.1	109.3	99.55	89.51	78.61	70.57	62.08	54.87	48.79	43.55	40.71	41.42	36.47	26.20	21.30	18.08	15.63	13.67	12.03	10.37	9.421	13.30	46.96	149.0	403.5	2066	6849	1899	29.57	5.861	3.939	3.082	2.719	2.378	2.260	1.983	1.738	1.819	1.561	1.719	1.279	1.348	1.293	1.302	1.501	1.262	1.303
505.0	135.0	186.1	318.2	305.0	308.2	855.0	5406	2585	329.6	296.1	289.1	269.2	238.2	205.8	182.8	164.0	146.3	137.6	128.4	121.3	117.3	116.4	116.9	117.5	115.4	117.7	115.5	114.5	115.6	114.6	110.6	102.0	91.52	82.96	75.56	65.87	58.61	52.39	46.58	41.38	37.74	36.38	36.56	28.68	21.62	18.23	15.83	13.64	11.87	10.28	8.801	8.811	15.78	38.16	95.50	483.0	2986	6336	1665	23.82	4.725	3.310	2.814	2.390	2.207	1.804	1.892	1.639	1.492	1.558	1.387	1.350	1.178	1.153	1.341	1.213	1.120
510.0	120.9	162.6	249.9	304.8	265.0	386.3	2663	5282	1003	272.5	255.3	240.8	215.1	185.0	162.4	141.8	130.7	121.3	114.1	107.9	103.9	102.0	101.6	102.3	102.3	102.0	102.0	101.0	102.2	101.0	97.96	89.77	81.56	73.56	67.41	60.56	53.40	47.76	43.04	38.06	33.87	31.14	32.00	29.96	23.95	18.50	15.58	13.20	11.57	10.04	8.943	7.909	8.665	13.19	26.09	112.5	697.0	2563	4690	3078	119.1	7.255	3.441	2.682	2.095	1.844	1.834	1.525	1.478	1.379	1.251	1.353	1.166	1.260	1.200	1.066	1.059
515.0	117.0	144.1	192.1	274.3	254.4	254.1	811.4	4739	3574	301.3	225.8	213.9	189.8	165.2	143.9	123.6	113.8	105.9	98.69	94.94	89.95	90.77	89.34	88.51	87.62	88.22	89.52	87.48	88.63	88.36	85.40	77.88	71.14	67.14	59.29	54.37	48.01	43.61	38.60	35.57	30.91	27.80	25.46	27.13	26.09	19.98	15.20	13.00	11.49	9.702	8.398	7.786	6.934	7.436	10.26	29.48	159.7	575.8	1363	4424	3839	181.4	5.646	3.242	2.359	1.921	1.653	1.455	1.352	1.444	1.140	1.178	1.143	1.049	1.043	1.021	0.857
520.0	98.65	140.2	165.6	234.9	270.8	216.0	342.7	2469	5988	805.2	213.9	197.3	174.4	149.4	132.8	113.2	103.2	95.07	89.96	85.41	81.78	80.73	79.31	80.57	78.20	79.79	79.20	79.33	79.15	79.33	75.35	71.96	63.96	59.84	54.84	49.91	43.99	39.96	35.61	31.70	28.67	25.48	23.00	22.70	24.77	22.55	15.81	12.62	11.02	9.594	8.116	7.690	6.953	6.085	6.398	10.70	39.73	132.2	311.8	1592	5065	1873	28.70	4.304	2.731	2.090	1.758	1.390	1.322	1.285	1.125	1.185	1.046	0.994	0.905	1.026	0.864
525.0	75.29	119.6	144.5	187.1	262.0	205.6	216.8	889.0	6255	2095	216.9	177.8	159.3	137.0	118.7	102.5	93.25	85.70	79.70	76.77	73.56	71.77	71.43	71.08	72.13	71.76	70.34	71.08	71.16	70.78	69.34	64.46	58.85	53.97	50.18	45.10	40.65	37.02	32.85	29.59	26.83	23.79	21.80	19.58	21.52	22.72	17.65	12.23	10.70	9.475	8.126	7.370	6.778	6.011	5.407	6.114	12.52	32.95	73.64	370.5	2169	4861	1552	22.51	3.775	2.428	1.803	1.614	1.443	1.219	1.134	1.516	0.953	1.015	0.890	0.919	0.824
530.0	75.78	111.4	125.0	142.1	223.0	216.1	175.0	336.3	3155	5686	754.2	159.3	140.0	121.8	103.6	90.42	82.76	76.18	71.22	68.38	65.43	62.75	62.58	61.85	61.83	61.40	62.41	62.30	61.99	61.83	59.57	56.26	51.83	47.89	43.23	40.14	36.03	32.96	29.80	26.36	23.94	21.57	19.76	17.79	17.50	18.69	17.97	13.47	10.61	8.841	7.451	6.778	5.985	5.637	5.365	4.941	6.276	10.65	19.64	86.20	506.7	1957	3525	1931	114.6	5.386	2.306	1.794	1.284	1.218	1.108	1.119	0.961	0.907	0.882	0.793	0.809
535.0	66.86	90.28	114.3	119.9	156.0	225.4	158.5	187.5	883.6	5464	3540	180.3	124.8	106.0	89.39	78.67	72.07	66.98	61.49	59.29	55.15	53.63	53.43	53.22	53.06	52.00	52.78	52.97	52.56	53.90	52.81	48.97	45.47	41.68	37.77	34.61	31.37	28.71	25.37	23.33	21.56	19.29	17.52	15.97	14.52	14.40	16.25	14.73	10.79	8.004	6.882	6.019	5.648	5.054	5.371	4.880	4.745	5.351	7.229	21.91	115.7	439.4	1022	3256	1954	32.40	3.927	2.028	1.522	1.324	1.117	1.011	0.884	0.859	0.761	0.757	0.648
540.0	63.48	85.22	98.61	107.9	124.9	204.3	172.3	137.2	302.1	2779	6418	518.0	111.5	96.46	79.48	69.70	63.41	59.87	53.45	52.08	49.25	47.69	47.03	47.09	46.16	46.08	46.94	45.91	46.06	47.26	45.77	42.93	40.88	36.52	33.64	30.29	27.46	25.78	23.13	21.85	19.46	17.10	15.78	14.64	13.25	12.44	12.69	14.60	11.62	7.992	6.743	5.598	5.034	4.669	4.720	4.638	4.015	4.080	4.453	7.381	28.30	100.6	233.1	1184	3524	1696	27.14	2.930	2.012	1.359	1.104	1.008	0.779	0.719	0.828	0.753	0.572
545.0	60.78	75.17	96.72	93.67	103.1	158.8	181.4	121.8	158.8	929.6	6886	1564	106.2	86.22	74.44	61.54	56.76	52.29	47.93	44.62	43.89	41.09	41.25	42.12	41.22	40.75	40.31	40.93	41.37	40.76	40.52	37.15	35.36	32.19	29.57	26.95	24.40	23.03	20.64	18.86	17.47	15.91	14.67	13.14	11.94	10.85	10.57	12.04	11.31	8.885	6.466	5.291	4.799	4.443	3.976	4.149	4.101	3.815	3.545	4.297	8.406	24.87	54.70	274.9	1543	3483	1293	19.56	2.385	1.647	1.162	0.989	0.849	0.777	0.708	0.687	0.581
550.0	59.80	79.64	88.89	82.38	90.00	107.1	172.6	123.5	112.2	293.1	3292	5511	476.1	74.60	65.63	53.85	47.80	44.50	40.97	37.73	36.68	35.64	35.15	34.91	34.58	33.39	33.35	34.15	34.30	34.28	32.81	31.32	29.29	27.14	24.79	23.09	21.03	19.30	17.81	16.33	14.41	13.73	12.36	11.36	10.43	9.903	8.930	8.775	9.874	9.169	6.682	5.164	4.335	3.973	3.624	3.706	3.693	3.797	3.060	3.124	3.850	7.462	14.33	63.56	359.6	1354	2557	1109	107.3	3.557	1.583	1.090	0.847	0.809	0.755	0.616	0.624
555.0	68.37	79.73	79.22	72.66	73.31	78.14	131.4	144.1	93.50	134.9	857.0	5586	2725	86.16	52.86	45.42	40.44	36.52	34.32	30.97	29.74	29.76	29.38	28.63	28.15	27.56	27.53	28.98	27.87	27.73	27.14	26.07	23.92	21.76	20.38	18.51	17.36	16.19	14.50	13.51	12.31	11.35	10.53	9.325	8.559	8.581	7.394	7.161	7.221	7.724	7.174	5.061	3.922	3.441	3.314	3.150	3.030	3.131	3.035	2.809	2.638	3.360	4.828	15.77	81.98	303.7	731.4	2022	1756	31.88	2.749	1.227	0.936	0.899	0.653	0.684	0.569
560.0	63.69	77.70	78.75	67.81	62.98	64.81	92.15	151.2	94.80	94.53	258.4	2780	5561	161.6	46.54	38.97	34.61	31.91	29.70	26.16	24.96	24.90	24.64	23.98	23.46	23.72	23.81	23.43	23.78	23.05	23.16	22.73	20.27	18.73	17.31	16.11	15.28	14.19	12.61	11.81	11.02	9.942	9.103	8.486	7.576	7.471	6.364	6.086	5.553	6.362	6.922	5.498	3.709	3.119	3.052	2.845	2.609	2.664	2.700	2.783	2.209	2.389	2.536	5.069	19.79	69.34	166.7	718.3	2318	1307	26.17	1.880	1.111	0.818	0.788	0.594	0.608
565.0	62.62	82.25	76.33	63.20	55.99	57.20	69.10	142.6	103.0	80.50	119.8	874.8	6304	1036	44.38	34.76	30.58	27.85	25.31	22.33	21.38	21.37	20.55	20.30	20.25	20.11	19.50	20.30	20.32	19.60	18.94	19.73	16.90	16.47	14.49	14.08	12.72	11.85	11.25	9.969	9.622	8.518	7.963	7.418	6.847	6.511	5.801	5.343	4.612	4.980	5.651	5.263	3.924	3.008	2.657	2.775	2.396	2.539	2.332	2.723	2.224	2.074	1.782	2.512	5.735	16.93	38.93	166.2	953.2	2164	883.2	17.68	1.619	1.035	0.803	0.548	0.567
570.0	66.99	84.24	82.88	56.75	50.55	47.79	56.69	98.05	128.8	78.46	85.40	255.7	3059	4392	290.4	30.58	25.72	23.17	20.70	18.72	17.93	17.40	16.44	16.63	16.96	15.97	16.01	16.47	16.47	16.43	15.92	15.24	14.07	13.23	11.95	11.30	10.74	9.373	8.850	8.530	7.760	6.936	6.770	6.053	5.738	5.473	4.911	4.481	3.992	3.649	4.006	4.268	4.041	2.982	2.451	2.277	2.162	2.157	2.032	2.101	2.119	1.975	1.623	1.794	2.558	5.017	10.11	38.59	220.2	799.7	1521	872.8	98.05	2.403	0.890	0.662	0.558
575.0	74.80	85.09	80.50	56.75	45.76	43.03	47.16	62.13	128.8	94.31	75.15	110.5	779.7	4602	2030	36.38	21.63	19.08	17.01	15.16	15.24	14.08	14.30	13.69	13.41	12.94	13.01	13.19	13.49	12.70	13.22	12.17	11.05	10.44	9.598	9.334	8.376	7.771	7.014	7.034	6.343	5.737	5.458	5.139	4.921	4.693	4.249	3.733	3.488	3.080	2.807	3.256	3.517	3.312	2.516	1.892	1.885	1.962	1.724	1.769	1.746	2.157	1.760	1.455	1.526	2.321	3.337	9.684	50.29	179.5	414.8	1220	1149	30.99	1.814	0.758	0.646
580.0	80.68	88.68	77.06	56.01	45.09	41.33	41.53	52.27	103.1	118.1	72.76	78.52	220.8	2322	4350	97.55	21.00	16.67	15.30	13.71	12.79	12.56	12.68	11.51	11.04	11.15	11.06	11.18	10.96	10.31	11.03	9.943	9.615	9.032	8.153	7.954	7.028	6.602	6.216	6.101	5.462	4.748	4.574	4.371	4.409	4.204	3.578	3.334	2.916	2.754	2.447	2.370	2.964	3.358	2.583	1.824	1.779	1.820	1.492	1.590	1.483	1.722	1.891	1.356	1.345	1.619	1.759	3.219	12.38	41.20	94.37	412.2	1342	837.4	24.64	1.258	0.818
585.0	73.50	86.66	71.16	53.33	44.81	39.53	42.58	44.24	74.98	127.4	78.91	71.20	93.12	715.9	5009	683.6	20.44	15.43	13.33	12.11	11.59	10.36	10.88	10.06	10.01	10.09	9.748	9.286	9.689	9.179	9.228	8.576	8.387	7.594	6.835	6.918	5.941	5.981	5.506	5.068	4.599	4.297	3.933	3.815	3.740	3.662	3.122	2.941	2.649	2.383	2.147	1.919	2.359	2.818	2.577	2.021	1.628	1.664	1.382	1.338	1.326	1.320	1.848	1.548	1.291	1.517	1.348	1.681	3.857	10.25	22.21	95.07	513.4	1282	267.8	16.16	1.094
590.0	63.57	82.57	68.04	54.91	39.71	34.70	38.46	42.25	55.39	111.7	99.16	68.98	64.85	196.6	2443	3020	68.40	13.93	11.59	10.50	9.795	9.011	8.886	8.497	8.430	7.882	8.243	7.893	7.858	7.557	7.730	7.206	6.862	6.289	5.759	5.738	4.993	4.697	4.456	4.074	3.870	3.542	3.215	3.244	3.125	3.016	2.697	2.549	2.392	2.206	1.877	1.752	1.726	1.973	2.443	2.218	1.670	1.544	1.268	1.172	1.223	1.224	1.454	1.560	1.390	1.304	1.160	1.201	1.745	3.158	5.887	22.16	117.9	450.5	791.9	579.4	91.11
595.0	63.98	78.20	73.52	51.59	38.21	34.98	36.78	42.63	51.18	82.66	121.7	77.44	64.25	78.69	612.8	3310	721.3	16.71	10.97	8.953	8.212	7.370	7.543	7.182	6.731	6.147	6.585	6.277	6.482	6.360	6.329	5.556	5.612	4.904	4.669	4.915	4.093	3.835	3.633	3.465	3.116	2.978	2.931	2.602	2.541	2.406	2.306	2.133	2.009	1.764	1.594	1.612	1.424	1.516	1.899	2.012	1.812	1.317	1.291	1.158	1.106	0.996	1.123	1.263	1.446	1.231	1.207	1.019	1.247	1.563	2.110	5.742	26.94	101.2	208.1	672.7	776.9
600.0	72.79	81.29	71.73	52.74	41.17	30.88	39.55	44.35	51.03	70.86	125.5	93.71	66.95	56.67	168.0	1759	2642	59.71	10.31	7.520	7.200	6.581	6.420	6.378	6.077	5.280	5.396	5.412	5.284	5.487	4.999	5.032	4.897	4.314	4.083	3.942	3.673	3.233	3.018	2.847	2.688	2.611	2.499	2.241	2.142	2.031	2.109	1.889	1.772	1.585	1.483	1.475	1.101	1.244	1.528	1.692	1.811	1.429	1.381	1.104	0.961	0.888	0.951	1.142	1.201	1.423	1.272	1.086	1.117	1.164	1.272	1.955	6.730	23.21	47.28	210.4	796.5
605.0	63.42	76.09	74.00	55.46	39.40	37.24	43.76	48.41	61.90	83.50	131.5	134.7	88.58	66.85	77.75	561.2	3347	447.9	10.13	7.547	6.210	6.121	5.591	5.410	4.939	4.776	4.742	4.972	4.721	4.502	4.081	4.563	3.940	3.997	3.608	3.312	3.207	2.777	2.610	2.547	2.277	2.205	2.038	1.985	2.036	1.633	1.734	1.733	1.608	1.389	1.179	1.181	1.065	1.092	1.157	1.427	1.682	1.458	1.245	1.021	0.939	0.981	0.927	1.082	1.191	1.320	1.344	1.148	1.173	1.097	1.074	1.101	2.196	5.859	11.24	48.28	280.8
610.0	63.62	84.04	87.87	62.63	45.61	44.59	56.15	68.85	90.05	115.3	149.9	187.2	139.7	101.1	86.63	177.9	1804	2092	46.51	7.345	6.120	5.628	4.771	4.490	4.379	4.297	3.906	4.178	4.124	4.111	3.530	3.731	3.615	3.131	3.106	2.857	2.663	2.426	2.212	2.089	1.874	1.744	1.857	1.678	1.651	1.595	1.426	1.362	1.401	1.194	1.133	1.039	0.965	0.939	0.990	1.094	1.297	1.517	1.236	1.112	0.975	0.926	1.090	1.236	1.273	1.393	1.378	1.425	1.268	1.160	1.235	1.109	1.299	2.182	3.274	11.57	64.11
615.0	72.33	77.57	91.34	65.74	46.08	47.99	59.72	77.97	98.64	124.3	151.4	193.0	174.2	115.7	93.79	92.12	490.0	2506	556.8	8.925	6.020	5.138	3.949	3.828	4.005	3.826	3.327	3.425	3.515	3.261	3.034	2.994	2.832	2.666	2.713	2.230	2.463	2.087	1.920	1.780	1.571	1.599	1.528	1.543	1.382	1.232	1.238	1.218	1.160	1.089	0.909	0.924	0.919	0.760	0.856	0.848	1.095	1.334	1.243	1.186	0.949	0.945	1.027	1.213	1.271	1.292	1.291	1.439	1.344	1.281	1.359	1.078	1.045	1.338	1.492	3.324	14.88
620.0	70.03	79.70	93.48	67.21	43.50	51.32	61.40	75.42	94.52	118.8	142.5	172.7	178.6	118.4	93.81	69.08	155.1	1457	1878	35.21	6.032	4.364	3.880	3.705	3.521	3.241	3.029	3.098	2.931	3.078	2.726	2.588	2.606	2.277	2.191	2.092	2.187	1.757	1.629	1.619	1.496	1.487	1.289	1.292	1.227	1.095	1.311	1.036	1.052	0.937	0.817	0.922	0.739	0.812	0.746	0.819	0.846	0.947	1.179	1.175	0.979	1.055	1.026	1.154	1.250	1.201	1.215	1.123	1.179	1.571	1.366	1.041	0.935	1.019	0.898	1.319	3.857
625.0	67.61	83.42	88.36	61.04	46.46	49.86	60.13	74.26	91.40	116.1	137.0	159.5	177.8	124.6	93.62	65.70	79.55	494.8	2515	280.8	6.008	4.444	3.629	3.472	2.890	2.855	2.802	2.528	2.384	2.864	2.493	2.260	2.218	2.221	2.097	1.759	1.906	1.643	1.558	1.336	1.320	1.300	1.179	1.046	1.006	1.036	1.144	0.933	0.947	0.915	0.729	0.920	0.776	0.821	0.660	0.760	0.752	0.837	0.970	1.098	1.069	0.967	0.921	1.090	1.089	1.089	1.059	1.178	1.271	1.450	1.322	0.993	0.950	0.926	0.720	0.849	1.304
630.0	60.40	83.89	91.90	64.00	49.54	50.09	59.94	73.05	87.19	111.1	134.2	151.9	161.4	138.5	94.70	66.07	61.47	141.1	1445	1445	30.11	4.511	3.640	3.218	2.929	2.532	2.441	2.164	2.192	2.299	2.039	1.822	1.895	1.841	1.781	1.554	1.638	1.370	1.367	1.248	1.173	1.071	1.002	0.950	0.892	0.896	0.978	0.878	0.894	0.820	0.684	0.701	0.657	0.634	0.631	0.679	0.701	0.816	0.804	0.955	1.043	0.954	0.900	0.880	0.987	1.058	1.020	1.118	1.055	1.329	1.205	1.019	0.890	0.922	0.798	0.716	0.830
635.0	62.40	84.53	94.05	67.76	53.41	51.65	60.25	70.84	85.02	112.0	127.3	145.9	151.3	145.7	102.1	66.06	56.21	58.05	372.9	1940	410.0	5.376	3.451	2.905	2.601	2.181	2.234	1.858	2.052	1.698	1.722	1.644	1.768	1.433	1.494	1.353	1.406	1.336	1.263	1.015	0.988	0.896	0.803	0.740	0.827	0.939	0.837	0.911	0.708	0.705	0.585	0.674	0.533	0.640	0.618	0.628	0.547	0.687	0.737	0.755	0.856	0.885	0.894	0.908	1.005	0.910	0.995	0.944	0.853	1.080	1.061	1.075	0.863	0.774	0.670	0.638	0.558
640.0	62.23	84.57	89.86	67.75	52.18	51.18	57.53	69.15	83.83	105.3	127.7	142.5	145.8	137.4	108.9	65.76	55.76	38.71	94.43	1223	1299	17.16	3.551	2.882	2.169	2.181	1.952	1.838	1.779	1.678	1.648	1.886	1.386	1.319	1.423	1.212	1.351	1.079	0.992	1.008	0.985	0.897	0.755	0.797	0.777	0.822	0.807	0.754	0.683	0.626	0.589	0.697	0.560	0.525	0.562	0.514	0.494	0.557	0.634	0.654	0.777	0.923	0.890	0.844	0.991	0.823	0.954	0.848	0.930	0.959	0.981	0.982	0.795	0.695	0.682	0.555	0.661
645.0	76.75	92.03	95.01	66.96	51.82	48.32	54.95	69.40	83.15	98.03	124.4	138.4	135.1	125.6	111.0	65.65	53.55	33.26	31.05	442.1	1892	64.71	3.605	2.932	2.206	2.119	2.057	1.547	1.863	1.520	1.530	1.560	1.416	1.239	1.221	1.204	1.135	0.949	0.919	0.907	0.772	0.839	0.699	0.704	0.706	0.728	0.718	0.790	0.692	0.603	0.562	0.567	0.526	0.552	0.540	0.528	0.469	0.493	0.577	0.615	0.659	0.780	0.793	0.843	0.884	0.802	0.813	0.791	0.977	0.902	0.995	0.937	0.906	0.811	0.711	0.511	0.574
650.0	71.09	87.22	102.1	67.61	49.84	44.74	52.26	65.99	71.94	92.00	114.4	128.6	127.3	115.2	111.1	67.06	50.13	30.93	16.02	115.4	1598	489.2	5.648	3.015	2.354	1.887	1.673	1.508	1.731	1.411	1.423	1.329	1.125	1.155	1.106	1.094	1.098	1.060	0.879	0.730	0.696	0.678	0.701	0.582	0.629	0.725	0.761	0.860	0.665	0.637	0.526	0.498	0.502	0.442	0.489	0.462	0.468	0.518	0.605	0.566	0.595	0.742	0.690	0.768	0.773	0.783	0.809	0.846	0.860	0.882	0.827	0.808	0.686	0.802	0.660	0.549	0.438
