Sample:	'1
File name:	G2025051305»ª·ú»¯¹¤»º³å³Ø2.FD3
Run date:	'13:09:27, 05/20/2025
Operator:	Administrator
Comment:	'

Instrument
Model:	F-2700 FL Spectrophotometer
Serial number:	23B8-004
ROM Version:	4J14000 07

Instrument parameters
Measurement type:	3-D scan
Data mode:	Fluorescence
EX  Start WL:	220.0 nm
EX  End WL:	600.0 nm
EX Sampling interval:	5.0 nm
EM  Start WL:	230.0 nm
EM  End WL:	650.0 nm
EM Sampling interval:	5.0 nm
Scan speed:	12000 nm/min
EX Slit:	5.0 nm
EM Slit:	5.0 nm
PMT Voltage:	700 V
Response:	Auto 
Corrected spectra:	Off
Contour interval:	50.000

Peak integration
Integration method:	Rectangular
Sensitivity:	1
Threshold:	1.000

Peaks
No.	ApexEX/EM(nm)	Height(Data)
1	235.0/305.0	557.2
2	235.0/595.0	50.14
3	260.0/395.0	1712
4	260.0/575.0	154.6
5	265.0/385.0	1687
6	265.0/585.0	171.2
7	270.0/300.0	2063
8	270.0/600.0	178.7
9	275.0/305.0	2217
10	275.0/610.0	160.0
11	280.0/625.0	117.0
12	545.0/300.0	10.57
13	550.0/305.0	11.14
14	560.0/310.0	10.03

Data points
	220.0	225.0	230.0	235.0	240.0	245.0	250.0	255.0	260.0	265.0	270.0	275.0	280.0	285.0	290.0	295.0	300.0	305.0	310.0	315.0	320.0	325.0	330.0	335.0	340.0	345.0	350.0	355.0	360.0	365.0	370.0	375.0	380.0	385.0	390.0	395.0	400.0	405.0	410.0	415.0	420.0	425.0	430.0	435.0	440.0	445.0	450.0	455.0	460.0	465.0	470.0	475.0	480.0	485.0	490.0	495.0	500.0	505.0	510.0	515.0	520.0	525.0	530.0	535.0	540.0	545.0	550.0	555.0	560.0	565.0	570.0	575.0	580.0	585.0	590.0	595.0	600.0
230.0	23.00	176.2	740.4	358.4	33.35	17.66	17.97	17.51	17.61	16.89	15.97	14.40	12.89	10.59	8.593	7.577	6.076	5.628	5.098	4.791	4.060	3.734	3.251	2.928	2.840	2.523	2.341	2.098	1.912	1.836	1.781	1.509	1.310	1.262	1.156	1.091	1.053	0.959	0.902	0.779	0.717	0.676	0.620	0.639	0.561	0.519	0.620	1.057	1.886	2.123	1.159	0.585	0.424	0.423	0.401	0.421	0.404	0.409	0.386	0.421	0.396	0.390	0.368	0.414	0.387	0.372	0.347	0.353	0.318	0.353	0.335	0.357	0.347	0.305	0.310	0.308	0.338
235.0	27.63	67.44	715.4	2804	594.6	116.8	24.79	20.39	19.65	20.45	17.45	15.51	14.11	11.38	9.372	7.443	6.443	5.446	5.089	4.924	4.011	3.518	3.407	2.965	2.797	2.489	2.542	2.355	1.931	1.967	1.896	1.522	1.469	1.332	1.180	1.181	0.968	0.881	0.910	0.804	0.825	0.745	0.692	0.592	0.586	0.531	0.614	0.637	1.089	2.219	5.889	9.522	6.045	1.621	0.374	0.420	0.346	0.392	0.380	0.432	0.383	0.425	0.391	0.391	0.499	0.415	0.365	0.321	0.285	0.394	0.354	0.324	0.353	0.310	0.338	0.355	0.280
240.0	38.28	40.76	266.1	3583	5033	549.3	109.4	24.69	24.17	22.44	20.06	18.75	15.50	12.71	9.841	8.601	6.800	5.665	5.286	5.760	4.420	4.028	3.654	3.157	2.936	2.670	2.709	2.419	2.089	2.010	1.873	1.661	1.322	1.390	1.122	1.157	1.131	0.990	0.893	0.919	0.848	0.779	0.647	0.658	0.613	0.627	0.599	0.502	0.687	0.970	3.718	14.35	25.95	20.10	9.232	1.584	0.470	0.419	0.596	0.468	0.409	0.399	0.404	0.397	0.516	0.429	0.379	0.420	0.340	0.334	0.377	0.383	0.346	0.333	0.300	0.373	0.323
245.0	52.06	49.93	88.79	1472	9999.9	9999.9	459.4	65.39	32.14	25.86	23.98	20.40	17.43	14.18	10.89	9.395	7.305	6.075	5.460	5.509	4.364	4.030	3.524	3.338	3.123	2.750	2.704	2.627	2.229	1.892	1.691	1.709	1.395	1.324	1.185	1.113	1.109	1.033	0.890	0.938	0.933	0.783	0.675	0.686	0.734	0.623	0.608	0.556	0.606	0.595	1.255	5.298	20.91	49.86	58.64	22.18	9.528	0.991	0.597	0.485	0.537	0.503	0.454	0.502	0.522	0.455	0.470	0.453	0.414	0.402	0.428	0.348	0.314	0.340	0.304	0.383	0.318
250.0	75.16	69.70	78.62	386.5	3883	9999.9	9999.9	8142	160.2	41.46	33.49	26.80	21.17	16.91	13.04	10.91	7.944	7.079	6.375	5.749	4.816	4.184	3.990	3.646	3.332	3.114	2.930	2.630	2.401	2.143	1.865	1.649	1.531	1.328	1.432	1.213	1.204	1.038	1.049	0.887	1.008	0.869	0.910	0.770	0.816	0.724	0.681	0.648	0.637	0.592	0.744	1.719	5.467	16.88	39.68	72.50	109.4	93.03	18.23	9.535	1.540	0.651	0.617	0.637	0.534	0.589	0.491	0.519	0.482	0.437	0.478	0.423	0.431	0.405	0.354	0.435	0.351
255.0	111.2	76.01	78.20	185.6	944.0	2971	9999.9	9999.9	9999.9	193.5	53.80	39.60	29.39	22.03	16.16	13.39	9.219	8.185	7.363	6.610	5.430	5.029	4.298	3.957	3.544	3.486	3.066	2.834	2.683	2.545	2.216	2.192	1.512	1.543	1.446	1.228	1.131	1.236	1.149	1.003	1.117	1.051	0.992	0.854	0.891	0.801	0.773	0.762	0.698	0.687	0.790	1.111	1.770	4.382	9.518	17.79	42.95	112.1	201.7	196.1	29.09	13.63	1.302	0.935	0.725	0.665	0.633	0.642	0.515	0.628	0.551	0.481	0.502	0.432	0.551	0.468	0.509
260.0	122.1	90.96	74.95	138.6	347.4	776.5	4768	9999.9	9999.9	2078	148.1	52.87	39.01	27.27	19.14	15.08	10.60	9.451	7.927	7.521	5.582	5.449	4.907	3.895	3.979	3.803	3.297	2.816	2.783	2.610	2.452	2.230	1.841	1.609	1.409	1.371	1.196	1.204	1.132	1.015	1.088	1.038	1.037	0.822	1.058	0.922	0.856	0.801	0.662	0.718	0.757	1.046	1.161	1.747	2.812	4.777	10.54	31.06	96.42	210.8	244.7	186.8	25.09	8.144	1.070	0.868	0.810	0.734	0.766	0.664	0.656	0.534	0.640	0.493	0.579	0.548	0.476
265.0	146.3	101.9	81.70	105.1	254.6	349.6	1226	8928	9999.9	9999.9	1670	98.15	49.63	34.84	23.98	18.15	13.36	10.98	8.418	8.501	6.711	5.452	5.324	4.331	4.337	4.111	3.667	3.219	2.925	2.812	2.484	2.340	2.161	1.771	1.534	1.493	1.374	1.197	1.167	1.095	1.170	1.096	1.187	1.048	1.194	0.953	0.809	0.859	0.827	0.658	0.729	0.975	1.160	1.603	1.717	1.948	3.279	7.997	23.25	63.93	159.4	296.7	248.8	165.6	20.04	3.140	1.130	0.950	0.932	0.842	0.789	0.649	0.727	0.562	0.667	0.639	0.605
270.0	146.5	115.6	87.30	96.90	188.9	359.2	535.3	2246	9999.9	9999.9	9999.9	6573	121.8	55.92	35.09	25.59	18.13	13.66	10.95	9.887	8.119	6.659	6.181	5.118	4.829	4.380	4.077	3.481	3.323	3.051	2.897	2.639	2.402	2.047	1.788	1.711	1.614	1.463	1.312	1.255	1.187	1.279	1.368	1.311	1.165	1.075	0.937	1.014	0.945	0.794	0.764	0.929	1.039	1.347	1.867	2.234	2.567	3.102	6.266	15.51	38.33	89.96	157.6	259.8	265.6	217.6	112.8	13.52	3.963	1.190	0.992	0.846	0.883	0.753	0.765	0.779	0.758
275.0	175.2	135.7	98.90	103.9	150.9	275.9	518.3	788.6	2404	4737	9999.9	9999.9	9069	132.0	55.93	37.82	24.29	17.45	14.25	12.09	9.336	8.175	6.890	6.038	5.310	4.872	4.352	3.941	3.528	3.662	3.190	2.942	2.558	2.334	2.051	2.075	1.989	1.616	1.380	1.283	1.370	1.394	1.216	1.280	1.245	1.294	1.113	1.168	1.008	0.885	0.842	1.055	0.994	1.298	1.408	1.700	2.704	3.405	3.405	4.601	9.770	21.35	36.43	61.23	93.35	218.9	403.7	258.0	179.9	19.75	2.428	1.338	1.156	1.023	0.896	0.836	0.977
280.0	204.2	154.0	113.9	126.0	154.6	233.0	413.7	656.6	778.7	1315	8444	9999.9	9999.9	1159	99.68	51.55	31.69	22.07	16.47	14.51	11.64	9.361	7.827	6.734	5.992	5.268	4.601	4.139	3.849	3.596	3.449	3.203	2.871	2.508	2.310	2.217	1.901	1.782	1.538	1.433	1.444	1.443	1.387	1.283	1.275	1.294	1.236	1.191	1.082	0.997	0.950	1.168	1.130	1.446	1.309	1.608	1.916	2.912	3.612	3.595	3.935	6.225	9.723	15.32	22.75	57.88	163.9	318.8	474.9	251.4	30.92	13.73	1.703	1.400	1.109	1.140	1.079
285.0	206.1	179.1	158.1	166.5	177.2	222.6	309.4	618.1	690.6	651.5	2397	9999.9	9999.9	9999.9	868.9	77.15	42.89	27.58	20.99	17.32	12.92	10.68	8.965	7.140	6.529	5.934	5.430	4.486	4.164	3.912	4.062	3.588	3.079	2.882	2.634	2.323	2.027	2.032	1.678	1.542	1.497	1.563	1.502	1.328	1.251	1.409	1.208	1.258	1.229	1.094	1.060	1.215	1.369	1.327	1.330	1.593	1.627	2.165	2.577	3.679	4.363	4.021	4.054	5.545	7.277	15.39	39.71	91.07	232.2	410.6	471.6	226.1	25.43	6.928	1.449	1.336	1.297
290.0	231.2	244.7	279.7	297.5	262.3	260.7	310.3	490.3	857.4	1031	1343	3182	9999.9	9999.9	9999.9	3540	78.08	43.42	30.02	22.79	15.78	12.93	10.67	8.851	7.656	6.851	6.077	5.140	4.575	4.448	4.231	3.700	3.274	3.022	2.587	2.415	2.152	1.999	1.741	1.580	1.551	1.467	1.595	1.390	1.355	1.505	1.419	1.559	1.499	1.476	1.460	1.651	1.676	1.617	1.599	1.648	1.815	2.089	2.301	2.664	3.866	4.780	5.469	5.807	5.644	7.434	12.85	24.11	56.65	115.5	212.7	308.6	371.5	333.4	138.5	17.34	6.318
295.0	260.5	307.3	391.4	445.4	359.8	314.5	358.9	504.9	817.9	1399	1692	1857	3163	5094	9999.9	9999.9	4940	79.39	43.25	30.70	21.12	16.09	13.16	10.32	8.738	8.050	7.011	5.874	5.264	5.058	4.498	3.977	3.721	3.022	2.884	2.499	2.336	2.051	2.028	1.812	1.578	1.730	1.622	1.359	1.553	1.560	1.437	1.656	1.886	1.784	1.798	2.068	2.072	1.863	1.686	1.936	2.065	2.176	2.735	3.024	3.582	4.236	5.445	7.415	8.517	8.172	8.813	10.92	17.63	30.31	51.58	72.65	105.2	215.1	406.2	490.9	232.2
300.0	272.8	317.5	443.2	504.9	417.0	339.5	395.6	558.3	853.2	1361	2063	1857	1775	1765	7215	9999.9	9999.9	653.7	67.13	41.32	27.09	19.68	16.29	12.12	10.25	8.751	7.637	6.642	5.530	5.284	4.831	4.254	3.772	2.975	2.948	2.765	2.423	2.295	1.955	1.785	1.787	1.766	1.619	1.544	1.627	1.607	1.528	1.694	1.888	1.971	1.959	2.286	2.168	2.097	1.949	2.195	2.183	2.460	2.847	3.275	3.828	4.526	5.167	6.561	8.419	10.57	9.990	8.940	9.734	12.07	16.28	19.58	26.05	52.99	135.5	326.0	508.0
305.0	277.6	338.2	484.5	557.2	451.5	374.4	439.4	596.4	906.4	1337	2012	2217	1615	1055	1979	9999.9	9999.9	9999.9	493.4	56.57	34.66	23.92	18.47	13.82	11.13	9.872	8.025	7.332	6.083	5.682	5.190	4.200	4.386	3.363	3.287	2.893	2.409	2.347	2.295	1.950	1.811	1.760	1.598	1.603	1.628	1.774	1.584	1.805	1.905	2.050	2.132	2.435	2.286	2.236	1.993	2.216	2.510	2.614	3.102	3.484	4.159	4.679	5.521	6.972	8.032	9.380	11.14	10.72	9.014	8.453	8.652	8.217	8.463	13.96	32.42	82.89	203.3
310.0	268.9	327.7	471.0	537.8	454.6	385.0	453.0	626.1	925.4	1312	1773	2105	1865	1011	780.7	2560	9999.9	9999.9	9999.9	2236	57.63	34.71	24.23	17.18	13.43	11.41	9.084	7.635	7.183	6.219	5.605	4.661	4.179	3.611	3.208	3.000	2.554	2.524	2.296	2.160	1.950	1.887	1.667	1.656	1.646	1.697	1.598	1.825	1.932	1.949	2.176	2.495	2.394	2.185	2.115	2.228	2.636	2.725	3.049	3.640	4.137	4.858	5.639	6.669	7.483	8.108	9.208	9.799	10.03	9.523	8.015	6.184	4.724	5.445	9.352	20.27	47.52
315.0	247.6	293.8	418.2	490.9	421.2	381.2	461.4	636.2	900.6	1246	1608	1783	1756	1273	608.2	821.3	2415	3767	9999.9	9999.9	3425	59.61	34.71	23.43	16.86	13.62	10.99	9.070	7.797	6.781	6.113	5.016	4.394	3.827	3.296	3.160	2.752	2.731	2.264	2.169	2.078	1.751	1.723	1.572	1.574	1.730	1.539	1.714	1.846	1.885	2.139	2.447	2.287	2.150	2.135	2.337	2.612	2.952	3.113	3.570	4.146	4.782	5.344	6.435	6.805	7.654	8.339	8.424	7.896	8.534	8.721	7.566	5.256	4.034	4.283	6.571	12.53
320.0	236.9	276.4	390.5	449.8	397.2	388.4	470.0	649.4	906.9	1204	1534	1657	1545	1350	779.9	488.6	745.3	1006	5515	9999.9	9999.9	479.2	51.03	30.53	20.93	16.18	12.54	10.08	8.878	7.476	6.339	5.475	4.589	4.184	3.438	3.220	2.958	2.838	2.276	2.246	2.178	1.843	1.833	1.656	1.577	1.665	1.526	1.817	1.824	1.748	2.029	2.239	2.075	2.070	2.123	2.405	2.649	3.116	3.449	3.598	4.282	4.477	5.109	6.001	6.643	7.255	7.647	7.543	7.354	7.448	7.277	7.324	6.855	4.865	3.712	3.735	4.889
325.0	228.6	268.3	354.4	418.5	395.7	397.7	494.1	669.1	895.5	1203	1486	1593	1463	1214	993.0	541.8	413.3	394.6	1402	9183	9999.9	9999.9	365.5	40.89	25.95	19.95	14.36	11.22	9.483	7.973	7.144	6.248	5.126	4.341	3.611	3.112	3.157	2.639	2.363	2.421	2.087	2.001	1.827	1.755	1.684	1.507	1.592	1.710	1.804	1.676	1.943	2.192	2.168	2.216	2.189	2.374	2.687	3.138	3.359	3.707	4.090	4.852	4.938	5.661	6.349	6.701	7.544	7.295	7.317	6.922	6.975	6.101	6.251	5.972	5.217	3.704	3.406
330.0	215.4	247.9	345.4	417.8	415.9	430.9	535.4	700.2	921.9	1176	1426	1541	1439	1164	946.5	780.5	482.0	309.5	469.2	2242	8167	9999.9	9999.9	1738	42.86	27.07	18.81	13.34	11.18	9.249	7.902	6.488	5.257	4.678	3.829	3.515	3.093	2.735	2.441	2.246	2.075	1.982	1.759	1.789	1.612	1.630	1.538	1.612	1.698	1.649	1.702	2.087	2.163	2.195	2.209	2.353	2.843	3.005	3.334	3.732	4.281	4.837	4.971	5.530	6.176	6.477	6.946	7.005	6.929	7.160	6.540	5.866	5.554	5.452	5.147	5.321	4.532
335.0	217.9	231.6	332.8	425.2	453.6	488.0	587.4	752.2	928.9	1173	1389	1513	1447	1204	933.0	798.9	717.5	400.5	308.1	652.7	1941	3321	9999.9	9999.9	2603	46.13	24.84	17.53	14.09	10.40	9.414	7.068	6.016	4.816	4.283	3.729	3.328	3.015	2.502	2.300	2.250	2.066	1.837	1.827	1.682	1.676	1.634	1.683	1.653	1.659	1.510	2.094	2.197	2.338	2.411	2.565	2.948	3.191	3.519	3.803	4.487	4.730	5.075	5.424	6.235	6.317	6.835	6.812	6.896	6.948	6.829	6.231	5.564	5.052	4.704	4.797	4.982
340.0	203.8	225.7	347.1	429.5	496.7	554.1	636.2	777.7	967.4	1183	1385	1496	1449	1256	983.1	784.6	753.9	579.1	331.9	327.3	573.1	861.3	4599	9999.9	9999.9	400.3	35.47	21.68	16.09	12.41	10.18	7.973	6.507	5.035	4.323	3.908	3.325	2.866	2.647	2.445	2.126	2.014	1.844	1.896	1.696	1.717	1.544	1.572	1.579	1.614	1.642	2.202	2.325	2.437	2.380	2.768	3.183	3.302	3.666	3.884	4.551	4.875	5.158	5.560	6.030	6.412	6.360	6.642	6.784	6.958	6.505	6.440	5.755	5.417	4.826	4.963	4.596
345.0	191.1	201.8	319.5	451.9	532.1	629.3	707.0	829.8	996.2	1201	1369	1477	1438	1278	1033	816.5	704.0	687.6	451.9	307.1	302.8	330.4	1157	6598	9999.9	9999.9	309.1	27.58	19.19	14.53	10.74	8.554	6.586	5.296	4.445	3.669	3.484	3.020	2.591	2.127	2.101	1.922	1.951	1.916	1.601	1.514	1.567	1.469	1.537	1.685	1.634	2.115	2.381	2.647	2.674	2.892	3.473	3.364	3.875	4.284	4.350	4.669	5.110	5.581	5.746	6.219	6.206	6.497	6.732	6.902	6.491	6.548	5.935	5.923	5.265	5.185	4.538
350.0	171.6	185.9	309.5	465.0	595.8	733.2	831.5	925.2	1053	1221	1368	1450	1432	1306	1103	899.1	743.7	671.6	623.4	449.0	317.1	264.8	409.5	1621	6178	9999.9	9999.9	1537	33.59	18.45	13.72	9.569	7.344	5.743	4.954	3.964	3.291	2.996	2.642	2.300	2.095	1.875	1.844	1.675	1.577	1.489	1.412	1.454	1.472	1.465	1.704	2.165	2.510	2.770	2.942	3.063	3.677	3.771	4.083	4.504	4.596	5.004	5.491	5.697	6.092	6.044	6.214	6.373	6.681	6.892	6.378	6.281	6.302	6.090	5.625	5.348	5.032
355.0	164.2	185.8	303.9	482.7	670.4	866.8	991.0	1072	1175	1312	1398	1460	1453	1352	1173	1005	836.5	724.8	651.6	636.9	462.0	327.1	303.5	522.0	1496	2863	9999.9	9999.9	2428	36.19	17.65	11.84	8.424	6.682	5.194	4.104	3.663	2.991	2.523	2.384	2.031	2.117	1.701	1.641	1.672	1.337	1.344	1.415	1.409	1.476	1.653	2.206	2.472	2.990	3.193	3.614	4.176	4.341	4.567	4.857	5.494	5.399	5.699	5.908	5.944	6.044	6.357	6.508	6.871	6.475	6.534	6.261	6.395	6.352	6.150	5.579	5.599
360.0	164.1	173.6	295.4	505.6	752.9	951.5	1098	1199	1289	1374	1457	1498	1476	1387	1229	1070	926.8	801.7	703.0	680.7	611.3	423.0	332.9	317.7	482.9	752.3	3449	9999.9	9999.9	380.4	27.97	14.20	9.773	7.495	5.844	4.175	3.692	3.146	2.672	2.359	2.079	1.959	1.885	1.567	1.591	1.378	1.387	1.375	1.398	1.413	1.746	2.249	2.527	3.114	3.674	3.999	4.545	4.766	5.019	5.256	5.612	5.899	6.101	6.209	6.477	6.186	6.621	6.508	6.978	6.672	6.794	6.732	6.476	6.741	6.032	5.976	5.795
365.0	147.4	161.8	283.9	511.2	785.9	1013	1213	1307	1382	1478	1517	1530	1498	1421	1284	1126	1000	882.7	775.0	704.3	702.4	562.2	404.6	323.2	294.5	303.7	874.8	4563	9999.9	9999.9	301.9	20.26	12.28	8.630	6.308	4.935	4.032	3.285	2.850	2.395	2.405	2.011	1.725	1.670	1.443	1.395	1.368	1.377	1.299	1.439	1.698	2.556	2.377	3.238	3.874	4.145	4.717	5.040	5.572	5.817	5.655	6.181	6.634	6.532	6.896	6.541	6.547	6.383	7.085	6.983	7.130	7.061	6.989	6.874	6.424	6.610	6.211
370.0	145.3	175.1	288.2	521.5	828.4	1117	1302	1424	1506	1565	1585	1570	1532	1467	1344	1207	1099	988.8	885.9	793.8	740.3	702.0	569.9	407.8	313.8	252.4	324.6	1122	4407	9999.9	9999.9	1428	26.79	11.55	8.184	5.857	4.660	3.637	3.077	2.586	2.385	2.136	1.891	1.670	1.436	1.392	1.285	1.380	1.461	1.399	1.683	2.452	2.756	3.454	3.991	4.509	5.103	5.490	5.872	6.294	6.323	6.795	7.020	7.018	7.067	6.759	6.768	6.763	6.770	7.131	7.054	6.841	7.135	7.113	7.050	6.892	6.700
375.0	134.9	161.1	291.3	540.9	871.0	1189	1386	1514	1602	1626	1625	1604	1566	1496	1401	1287	1183	1093	998.0	899.4	816.2	747.4	707.1	561.4	397.1	301.1	248.1	374.3	1069	2557	9999.9	9999.9	2201	28.64	10.64	7.412	5.430	3.901	3.351	2.587	2.416	2.086	1.930	1.708	1.371	1.435	1.289	1.413	1.422	1.410	1.658	2.484	2.932	3.670	4.072	4.661	5.488	5.921	6.087	6.362	6.718	7.093	7.229	7.223	7.235	6.951	7.157	7.185	6.985	7.068	7.411	7.099	7.237	7.413	7.201	7.208	7.366
380.0	140.2	162.0	273.2	543.0	884.2	1227	1444	1571	1645	1670	1660	1636	1596	1527	1436	1325	1249	1165	1074	982.2	880.6	796.3	740.7	678.1	489.7	354.6	269.1	237.0	346.2	650.0	2907	9999.9	9999.9	327.4	19.64	8.582	6.112	4.705	3.921	2.899	2.428	2.293	2.005	1.725	1.530	1.405	1.289	1.395	1.453	1.373	1.744	2.499	3.095	3.703	4.370	5.012	5.756	6.248	6.537	6.993	7.154	7.174	7.071	7.190	7.457	6.956	6.925	7.036	7.306	7.359	6.984	7.100	7.164	7.601	7.309	7.299	7.891
385.0	129.5	156.9	286.5	544.6	906.7	1244	1480	1630	1653	1687	1657	1633	1597	1544	1451	1357	1283	1219	1123	1037	943.7	851.5	767.5	719.3	602.8	420.3	312.3	236.7	210.9	240.0	721.0	3422	9999.9	9999.9	262.8	12.82	7.731	5.460	4.327	3.113	2.647	2.291	1.960	1.790	1.561	1.522	1.294	1.473	1.498	1.494	1.783	2.539	3.065	3.745	4.542	5.060	5.796	6.037	6.879	7.022	7.260	7.324	6.966	7.393	7.646	7.028	7.345	7.218	7.031	7.105	6.980	7.076	7.237	7.702	7.676	7.464	7.634
390.0	129.5	160.4	281.9	542.6	917.6	1264	1523	1655	1678	1680	1636	1626	1585	1538	1459	1382	1318	1265	1176	1097	1009	925.9	825.8	737.3	667.0	538.0	386.5	282.6	220.4	182.9	253.4	832.5	3248	9999.9	9999.9	1138	20.57	7.369	5.389	3.902	3.032	2.529	2.161	1.834	1.684	1.636	1.350	1.435	1.450	1.527	1.724	2.469	3.047	3.790	4.468	5.131	5.899	6.343	6.912	6.862	7.091	7.180	7.170	7.206	7.272	6.927	7.084	7.013	7.203	7.091	7.119	7.205	7.618	7.494	7.755	7.805	7.865
395.0	125.3	153.3	271.0	539.4	906.5	1286	1537	1686	1712	1668	1633	1588	1568	1532	1457	1394	1332	1299	1218	1146	1064	984.4	890.2	784.7	687.2	611.7	486.0	350.0	265.3	206.0	180.4	272.9	785.3	2356	6572	9999.9	1932	24.61	7.275	5.199	3.287	2.942	2.337	1.856	1.824	1.610	1.413	1.536	1.565	1.582	1.783	2.482	3.062	3.734	4.633	5.171	5.883	6.542	6.832	7.222	7.151	7.365	7.376	7.232	7.165	6.641	6.949	6.840	7.082	6.991	7.346	7.291	7.388	7.509	7.309	8.017	7.947
400.0	128.2	145.0	282.5	533.6	901.3	1282	1551	1675	1708	1654	1606	1551	1526	1502	1434	1383	1337	1303	1230	1167	1092	1012	923.7	819.4	710.9	622.7	556.2	420.6	304.8	238.7	185.7	166.0	250.4	578.7	1710	7715	9999.9	291.6	18.21	6.157	4.267	3.364	2.828	2.107	1.895	1.681	1.436	1.604	1.744	1.501	1.917	2.521	3.062	3.639	4.593	5.050	5.794	6.525	6.856	6.967	7.481	7.471	7.284	6.802	6.891	6.753	6.680	6.523	6.763	7.137	6.869	7.033	7.511	7.839	7.422	7.578	7.812
405.0	126.1	140.5	283.4	523.5	885.2	1273	1545	1683	1691	1636	1567	1537	1498	1474	1408	1369	1337	1295	1232	1173	1102	1024	944.7	848.1	738.0	632.8	565.1	490.5	355.7	269.4	207.3	158.9	146.1	194.9	429.5	2141	8589	8276	256.8	10.80	5.131	3.767	3.349	2.495	2.080	1.800	1.566	1.494	1.513	1.561	1.696	2.596	3.142	3.771	4.531	5.089	5.749	6.399	6.770	6.967	7.248	7.264	7.200	6.952	7.224	6.744	6.753	6.375	6.509	6.964	6.701	7.038	7.029	7.603	7.221	7.701	7.895
410.0	112.4	135.5	263.0	516.2	874.0	1253	1521	1674	1670	1598	1530	1489	1445	1410	1363	1325	1295	1261	1213	1152	1090	1022	946.1	858.1	754.9	651.0	564.3	507.9	434.1	324.4	244.1	186.5	145.9	126.7	157.2	522.5	2318	6226	7054	1083	18.60	5.497	3.860	2.772	2.294	1.940	1.594	1.461	1.516	1.601	1.723	2.500	2.907	3.683	4.244	5.191	5.829	6.134	7.228	6.948	7.194	6.983	7.222	6.809	6.918	6.467	6.463	6.326	6.377	6.668	6.753	6.948	6.914	7.181	7.327	7.614	7.630
415.0	93.06	138.5	246.3	499.9	843.8	1212	1504	1663	1641	1573	1490	1424	1380	1327	1291	1261	1238	1214	1168	1111	1058	998.1	932.5	851.2	763.8	660.5	574.2	501.0	458.4	396.2	286.7	217.6	167.5	130.5	111.5	172.6	556.7	1446	3703	7691	1789	23.66	5.260	3.557	2.636	2.192	1.757	1.624	1.634	1.595	1.682	2.475	2.796	3.708	4.096	4.899	5.651	6.292	6.617	6.916	7.118	7.018	6.951	6.597	6.836	6.650	6.518	6.268	6.470	6.243	6.443	6.634	6.567	6.567	6.879	6.908	7.387
420.0	85.73	122.6	239.0	472.1	791.8	1181	1475	1638	1623	1537	1452	1368	1324	1284	1228	1201	1178	1158	1113	1067	1027	966.0	913.4	835.9	754.7	663.1	581.7	505.0	453.8	422.6	337.8	243.1	185.2	142.8	111.3	102.0	171.0	356.4	926.8	4662	7271	1373	16.37	4.579	3.179	2.587	1.852	1.682	1.490	1.510	1.637	2.405	2.698	3.484	4.035	4.716	5.401	6.360	6.670	6.866	6.961	7.059	6.806	6.650	6.384	6.458	6.085	6.242	6.120	6.235	6.023	6.437	6.448	6.344	6.355	6.937	7.004
425.0	89.75	122.3	232.5	454.2	783.2	1129	1426	1597	1601	1525	1424	1338	1272	1231	1176	1146	1127	1106	1070	1024	980.9	932.3	887.4	818.0	739.4	661.0	584.8	514.1	454.3	417.5	375.8	274.3	203.2	157.0	120.5	94.58	91.06	118.5	235.5	1235	5336	6238	249.5	9.166	3.920	2.976	2.180	1.970	1.431	1.527	1.629	2.313	2.849	3.450	4.113	4.668	5.482	6.124	6.836	6.810	6.619	6.542	6.711	6.418	6.016	6.138	6.202	5.784	5.665	5.894	5.649	5.860	6.137	6.095	6.395	6.293	6.882
430.0	104.9	111.5	227.7	441.5	749.9	1083	1395	1554	1560	1482	1381	1294	1214	1161	1115	1074	1048	1033	1003	965.8	929.3	882.8	842.1	787.3	717.4	649.0	583.1	520.8	464.1	415.9	379.2	319.8	237.0	178.4	136.0	105.1	83.12	73.26	86.33	300.4	1388	4095	5192	1012	17.06	4.034	2.787	2.341	1.786	1.669	1.791	2.205	2.719	3.219	3.897	4.456	5.174	5.880	6.446	6.569	6.304	6.299	6.744	6.355	6.123	5.946	5.888	5.661	5.535	5.688	5.610	5.704	5.798	5.597	5.957	5.949	6.338
435.0	142.9	110.7	211.1	409.5	720.8	1050	1341	1497	1511	1443	1346	1247	1161	1096	1049	1000	977.1	957.4	938.8	896.9	864.6	827.5	795.6	751.6	694.0	630.7	574.2	523.8	475.6	427.8	375.8	333.3	280.9	205.2	153.5	119.0	91.39	71.78	60.62	96.38	330.8	941.6	2547	6065	1681	22.17	4.067	2.879	2.443	1.891	1.975	2.290	2.732	3.248	4.015	4.548	5.074	5.765	6.400	6.398	6.607	6.438	6.299	6.255	5.860	5.600	5.505	5.492	5.287	5.525	5.486	5.440	5.527	5.555	5.601	5.865	5.886
440.0	178.1	114.8	190.4	395.2	705.4	1009	1294	1471	1490	1428	1313	1213	1112	1046	988.0	946.3	915.0	906.8	883.1	844.9	820.3	785.7	755.4	720.4	670.9	619.0	563.2	524.9	476.0	431.9	376.4	328.8	294.8	232.7	167.4	129.2	100.6	77.19	59.88	55.00	98.62	228.8	629.6	3596	6173	1294	14.81	3.624	2.826	2.213	2.034	2.468	2.825	3.240	3.950	4.377	5.266	5.630	5.967	6.311	6.430	6.344	6.419	6.452	5.641	5.581	5.589	5.369	5.161	5.198	4.941	4.970	5.371	5.210	5.200	5.461	5.759
445.0	184.7	144.1	182.7	382.5	651.3	989.7	1234	1424	1443	1374	1280	1170	1068	999.8	933.0	892.2	869.2	850.7	831.7	797.0	776.2	746.8	718.9	685.6	641.7	596.3	551.7	515.8	478.8	433.0	383.0	327.0	288.6	254.7	185.1	137.3	109.0	83.92	63.13	50.33	50.26	71.85	157.0	949.8	4528	5482	211.1	9.145	3.322	2.467	2.161	2.599	2.741	3.244	3.894	4.086	5.166	5.572	5.902	6.118	6.474	5.947	6.586	6.192	5.764	5.395	5.504	5.150	4.977	4.978	4.921	4.935	4.973	4.786	4.964	5.353	5.382
450.0	142.0	216.9	196.9	348.3	610.6	916.1	1161	1334	1367	1312	1216	1104	1002	928.4	865.7	816.4	794.7	777.1	753.2	728.6	705.6	682.9	658.7	633.4	599.5	561.4	526.7	492.3	462.4	427.0	378.7	325.6	278.1	245.5	208.3	154.8	116.1	90.20	70.24	54.33	44.05	40.50	53.35	226.7	1176	3587	4651	965.3	14.44	3.303	2.596	2.809	2.757	3.241	3.697	3.993	4.782	5.427	5.545	5.825	6.117	5.731	5.842	5.988	5.850	5.390	5.218	4.947	4.820	4.677	4.672	4.806	4.701	4.822	4.547	4.791	4.898
455.0	87.45	238.2	271.4	320.5	554.8	836.7	1076	1237	1276	1226	1147	1029	934.2	850.9	786.3	736.1	710.6	696.0	668.2	651.4	627.1	615.1	594.2	573.0	548.9	521.9	491.3	467.2	441.1	410.6	367.8	322.0	272.5	231.2	203.5	173.7	128.2	96.04	75.74	59.19	47.09	37.83	34.25	67.54	274.9	822.2	2142	5137	1390	17.30	3.536	3.199	3.106	3.331	3.523	3.663	4.371	5.092	5.093	5.407	5.475	5.297	5.470	5.630	5.335	4.931	4.784	4.585	4.471	4.421	4.397	4.614	4.361	4.337	4.294	4.422	4.310
460.0	76.78	184.2	433.9	351.3	517.0	771.5	1006	1164	1197	1156	1082	969.7	879.6	790.8	726.8	676.2	653.3	634.8	613.1	598.8	573.3	562.5	546.1	526.8	507.9	484.5	460.8	443.6	418.1	394.2	355.4	313.7	266.7	223.2	193.9	176.7	140.6	101.7	79.17	63.56	49.57	39.25	31.86	34.22	76.22	195.7	520.2	2918	5003	1024	12.82	3.852	3.401	3.219	3.540	3.850	4.312	4.461	4.994	5.428	5.359	5.240	5.306	5.216	4.855	4.903	4.633	4.475	4.343	4.358	4.025	4.207	4.068	4.018	3.738	4.055	3.814
465.0	72.72	121.4	579.5	499.5	481.8	707.8	940.3	1081	1138	1090	1031	920.2	818.3	738.8	669.0	626.6	598.1	581.5	562.5	543.0	526.4	514.4	500.8	485.1	469.0	450.1	432.3	415.3	400.5	375.2	343.9	302.5	257.3	218.8	187.0	164.0	146.5	111.1	83.23	66.42	52.73	41.39	33.06	28.34	33.48	56.67	127.1	759.8	3697	4307	174.2	9.430	3.829	3.305	3.548	3.898	4.288	4.429	4.847	4.876	5.109	5.117	5.082	5.362	4.715	4.829	4.374	4.313	3.957	3.888	3.857	4.101	3.874	3.763	3.520	3.887	3.773
470.0	72.11	82.46	499.1	1274	601.7	649.7	852.3	987.3	1030	996.5	934.7	846.5	743.2	661.8	601.8	559.9	533.4	513.9	499.1	479.1	465.2	454.0	442.5	434.2	420.0	403.9	391.7	377.6	367.1	348.6	322.4	283.3	245.6	208.3	176.0	151.6	137.7	117.7	88.58	68.72	54.00	44.03	35.87	28.44	25.69	27.49	40.21	179.4	959.9	2792	3444	909.5	15.02	4.229	3.917	3.879	4.196	4.331	4.579	4.507	4.695	4.671	4.683	4.741	4.328	4.440	4.062	3.885	3.782	3.588	3.689	3.687	3.440	3.539	3.198	3.515	3.527
475.0	70.04	68.74	225.1	2021	1918	622.6	778.4	895.1	924.3	902.8	842.4	770.8	664.3	594.8	533.6	497.2	465.0	451.9	437.1	421.8	406.7	395.7	389.9	377.4	371.0	357.3	350.1	340.8	332.6	317.8	296.4	264.3	228.8	197.3	166.8	143.4	124.6	112.3	96.72	73.54	57.17	46.17	37.61	30.56	25.57	22.19	22.14	50.48	222.4	635.9	1508	3703	1295	20.07	4.270	3.891	4.212	4.153	4.151	4.344	4.170	4.251	4.246	4.251	3.806	3.832	3.646	3.599	3.586	3.419	3.321	3.324	2.960	3.086	2.930	3.044	3.176
480.0	65.07	60.24	127.2	1629	3979	934.6	716.1	825.0	858.1	840.6	787.0	713.9	619.9	550.3	494.6	450.8	426.6	409.6	394.7	379.5	367.5	358.2	355.9	346.7	341.8	329.5	322.3	314.8	309.6	300.3	276.9	248.0	218.0	187.8	161.6	138.1	119.1	104.8	97.01	79.71	58.59	47.68	39.61	32.87	27.23	22.18	19.12	22.84	59.21	149.7	365.9	1999	3807	1045	14.06	4.383	4.299	4.159	4.184	3.832	4.089	4.014	4.296	4.169	3.923	3.648	3.334	3.422	3.304	3.147	3.256	3.017	2.780	2.851	2.758	2.654	2.949
485.0	66.91	61.26	107.3	851.7	5506	2533	671.3	771.1	802.3	795.7	750.2	673.1	584.6	512.4	463.6	418.0	394.7	374.6	362.0	351.3	339.3	332.5	324.7	320.8	313.8	308.2	299.3	294.3	290.9	280.9	261.9	236.4	208.0	180.9	155.5	135.3	116.3	100.3	91.22	84.08	64.11	49.44	41.53	33.94	28.48	23.79	19.46	18.17	23.62	41.90	89.34	520.5	2718	3560	201.7	8.661	4.819	4.256	4.127	4.009	4.050	3.814	3.924	3.862	3.793	3.201	3.150	3.029	3.262	2.954	2.968	2.867	2.770	2.793	2.594	2.571	2.616
490.0	69.65	60.08	93.04	340.3	3986	6694	1360	699.2	742.5	734.3	690.1	617.9	542.3	472.2	419.0	380.6	357.3	338.8	324.7	315.0	307.5	297.3	293.1	286.9	282.7	278.6	273.1	268.3	267.2	258.3	243.0	220.4	194.9	171.1	148.7	129.2	111.4	96.24	84.83	79.23	70.82	53.66	43.66	36.05	31.03	25.66	21.58	18.38	16.86	19.07	28.10	123.8	704.8	2158	2469	850.3	16.84	5.041	4.253	4.002	3.903	3.754	3.599	3.538	3.575	3.338	3.192	3.098	2.899	2.786	2.619	2.648	2.503	2.446	2.489	2.283	2.445
495.0	65.08	66.25	100.5	200.8	1445	9168	3709	690.1	676.0	663.6	622.6	565.8	488.8	427.7	380.8	339.3	320.5	301.3	288.0	275.7	270.0	264.0	261.8	255.2	252.8	250.5	243.5	241.5	240.2	234.9	220.9	201.9	180.0	159.3	138.2	122.6	105.0	90.79	80.31	72.26	67.68	60.69	46.67	36.67	32.36	27.69	23.03	19.36	16.56	14.68	15.31	35.46	163.6	492.8	1322	3533	1412	22.38	4.543	3.949	3.685	3.679	3.682	3.397	3.365	2.961	3.061	2.824	2.634	2.617	2.520	2.646	2.358	2.309	2.037	2.256	2.273
500.0	66.74	60.75	87.97	152.4	545.5	6587	9937	1193	611.2	604.3	565.5	523.9	449.9	392.7	347.1	311.3	288.0	275.7	261.5	249.7	242.3	237.1	235.1	229.5	226.7	225.1	220.0	220.3	217.6	214.9	205.2	187.2	167.9	147.0	130.0	115.8	99.93	87.94	77.12	68.40	61.42	59.93	49.95	38.72	32.51	28.19	23.74	19.79	16.58	14.04	12.83	15.97	43.42	116.1	324.3	1903	3683	1055	16.08	4.416	3.852	3.647	3.376	3.258	3.217	2.774	2.732	2.601	2.522	2.484	2.391	2.386	2.259	2.085	1.997	2.209	2.036
505.0	59.75	55.79	82.83	142.5	304.5	3134	9999.9	2911	570.6	560.9	524.0	476.1	417.3	362.1	322.2	286.4	262.7	253.0	240.7	229.7	223.9	215.6	213.5	211.9	208.3	205.4	202.5	199.6	200.5	198.8	187.8	172.2	154.6	138.9	121.9	108.6	95.22	84.05	72.90	64.66	58.27	55.67	52.64	40.27	32.93	28.32	24.11	20.22	16.81	14.24	12.58	12.04	16.94	32.39	78.80	493.1	2474	3321	222.3	9.105	3.917	3.855	3.430	3.204	2.980	2.826	2.712	2.646	2.377	2.256	2.328	2.074	1.887	1.958	1.984	2.035	1.923
510.0	59.09	54.78	78.13	132.0	223.0	1022	8084	9999.9	1190	509.9	477.2	429.2	373.6	327.4	287.7	253.9	232.1	222.2	209.0	201.1	193.8	187.3	186.0	184.7	183.3	179.2	177.7	176.5	177.2	174.6	165.2	153.9	138.7	124.5	110.1	98.60	87.04	77.59	68.48	60.43	54.34	49.21	48.12	42.59	33.97	27.70	23.83	19.94	17.19	14.62	12.65	11.38	11.36	13.98	23.74	115.9	635.0	1942	2229	845.3	17.05	4.044	3.380	3.131	2.835	2.603	2.600	2.256	2.348	2.081	1.994	1.957	1.870	1.810	1.943	1.912	1.766
515.0	52.24	54.27	60.39	126.4	190.9	429.4	2837	9999.9	5332	475.9	424.8	379.5	328.6	286.1	252.7	219.4	202.2	191.3	180.2	172.8	169.3	161.0	160.4	158.9	156.8	155.1	153.5	150.9	153.0	152.3	144.1	135.7	122.0	110.6	97.56	87.38	78.19	71.16	62.15	55.97	49.98	43.98	40.64	40.53	35.87	28.44	23.79	19.92	16.95	14.55	12.62	11.35	10.24	9.992	11.10	31.56	146.9	441.6	1028	2796	1317	22.59	3.837	3.053	2.762	2.473	2.223	2.111	2.058	1.967	1.883	1.905	1.645	1.686	1.666	1.639	1.616
520.0	55.85	54.51	58.97	110.4	175.7	287.2	916.1	8856	9999.9	807.2	389.1	346.9	301.2	264.1	226.3	199.0	184.1	171.0	162.5	153.0	151.6	144.9	143.8	141.2	137.6	137.7	136.3	135.7	137.6	135.2	129.8	121.2	109.2	98.49	88.32	80.58	72.20	64.05	57.09	51.97	45.78	41.16	37.18	36.26	36.17	29.11	23.19	19.33	16.71	14.41	12.63	11.29	9.612	8.842	8.567	12.62	38.04	103.2	248.2	1431	2850	908.3	16.37	3.085	2.735	2.376	2.176	1.962	2.123	1.912	1.810	1.586	1.575	1.631	1.649	1.449	1.513
525.0	52.17	52.86	52.50	97.62	176.8	232.6	429.2	4422	9999.9	2095	352.3	319.0	272.6	240.8	205.2	181.9	168.5	153.6	147.1	139.7	134.8	129.9	128.6	125.9	124.7	124.8	123.7	121.8	124.3	123.8	117.8	109.9	99.15	88.87	79.93	73.97	67.81	59.22	52.65	48.03	43.02	39.14	34.77	32.53	33.31	30.35	23.27	19.15	16.15	13.98	12.56	11.41	9.770	8.856	8.259	8.559	13.61	28.09	59.99	362.9	1763	2145	230.1	8.914	3.052	2.497	2.025	1.884	1.988	1.765	1.672	1.570	1.730	1.443	1.472	1.289	1.399
530.0	48.53	43.48	47.68	79.94	159.8	215.8	290.5	1360	9333	9330	814.1	281.8	243.9	210.8	181.7	159.8	145.1	132.9	128.1	119.8	116.9	113.0	111.5	109.8	108.4	107.7	106.6	105.9	107.6	107.4	102.9	95.63	87.41	78.25	71.38	65.51	58.41	52.42	47.42	43.18	38.75	34.85	31.47	28.45	27.30	27.24	24.55	18.87	15.56	13.08	12.10	10.74	9.479	8.857	8.188	7.371	8.034	10.71	17.49	84.95	443.3	1291	1810	842.3	16.82	2.958	2.079	1.939	1.902	1.727	1.590	1.556	1.444	1.433	1.277	1.203	1.233
535.0	42.30	41.72	43.20	62.91	129.6	205.8	238.4	497.9	3354	9999.9	4156	260.1	212.8	187.2	157.5	137.9	125.2	114.7	109.4	104.2	100.1	96.15	95.33	94.24	92.53	89.65	91.28	90.91	90.54	91.08	86.68	82.11	75.55	66.86	61.93	56.20	51.20	46.31	42.10	37.97	33.88	30.43	27.42	25.84	23.57	22.55	23.03	19.16	15.32	12.65	11.26	9.975	8.805	8.055	7.989	7.236	6.350	6.741	7.779	22.61	102.2	293.2	718.9	1975	1058	23.09	2.579	2.013	1.694	1.707	1.466	1.577	1.282	1.273	1.149	1.186	1.190
540.0	51.05	39.76	38.52	62.05	105.6	191.5	218.9	285.8	1009	8844	9098	476.9	194.9	163.5	140.4	120.6	111.2	102.8	95.21	92.37	86.95	84.67	83.30	84.25	80.59	78.88	81.48	79.61	78.63	79.83	76.47	72.43	66.26	59.21	55.10	50.05	45.60	41.76	37.50	34.03	31.01	27.55	24.83	22.84	21.46	19.82	19.97	19.21	15.26	12.02	10.73	9.698	8.588	7.977	7.400	7.045	6.349	5.688	5.596	8.509	25.99	68.71	170.3	923.0	1968	256.2	16.12	2.292	1.685	1.532	1.401	1.379	1.284	1.203	1.121	1.095	1.182
545.0	45.11	34.30	35.08	57.74	93.40	166.5	208.4	217.5	396.7	4380	9999.9	1472	178.4	149.8	127.6	107.0	97.73	91.02	85.99	81.50	77.94	73.01	72.88	74.43	71.68	70.67	70.54	70.98	69.51	69.75	67.61	64.34	58.31	54.26	49.67	44.29	40.33	37.36	34.10	30.72	27.91	25.39	22.37	20.94	19.34	17.41	17.03	18.11	15.62	11.93	9.501	8.816	7.951	7.388	6.764	6.629	6.032	5.466	5.106	5.184	9.099	17.96	41.20	228.4	1106	1665	230.4	8.628	2.013	1.549	1.305	1.225	1.113	1.031	1.104	1.008	1.046
550.0	48.06	30.89	33.78	47.70	75.73	131.3	192.5	189.1	229.4	1282	8242	7278	427.9	128.9	108.5	94.83	83.30	76.85	71.95	68.10	65.27	61.47	60.25	60.50	59.21	59.44	57.96	58.77	58.81	58.12	56.76	52.54	48.83	45.14	40.99	38.06	34.36	31.17	28.71	26.15	23.91	21.77	19.61	18.12	16.65	15.29	14.30	13.77	14.17	11.93	9.404	7.999	7.232	6.591	6.272	5.863	5.613	5.321	4.437	4.216	4.669	6.762	11.82	53.38	272.1	839.0	1238	631.1	17.38	1.946	1.435	1.184	1.115	1.112	0.999	0.938	1.001
555.0	41.23	31.22	27.90	39.21	62.28	97.05	168.8	178.4	168.7	408.0	2808	9999.9	2596	116.6	93.14	78.24	70.26	64.26	59.16	55.49	52.83	50.67	48.41	49.80	48.37	47.71	47.09	47.12	48.33	47.38	46.66	42.86	39.97	36.55	33.32	30.81	28.05	25.99	23.60	21.43	20.37	17.89	16.39	15.33	13.75	12.63	11.70	10.90	10.55	11.25	9.662	7.429	6.463	5.803	5.613	5.066	4.869	4.998	4.156	3.749	3.734	3.988	4.830	13.99	62.55	189.7	439.6	1226	802.2	24.13	1.721	1.280	1.029	1.124	1.060	0.893	0.943
560.0	41.11	29.89	26.40	35.44	53.24	80.47	131.5	174.8	142.0	198.0	795.6	7749	6323	162.1	83.79	68.41	59.99	53.77	50.54	47.52	45.92	42.58	41.56	42.21	41.06	41.02	40.18	39.14	39.53	41.13	39.34	36.72	34.34	30.93	28.31	25.81	24.40	22.26	20.43	18.44	16.80	15.08	14.07	13.07	12.33	10.66	10.33	9.412	8.573	9.354	9.298	7.275	5.785	5.394	4.814	4.781	4.192	4.341	3.811	3.400	3.130	3.208	3.082	5.075	15.87	44.10	102.8	515.3	1254	262.5	18.07	1.347	1.100	0.988	0.847	0.834	0.908
565.0	37.89	29.57	28.51	35.13	48.93	71.65	104.1	166.4	139.6	144.2	284.7	3521	9274	915.6	75.41	61.03	52.35	45.84	43.78	40.54	39.01	36.41	35.62	35.22	34.58	34.70	33.57	33.57	34.26	35.03	32.34	31.10	28.46	26.34	23.57	22.25	20.23	18.78	17.68	16.16	14.28	12.80	11.98	11.37	10.57	9.803	8.956	7.901	7.489	7.345	7.884	6.898	5.530	4.888	4.393	4.142	4.040	3.789	3.350	3.434	2.944	2.625	2.547	2.849	5.402	11.45	24.68	123.5	604.4	1064	236.7	10.11	1.221	1.035	0.872	0.849	0.784
570.0	35.53	30.25	31.55	34.52	45.03	59.80	82.95	132.5	149.9	128.9	163.3	995.4	6602	4818	222.2	50.57	43.84	38.91	36.71	34.25	32.19	30.39	29.55	28.68	28.31	28.87	27.78	27.40	27.56	28.59	26.25	25.04	23.11	21.16	19.38	18.32	16.76	15.05	14.16	12.76	11.91	10.78	10.18	9.453	8.721	8.222	7.258	6.624	6.157	5.807	6.011	6.315	5.398	4.461	3.970	3.689	3.561	3.365	2.981	2.981	2.799	2.572	2.308	2.346	2.745	4.034	6.986	29.03	144.0	461.1	765.9	460.3	18.07	1.557	0.848	0.799	0.692
575.0	38.14	32.16	37.00	40.72	45.10	54.81	70.86	99.47	154.6	136.0	141.4	330.0	2130	7129	967.8	48.08	37.36	32.62	30.40	27.55	25.71	25.62	24.43	23.56	22.92	22.07	22.31	22.20	22.51	22.86	20.81	20.22	18.81	17.21	15.81	14.36	13.37	12.16	11.22	10.42	9.765	9.223	7.896	7.974	7.305	6.564	6.045	5.654	5.111	4.755	4.487	4.817	4.832	4.357	3.286	3.190	3.098	2.955	2.510	2.381	2.532	2.593	2.236	1.862	2.031	2.329	2.863	7.794	33.34	104.1	234.1	677.3	572.2	26.78	1.095	0.851	0.565
580.0	33.34	30.20	39.10	42.39	43.37	49.51	63.59	82.17	150.7	152.3	140.9	180.2	602.9	5082	3475	93.86	32.39	28.31	26.87	24.13	22.15	21.85	20.55	20.26	19.61	18.77	18.86	18.88	19.01	18.70	17.78	16.78	15.66	13.99	13.51	12.39	11.20	10.19	9.553	8.653	8.267	7.756	6.819	6.568	6.242	5.698	5.254	4.932	4.267	4.274	3.578	3.797	4.252	4.299	3.190	2.831	2.902	2.557	2.387	2.076	2.182	2.392	2.205	1.897	1.936	1.768	2.098	3.137	8.640	24.43	54.09	247.9	724.8	266.9	19.70	0.961	0.705
585.0	35.68	28.08	39.13	44.26	44.51	47.71	59.06	75.79	127.6	171.2	142.1	147.4	229.8	2194	5192	526.7	30.35	24.33	24.26	21.24	19.04	18.70	17.86	17.77	16.81	16.08	16.38	15.79	16.18	16.57	15.32	14.64	13.25	11.87	11.67	10.11	9.650	8.512	8.394	7.632	7.261	6.494	5.755	5.618	5.625	5.046	4.728	4.400	3.556	3.547	3.292	3.190	3.795	3.889	3.514	2.694	2.590	2.261	2.208	2.035	2.110	2.129	2.251	2.166	1.694	1.713	1.703	1.810	3.089	6.504	13.10	58.08	298.9	655.6	235.8	12.05	0.976
590.0	33.43	33.59	39.42	47.83	42.85	43.45	55.88	70.07	103.9	170.0	156.4	141.3	141.6	618.3	3537	2542	64.93	22.33	20.25	17.81	16.25	15.21	15.08	14.32	13.83	13.43	13.60	13.22	13.53	13.71	12.28	11.38	10.75	10.08	9.139	8.481	7.921	7.344	6.748	6.412	5.742	5.307	4.957	4.745	4.538	4.089	3.820	3.559	3.127	3.149	2.787	2.668	2.721	2.973	3.046	2.797	2.287	2.005	1.805	1.864	1.667	1.827	1.807	2.121	1.734	1.663	1.489	1.452	1.802	2.610	3.949	13.85	69.72	247.1	456.7	332.1	19.66
595.0	29.27	31.60	41.75	50.14	43.26	38.40	50.07	66.70	88.57	142.0	175.5	139.3	123.8	193.0	1091	3687	567.7	21.10	17.53	15.16	14.32	12.86	13.12	12.16	11.11	11.18	11.10	10.41	10.62	10.91	10.28	9.557	9.006	8.405	7.537	6.911	6.449	6.063	5.274	4.986	4.917	4.456	3.916	4.102	3.695	3.375	3.365	2.961	2.697	2.494	2.302	2.290	2.213	2.259	2.411	2.736	2.222	1.689	1.619	1.549	1.580	1.566	1.622	1.669	1.766	1.582	1.388	1.445	1.395	1.581	1.751	3.886	16.29	55.81	124.4	375.3	284.1
600.0	31.95	33.51	40.83	47.20	44.38	34.89	47.68	63.60	83.99	120.8	178.7	140.0	112.4	96.13	293.1	2572	1533	47.78	15.80	13.65	11.91	11.29	11.34	10.78	10.02	9.631	9.722	9.224	9.270	9.006	8.784	8.295	7.520	6.842	6.321	5.992	5.456	5.094	4.645	4.377	4.155	3.753	3.193	3.389	3.134	3.064	2.782	2.403	2.279	2.261	2.025	2.027	1.936	1.927	1.961	2.441	2.070	1.845	1.502	1.486	1.486	1.429	1.407	1.494	1.467	1.622	1.331	1.442	1.182	1.299	1.198	1.557	4.368	13.09	28.55	124.2	393.1
605.0	28.75	30.16	39.55	43.05	39.81	33.13	42.23	55.72	78.86	108.7	164.0	149.0	107.9	73.61	94.73	1089	2192	233.8	14.73	12.29	11.05	9.871	9.735	8.912	8.851	8.804	8.239	8.173	7.839	7.867	7.482	7.100	6.528	5.887	5.598	5.234	4.943	4.353	3.807	3.733	3.541	3.393	2.796	2.801	2.916	2.543	2.276	2.238	2.088	1.894	1.763	1.767	1.570	1.631	1.605	1.911	1.903	1.674	1.431	1.267	1.257	1.408	1.311	1.316	1.251	1.511	1.394	1.477	1.196	1.168	1.156	1.048	1.641	3.538	7.001	28.81	150.1
610.0	30.20	28.19	36.76	41.35	37.02	33.74	40.72	53.63	71.47	99.58	136.8	160.0	108.3	66.67	47.74	295.4	1480	980.3	40.37	10.98	9.619	9.183	8.258	7.660	7.487	7.029	7.074	6.846	6.409	6.478	6.393	5.877	5.328	4.935	4.564	4.185	4.009	3.736	3.299	3.046	2.810	2.644	2.388	2.561	2.362	2.112	2.084	1.947	1.657	1.644	1.571	1.506	1.367	1.341	1.288	1.392	1.625	1.682	1.465	1.193	1.211	1.251	1.095	1.161	1.089	1.199	1.370	1.380	1.183	1.004	0.948	0.867	1.003	1.306	2.067	6.930	34.71
615.0	26.07	26.64	32.46	35.50	32.83	32.51	36.49	46.57	68.01	92.15	114.8	147.3	109.9	61.55	35.54	83.80	467.1	1457	346.7	10.53	8.757	7.409	7.378	6.481	6.037	5.828	5.751	5.589	5.725	5.419	5.037	4.884	4.085	4.010	3.710	3.233	3.199	2.856	2.724	2.527	2.435	2.228	2.103	2.070	1.989	1.745	1.700	1.550	1.413	1.337	1.307	1.313	1.209	1.119	0.981	1.122	1.272	1.352	1.336	1.220	1.062	1.017	0.985	1.078	1.071	1.210	1.101	1.224	1.230	0.905	0.878	0.815	0.690	0.687	0.893	1.958	8.201
620.0	28.67	23.82	32.28	36.37	28.63	30.63	32.62	44.44	60.54	82.43	104.3	128.8	114.4	58.72	31.83	34.67	128.3	1053	892.5	21.40	8.614	6.965	6.645	5.966	5.552	5.034	4.940	5.195	5.135	4.974	4.313	4.301	3.771	3.592	3.203	3.063	2.861	2.462	2.435	2.145	2.050	1.880	1.791	1.906	1.693	1.502	1.392	1.370	1.177	1.236	1.083	1.138	1.052	0.987	0.892	0.890	0.974	1.056	1.371	1.096	0.976	0.991	1.006	1.011	1.068	1.044	1.079	1.116	1.031	0.977	0.819	0.730	0.616	0.690	0.586	0.772	2.241
625.0	28.84	26.06	31.63	33.73	27.26	27.70	32.50	43.31	56.90	76.23	95.47	107.0	117.0	60.57	31.00	23.55	41.79	471.5	1296	70.17	8.288	6.658	5.972	5.236	4.938	4.541	4.419	4.581	4.504	4.485	3.978	3.780	3.368	3.032	2.707	2.849	2.313	2.254	2.086	1.937	1.728	1.670	1.632	1.540	1.446	1.286	1.198	1.100	1.226	1.056	0.931	0.970	0.995	0.759	0.762	0.838	0.866	0.870	1.195	1.108	1.073	0.965	0.838	0.991	0.940	0.890	0.998	0.959	0.923	1.000	0.760	0.736	0.660	0.567	0.508	0.617	0.876
630.0	27.48	23.34	26.82	32.23	26.56	24.23	30.65	40.08	52.29	68.46	88.40	94.09	102.0	65.49	30.22	21.11	21.45	132.6	920.3	531.6	19.41	5.998	5.787	4.766	4.483	4.065	4.093	3.930	3.694	3.676	3.415	3.156	2.850	2.524	2.264	2.306	1.927	1.874	1.762	1.669	1.520	1.371	1.392	1.309	1.233	1.159	0.994	1.067	0.950	0.995	0.836	0.837	0.843	0.779	0.716	0.747	0.787	0.749	0.826	0.956	0.963	0.960	0.849	0.819	0.823	0.859	0.814	0.867	0.829	0.871	0.923	0.728	0.657	0.593	0.513	0.497	0.578
635.0	25.18	21.18	24.46	28.45	24.42	23.87	28.87	37.00	47.54	65.84	78.19	81.74	83.01	71.24	31.50	20.32	16.61	39.63	300.6	837.6	70.24	6.397	5.276	4.488	4.026	3.567	3.656	3.538	3.263	3.153	3.138	2.866	2.476	2.114	2.168	1.940	1.739	1.529	1.528	1.386	1.265	1.277	1.251	1.073	0.980	0.973	0.958	0.812	0.774	0.778	0.639	0.792	0.708	0.733	0.678	0.700	0.652	0.658	0.612	0.803	0.866	0.863	0.913	0.794	0.788	0.811	0.852	0.771	0.813	0.779	0.833	0.873	0.625	0.527	0.476	0.482	0.499
640.0	23.16	20.93	24.37	26.40	22.71	22.08	27.96	36.69	46.11	60.03	74.07	76.30	73.23	70.25	37.53	20.66	15.50	18.19	83.58	638.5	441.2	9.528	4.932	4.143	3.829	3.264	3.197	3.066	3.151	2.692	2.868	2.509	2.223	1.914	1.953	1.676	1.580	1.391	1.230	1.241	1.129	1.179	1.051	0.927	0.932	0.892	0.835	0.768	0.679	0.712	0.578	0.741	0.619	0.644	0.634	0.700	0.638	0.548	0.636	0.644	0.809	0.751	0.767	0.716	0.714	0.717	0.706	0.719	0.734	0.757	0.624	0.734	0.644	0.554	0.449	0.525	0.459
645.0	22.14	17.94	19.59	23.38	20.13	21.45	25.36	33.81	42.68	58.36	70.40	71.54	68.62	63.47	43.86	22.19	15.70	13.80	26.92	309.6	738.1	46.24	4.727	3.870	3.697	3.349	3.277	3.017	2.663	2.615	2.447	2.309	2.071	1.852	1.542	1.475	1.420	1.279	1.116	1.133	1.006	1.008	0.952	0.961	0.862	0.893	0.717	0.810	0.713	0.644	0.605	0.626	0.554	0.558	0.529	0.609	0.556	0.652	0.614	0.631	0.778	0.750	0.797	0.680	0.634	0.712	0.758	0.710	0.628	0.641	0.621	0.620	0.619	0.612	0.514	0.498	0.458
650.0	20.51	23.53	21.62	23.46	17.57	21.18	24.85	34.37	41.73	57.65	66.06	69.58	63.05	55.95	48.54	24.07	16.27	12.53	13.44	103.2	726.1	218.4	5.104	4.059	3.470	2.959	2.817	2.536	2.543	2.418	2.163	2.024	1.899	1.770	1.622	1.420	1.338	1.112	1.074	1.123	0.915	0.955	0.822	0.842	0.828	0.742	0.769	0.762	0.630	0.506	0.564	0.531	0.527	0.535	0.576	0.528	0.583	0.544	0.656	0.555	0.680	0.678	0.754	0.683	0.648	0.608	0.642	0.595	0.707	0.696	0.608	0.520	0.614	0.647	0.563	0.374	0.445
