Sample:	'1
File name:	T2025051304ñã¼Ò´å±±ÇÅ.FD3
Run date:	'11:31:15, 05/16/2025
Operator:	Administrator
Comment:	'

Instrument
Model:	F-2700 FL Spectrophotometer
Serial number:	23B8-004
ROM Version:	4J14000 07

Instrument parameters
Measurement type:	3-D scan
Data mode:	Fluorescence
EX  Start WL:	220.0 nm
EX  End WL:	600.0 nm
EX Sampling interval:	5.0 nm
EM  Start WL:	230.0 nm
EM  End WL:	650.0 nm
EM Sampling interval:	5.0 nm
Scan speed:	12000 nm/min
EX Slit:	5.0 nm
EM Slit:	5.0 nm
PMT Voltage:	700 V
Response:	Auto 
Corrected spectra:	Off
Contour interval:	50.000

Peak integration
Integration method:	Rectangular
Sensitivity:	1
Threshold:	1.000

Peaks
No.	ApexEX/EM(nm)	Height(Data)
1	225.0/345.0	848.0
2	225.0/360.0	823.0
3	225.0/370.0	821.0
4	225.0/405.0	901.5
5	225.0/485.0	505.6
6	225.0/595.0	66.61
7	230.0/400.0	884.1
8	235.0/510.0	318.0
9	240.0/265.0	370.8
10	240.0/525.0	261.8
11	245.0/270.0	396.9
12	245.0/535.0	220.1
13	250.0/275.0	508.9
14	250.0/550.0	179.1
15	255.0/280.0	538.0
16	255.0/560.0	140.9
17	260.0/290.0	484.3
18	260.0/575.0	113.5
19	265.0/295.0	613.6
20	265.0/585.0	99.54
21	270.0/300.0	851.4
22	270.0/600.0	89.31
23	275.0/305.0	860.3
24	275.0/340.0	556.4
25	275.0/610.0	71.08
26	280.0/345.0	554.2
27	280.0/625.0	60.09
28	285.0/320.0	750.7
29	285.0/635.0	43.18
30	290.0/325.0	652.9
31	300.0/335.0	444.6
32	305.0/345.0	420.3
33	310.0/350.0	363.7
34	315.0/355.0	363.6
35	320.0/365.0	371.0
36	325.0/370.0	356.6
37	330.0/375.0	363.0
38	335.0/385.0	356.6
39	440.0/520.0	26.84
40	495.0/270.0	2.157
41	505.0/275.0	2.854
42	510.0/280.0	3.317
43	520.0/285.0	3.353
44	525.0/290.0	3.224
45	540.0/295.0	4.077
46	545.0/300.0	4.702
47	550.0/305.0	5.071
48	560.0/310.0	4.225
49	570.0/315.0	4.493
50	580.0/320.0	4.616
51	585.0/325.0	4.146

Data points
	220.0	225.0	230.0	235.0	240.0	245.0	250.0	255.0	260.0	265.0	270.0	275.0	280.0	285.0	290.0	295.0	300.0	305.0	310.0	315.0	320.0	325.0	330.0	335.0	340.0	345.0	350.0	355.0	360.0	365.0	370.0	375.0	380.0	385.0	390.0	395.0	400.0	405.0	410.0	415.0	420.0	425.0	430.0	435.0	440.0	445.0	450.0	455.0	460.0	465.0	470.0	475.0	480.0	485.0	490.0	495.0	500.0	505.0	510.0	515.0	520.0	525.0	530.0	535.0	540.0	545.0	550.0	555.0	560.0	565.0	570.0	575.0	580.0	585.0	590.0	595.0	600.0
230.0	78.77	1034	2893	846.4	42.43	7.626	5.624	5.189	4.367	4.030	3.193	3.143	2.567	2.394	1.918	1.518	1.508	1.247	1.180	1.098	0.955	0.938	0.875	0.788	0.760	0.675	0.690	0.635	0.675	0.649	0.596	0.569	0.524	0.522	0.469	0.479	0.478	0.468	0.475	0.462	0.540	0.795	0.913	0.547	0.378	0.397	1.110	5.059	8.755	6.644	2.653	0.641	0.331	0.310	0.240	0.267	0.285	0.300	0.282	0.259	0.285	0.291	0.265	0.286	0.276	0.285	0.274	0.278	0.285	0.289	0.311	0.301	0.299	0.280	0.328	0.281	0.287
235.0	196.3	297.0	1524	2470	573.2	59.61	6.990	5.756	4.543	3.853	3.891	3.605	2.943	2.213	2.046	1.678	1.426	1.205	1.242	1.378	1.028	1.021	0.904	0.929	0.768	0.834	0.695	0.666	0.700	0.716	0.580	0.563	0.513	0.516	0.449	0.435	0.515	0.456	0.386	0.415	0.470	0.515	0.638	0.760	0.783	0.492	0.542	1.405	3.038	5.365	7.879	8.905	4.089	1.073	0.271	0.354	0.268	0.273	0.259	0.271	0.261	0.256	0.327	0.262	0.308	0.322	0.289	0.271	0.284	0.325	0.311	0.314	0.315	0.257	0.275	0.313	0.272
240.0	229.7	202.7	440.2	1870	2523	453.2	28.73	7.422	4.864	4.716	3.889	3.281	3.612	2.385	2.001	1.715	1.600	1.266	1.026	1.120	1.142	1.023	0.869	0.978	0.780	0.749	0.765	0.622	0.713	0.725	0.622	0.615	0.487	0.444	0.504	0.457	0.434	0.477	0.421	0.427	0.436	0.436	0.465	0.596	0.818	0.905	0.625	0.576	0.952	1.663	3.919	9.301	12.03	8.799	3.105	0.739	0.374	0.269	0.281	0.301	0.310	0.262	0.306	0.293	0.316	0.294	0.249	0.310	0.265	0.290	0.317	0.311	0.290	0.294	0.282	0.329	0.377
245.0	149.7	274.7	182.1	616.0	2450	2524	329.7	12.04	5.570	5.133	4.093	3.915	2.961	2.852	2.118	1.819	1.576	1.396	1.285	1.101	1.307	0.862	0.837	0.817	0.848	0.839	0.699	0.751	0.664	0.752	0.641	0.554	0.525	0.570	0.472	0.432	0.429	0.486	0.422	0.388	0.423	0.400	0.422	0.490	0.539	0.852	1.009	0.931	0.701	0.592	1.101	3.020	7.550	13.41	13.37	7.912	2.133	0.451	0.316	0.334	0.377	0.257	0.265	0.280	0.298	0.286	0.276	0.306	0.274	0.280	0.283	0.321	0.279	0.291	0.307	0.329	0.341
250.0	69.48	172.6	266.2	235.8	757.1	2280	2982	1076	63.39	6.362	4.889	4.232	3.148	3.204	2.088	2.135	1.815	1.581	1.308	1.196	1.187	1.008	0.957	0.844	0.904	0.816	0.791	0.788	0.667	0.688	0.609	0.530	0.557	0.537	0.481	0.463	0.418	0.448	0.425	0.406	0.465	0.490	0.426	0.396	0.440	0.489	0.618	0.953	1.001	0.852	0.715	0.999	2.017	4.216	7.752	12.06	15.17	13.92	8.060	2.447	0.524	0.314	0.276	0.324	0.272	0.260	0.280	0.293	0.289	0.295	0.311	0.310	0.319	0.302	0.317	0.326	0.302
255.0	50.62	59.14	177.5	313.2	268.0	580.8	2190	4516	1443	53.58	6.132	5.580	4.175	3.293	2.486	2.126	1.924	1.532	1.491	1.258	1.260	1.088	0.962	0.862	0.876	0.787	0.673	0.776	0.681	0.723	0.782	0.630	0.563	0.475	0.499	0.546	0.499	0.489	0.470	0.417	0.434	0.481	0.510	0.477	0.407	0.416	0.408	0.486	0.605	0.869	1.296	1.383	0.998	1.251	2.054	3.145	5.390	12.99	23.74	24.47	11.92	2.552	0.451	0.363	0.342	0.291	0.311	0.303	0.284	0.293	0.273	0.300	0.339	0.332	0.309	0.299	0.291
260.0	36.31	32.10	74.59	268.3	310.5	193.7	676.5	3645	4959	267.3	24.50	6.469	5.186	3.460	3.093	2.384	2.101	1.628	1.597	1.331	1.200	1.138	1.083	0.845	0.923	0.849	0.831	0.795	0.717	0.752	0.688	0.600	0.674	0.414	0.484	0.538	0.473	0.523	0.461	0.396	0.432	0.509	0.536	0.482	0.458	0.415	0.330	0.391	0.388	0.520	0.829	1.571	1.682	1.056	0.797	1.039	1.610	3.675	10.38	22.22	30.78	23.16	9.226	1.338	0.395	0.355	0.361	0.329	0.300	0.287	0.273	0.294	0.339	0.298	0.298	0.309	0.313
265.0	32.77	32.16	37.01	128.2	370.8	248.4	205.3	1236	5224	4816	208.7	12.02	6.343	4.694	3.431	2.494	2.265	1.754	1.636	1.448	1.380	1.208	1.029	0.996	0.973	0.842	0.847	0.807	0.764	0.755	0.689	0.663	0.578	0.523	0.524	0.552	0.488	0.460	0.388	0.369	0.425	0.525	0.504	0.459	0.424	0.417	0.350	0.383	0.382	0.349	0.410	0.912	1.587	1.919	1.251	0.866	0.822	1.217	2.721	6.760	15.80	30.23	32.55	20.77	5.427	0.738	0.461	0.298	0.302	0.350	0.402	0.340	0.379	0.304	0.274	0.355	0.352
270.0	47.25	37.85	31.54	56.31	198.1	396.9	285.8	343.8	1698	5009	5946	788.9	39.90	7.346	4.855	3.352	2.651	2.267	1.933	1.555	1.457	1.205	1.195	1.097	0.960	0.903	0.892	0.892	0.764	0.759	0.800	0.734	0.689	0.644	0.553	0.522	0.542	0.536	0.413	0.456	0.495	0.492	0.491	0.492	0.489	0.449	0.404	0.400	0.336	0.351	0.359	0.521	0.764	1.245	1.741	2.157	1.799	1.152	1.135	1.954	4.008	8.950	16.72	27.44	30.31	29.90	14.59	4.941	0.696	0.361	0.340	0.341	0.360	0.342	0.329	0.397	0.379
275.0	80.11	58.34	48.02	48.53	93.21	226.0	508.9	317.4	425.4	1277	4707	8573	1045	28.51	7.300	4.471	3.366	2.426	2.271	1.823	1.853	1.257	1.152	1.194	1.118	0.856	1.042	0.884	0.863	0.960	0.782	0.736	0.788	0.691	0.726	0.596	0.645	0.618	0.562	0.547	0.518	0.464	0.480	0.512	0.549	0.475	0.513	0.442	0.384	0.356	0.417	0.474	0.505	0.722	0.860	1.320	2.257	2.854	2.160	1.297	1.304	2.437	4.114	6.634	9.284	21.51	42.72	33.15	22.12	5.003	0.483	0.388	0.370	0.336	0.321	0.375	0.386
280.0	118.1	103.6	68.32	55.73	73.23	128.8	351.8	538.0	222.4	336.1	1430	7330	7814	144.5	14.12	5.977	4.211	2.887	2.426	1.867	1.543	1.567	1.498	1.231	1.223	0.964	0.911	0.919	0.844	0.963	0.772	0.717	0.709	0.805	0.779	0.745	0.840	0.724	0.728	0.544	0.579	0.565	0.587	0.628	0.570	0.630	0.630	0.533	0.476	0.445	0.429	0.399	0.475	0.571	0.696	0.827	1.252	2.163	3.317	2.741	1.474	1.066	1.378	1.988	2.552	5.753	15.59	32.08	51.62	32.34	16.56	2.175	0.522	0.469	0.402	0.386	0.396
285.0	173.0	147.5	109.8	65.83	71.55	97.38	180.6	494.0	342.0	165.5	395.1	2423	8924	5982	104.8	8.618	5.008	3.560	2.880	2.255	1.899	1.715	1.681	1.291	1.235	1.166	0.987	0.906	0.874	0.903	0.875	0.742	0.824	0.831	0.881	0.787	1.009	0.740	0.745	0.559	0.738	0.682	0.756	0.656	0.571	0.754	0.620	0.685	0.586	0.574	0.455	0.488	0.539	0.588	0.600	0.689	0.759	1.179	1.959	2.952	3.353	2.065	0.893	0.927	1.169	1.891	4.102	8.896	21.70	41.87	55.99	28.09	10.72	0.984	0.501	0.433	0.379
290.0	281.9	257.4	179.3	110.2	83.92	96.33	120.3	237.4	484.3	442.0	238.5	670.6	2813	6720	6190	425.0	21.32	5.430	3.812	2.862	2.087	1.926	1.806	1.417	1.357	1.246	1.087	1.120	0.930	1.029	0.914	0.865	0.844	0.933	0.973	1.067	1.098	1.044	0.969	0.869	0.860	0.746	0.819	0.795	0.910	0.948	0.759	0.890	0.804	0.692	0.579	0.599	0.637	0.660	0.664	0.650	0.706	0.843	1.052	1.454	2.129	3.224	3.047	2.275	1.573	1.262	1.772	2.744	5.669	11.28	21.81	32.26	42.34	38.18	18.60	8.020	1.183
295.0	394.7	336.6	258.6	163.2	112.2	111.9	119.8	152.4	261.3	613.6	583.7	341.9	784.9	1732	4983	6502	579.9	15.39	5.214	3.602	2.888	2.257	1.807	1.669	1.317	1.303	1.494	1.134	1.073	1.062	0.928	0.944	0.883	0.966	1.111	1.260	1.380	1.301	1.322	1.126	1.022	0.953	1.048	1.111	1.126	1.230	1.095	1.137	0.895	0.796	0.720	0.758	0.724	0.685	0.695	0.818	0.746	0.779	0.912	1.028	1.170	1.638	2.186	3.452	4.077	2.676	1.718	1.682	2.354	3.516	5.774	8.142	11.14	19.69	40.22	55.82	28.84
300.0	470.9	415.4	321.9	202.1	138.2	129.7	137.5	162.4	206.6	421.2	851.4	496.0	387.9	524.8	1481	6415	5380	83.17	9.556	4.952	3.405	2.566	2.270	1.803	1.564	1.458	1.384	1.230	1.048	1.059	0.928	0.886	0.997	1.213	1.251	1.233	1.542	1.383	1.327	1.203	1.136	1.095	1.132	1.117	1.143	1.298	1.200	1.251	1.178	1.035	0.836	0.846	0.744	0.768	0.823	0.887	0.855	0.923	0.982	1.014	1.122	1.271	1.541	2.335	3.505	4.702	3.735	2.182	1.978	2.173	2.387	2.738	3.340	5.179	12.36	30.98	52.35
305.0	495.2	486.9	383.2	235.9	170.5	148.0	172.9	192.4	235.0	338.3	705.4	860.3	412.4	306.4	448.5	2116	7304	4108	61.92	6.557	4.514	3.239	2.398	2.172	1.630	1.501	1.478	1.232	1.217	1.103	1.022	0.870	0.976	1.068	1.208	1.376	1.778	1.583	1.468	1.289	1.241	1.299	1.220	1.237	1.341	1.460	1.331	1.324	1.179	1.058	1.041	0.948	0.862	0.914	0.761	0.881	0.892	0.907	1.063	1.200	1.304	1.439	1.581	1.899	2.357	3.662	5.071	4.433	2.764	1.981	1.909	1.787	1.775	2.011	3.505	8.146	18.38
310.0	535.3	508.6	412.7	267.9	185.9	168.2	192.1	215.9	270.4	341.4	501.4	784.3	763.5	374.9	253.4	565.2	2302	5256	4682	287.7	14.70	4.693	3.256	2.518	2.157	1.631	1.506	1.424	1.340	1.070	1.167	0.954	1.049	1.090	1.236	1.359	1.693	1.638	1.622	1.366	1.311	1.383	1.297	1.348	1.441	1.367	1.353	1.469	1.292	1.120	0.994	0.996	1.025	0.958	0.890	0.932	1.068	1.176	1.282	1.321	1.395	1.430	1.730	1.869	2.224	2.582	3.071	3.852	4.225	3.840	3.032	2.124	1.645	1.611	1.763	2.626	4.826
315.0	577.9	560.6	441.9	292.1	205.9	191.2	212.0	246.0	292.9	369.1	458.4	563.8	735.2	694.8	283.3	235.0	585.2	1305	3981	4483	420.9	10.97	4.502	3.428	2.522	1.918	1.645	1.640	1.466	1.277	1.109	1.069	1.068	1.205	1.324	1.408	1.712	1.506	1.583	1.402	1.396	1.437	1.341	1.474	1.529	1.578	1.339	1.508	1.511	1.170	1.083	1.061	1.166	1.111	1.051	1.014	1.135	1.288	1.343	1.401	1.448	1.556	1.819	2.097	2.124	2.328	2.581	2.762	2.956	3.484	4.493	4.157	2.813	1.731	1.439	1.471	1.832
320.0	601.2	599.0	492.6	319.3	222.6	204.3	230.8	264.4	311.5	388.1	463.0	515.7	576.7	750.7	476.3	194.9	218.8	345.5	1142	4865	3957	61.88	7.303	3.886	3.030	2.222	1.816	1.648	1.461	1.438	1.182	1.166	1.140	1.196	1.267	1.321	1.688	1.619	1.635	1.529	1.503	1.451	1.305	1.540	1.509	1.662	1.470	1.667	1.657	1.257	1.147	1.160	1.180	1.068	1.107	1.045	1.157	1.316	1.399	1.503	1.590	1.602	1.659	1.976	2.258	2.414	2.458	2.637	2.821	2.900	3.143	4.224	4.616	2.848	1.845	1.389	1.320
325.0	663.9	651.8	564.7	355.9	250.8	224.3	241.3	278.9	335.6	404.1	481.1	523.0	523.0	593.8	652.9	283.2	156.4	143.2	299.5	1611	5568	3138	48.31	5.259	3.561	2.801	2.262	1.874	1.471	1.496	1.347	1.300	1.129	1.129	1.289	1.333	1.419	1.565	1.310	1.506	1.342	1.560	1.567	1.404	1.432	1.775	1.756	1.765	1.768	1.423	1.230	1.147	1.162	1.069	1.085	1.033	1.283	1.373	1.518	1.492	1.688	1.777	1.696	2.107	2.431	2.431	2.373	2.506	2.685	2.518	2.610	3.074	3.742	4.146	3.225	2.052	1.310
330.0	704.6	728.0	645.2	445.8	299.4	256.9	264.4	298.6	351.0	421.5	491.3	535.2	524.5	490.7	522.3	482.4	247.1	123.3	126.6	403.7	1769	4098	3766	234.5	12.36	3.896	2.846	2.289	1.839	1.684	1.430	1.299	1.163	1.258	1.311	1.469	1.518	1.491	1.453	1.505	1.464	1.485	1.595	1.529	1.604	1.892	1.805	2.073	1.922	1.627	1.461	1.419	1.421	1.243	1.177	1.297	1.349	1.416	1.529	1.594	1.709	1.857	1.918	2.232	2.438	2.566	2.555	2.689	2.673	2.580	2.654	2.586	2.799	3.025	3.263	3.339	2.790
335.0	747.4	815.1	714.3	524.6	349.1	300.6	294.9	328.2	372.9	443.0	500.0	549.0	539.3	485.5	421.9	418.6	444.6	202.5	112.6	149.4	434.8	1022	3344	3634	353.0	10.60	4.015	2.946	2.329	2.079	1.610	1.458	1.180	1.282	1.340	1.395	1.380	1.751	1.456	1.456	1.447	1.441	1.493	1.753	1.801	1.833	2.061	2.188	2.082	1.803	1.700	1.703	1.562	1.378	1.446	1.366	1.608	1.504	1.704	1.753	1.744	1.902	2.072	2.293	2.435	2.692	2.684	2.673	2.680	2.681	2.554	2.561	2.656	2.610	2.456	2.688	3.071
340.0	738.4	828.7	765.4	562.3	398.1	334.7	320.3	352.0	393.8	442.6	511.7	556.4	547.0	490.0	416.3	352.0	432.6	350.3	147.0	103.3	151.6	268.1	969.3	4129	3330	53.79	6.158	3.400	2.543	2.254	1.777	1.493	1.409	1.256	1.434	1.454	1.438	1.722	1.558	1.573	1.528	1.470	1.558	1.664	1.686	1.976	2.084	2.328	2.287	1.905	1.850	1.992	1.540	1.627	1.604	1.629	1.638	1.722	1.774	1.622	1.740	2.029	1.973	2.325	2.203	2.596	2.523	2.815	2.577	2.732	2.757	2.632	2.745	2.607	2.311	2.374	2.410
345.0	805.6	848.0	780.3	599.0	436.6	362.6	355.4	362.9	410.5	454.7	517.0	550.8	554.2	497.3	427.3	341.0	340.9	420.3	252.8	122.8	98.85	113.0	256.2	1369	4719	2773	44.47	4.568	3.069	2.292	1.806	1.602	1.488	1.339	1.444	1.217	1.451	1.452	1.503	1.572	1.581	1.559	1.534	1.699	1.663	2.062	2.036	2.386	2.342	2.006	1.806	2.056	1.739	1.670	1.579	1.651	1.847	1.740	1.858	1.799	1.775	2.007	2.133	2.233	2.326	2.539	2.764	2.834	2.844	2.663	2.724	2.677	2.539	2.615	2.292	2.439	2.278
350.0	753.5	826.7	785.3	627.0	499.8	412.7	395.9	392.1	419.1	466.9	514.7	545.0	547.9	506.8	441.4	366.3	318.1	338.6	363.7	235.2	132.1	105.0	116.9	350.8	1489	3376	3210	213.6	12.72	3.233	2.308	1.908	1.473	1.363	1.492	1.426	1.473	1.491	1.501	1.495	1.460	1.597	1.588	1.672	1.730	2.038	2.052	2.290	2.259	1.941	1.842	2.169	1.908	1.867	1.794	1.864	1.836	1.791	2.024	1.963	1.931	2.098	2.161	2.378	2.384	2.479	2.581	2.722	2.709	2.819	2.699	2.724	2.607	2.730	2.378	2.409	2.193
355.0	778.6	819.0	779.2	634.6	551.1	465.4	445.1	436.8	452.0	486.9	524.1	538.4	548.6	520.4	461.5	392.2	344.0	312.0	316.2	363.6	231.1	138.7	114.6	143.9	376.0	836.1	2585	4051	345.3	11.65	3.236	2.304	2.009	1.494	1.436	1.349	1.451	1.567	1.561	1.543	1.463	1.588	1.551	1.692	1.806	1.887	1.982	2.322	2.278	2.076	1.921	2.297	2.065	2.167	1.823	1.977	1.892	2.017	2.162	2.177	2.006	2.260	2.322	2.435	2.517	2.656	2.683	2.606	2.676	2.688	2.843	2.587	2.683	2.655	2.618	2.457	2.463
360.0	781.3	823.0	778.8	665.6	582.9	505.6	480.3	464.0	475.6	505.0	531.1	545.0	547.6	522.5	478.4	415.3	370.3	329.0	301.8	345.0	342.9	196.8	138.1	115.8	137.7	228.8	729.7	3386	3111	52.48	6.381	3.240	2.225	1.794	1.618	1.620	1.415	1.619	1.626	1.655	1.403	1.543	1.630	1.548	1.767	2.008	2.005	2.341	2.193	2.073	1.895	2.381	2.128	2.262	2.085	2.081	2.218	2.252	2.246	2.235	2.171	2.579	2.394	2.576	2.416	2.515	2.875	2.715	2.806	2.779	2.750	2.726	2.740	2.493	2.552	2.689	2.598
365.0	789.1	806.3	762.1	685.7	621.7	558.8	522.8	500.2	504.9	517.7	539.0	560.8	550.2	526.3	493.2	434.8	398.4	356.2	323.7	316.6	371.0	297.2	175.9	130.5	110.1	107.7	203.0	1053	3850	2720	45.01	4.888	2.786	2.066	1.786	1.524	1.416	1.585	1.531	1.576	1.553	1.459	1.649	1.758	1.650	1.799	2.153	2.382	2.135	2.026	1.977	2.412	2.409	2.318	2.332	2.161	2.312	2.486	2.413	2.564	2.473	2.457	2.377	2.493	2.616	2.744	2.774	2.851	2.866	2.818	3.005	2.744	2.846	2.557	2.677	2.669	2.874
370.0	757.1	821.0	771.2	709.5	655.8	593.7	574.5	536.9	546.4	543.9	562.2	572.0	564.6	536.7	504.7	465.8	428.5	395.5	363.0	335.6	335.1	356.6	287.0	179.1	133.5	106.8	103.6	278.1	1167	2921	3009	757.3	13.58	3.110	2.179	1.826	1.630	1.577	1.623	1.502	1.637	1.547	1.667	1.779	1.698	1.923	2.076	2.175	2.169	1.993	2.012	2.379	2.422	2.338	2.516	2.379	2.449	2.638	2.459	2.593	2.410	2.553	2.594	2.611	2.724	2.733	2.688	2.793	2.755	2.701	2.890	2.927	3.056	2.860	2.693	2.979	2.958
375.0	753.8	812.0	790.8	750.1	690.3	639.3	619.7	588.6	582.2	571.6	577.8	585.5	572.7	549.4	518.1	487.9	456.5	432.4	400.1	368.7	341.3	332.7	363.0	283.4	176.9	133.9	106.0	123.3	302.9	715.2	2165	3768	324.7	13.98	3.059	2.221	1.988	1.805	1.727	1.564	1.608	1.710	1.680	1.740	1.999	1.994	1.975	2.293	2.127	2.128	2.223	2.546	2.527	2.580	2.592	2.569	2.831	2.728	2.600	2.926	2.711	2.533	2.636	2.629	2.584	2.666	2.716	2.931	2.580	2.863	2.905	3.135	2.962	2.916	2.933	2.765	3.214
380.0	796.4	835.9	771.6	754.8	705.4	674.5	640.4	626.8	610.6	594.0	598.3	598.4	580.0	564.5	528.3	500.7	474.5	451.4	426.2	394.5	363.6	335.2	343.0	356.2	233.4	160.8	124.8	104.4	124.6	199.1	597.0	2801	2742	260.0	6.806	2.969	2.224	2.059	1.755	1.560	1.692	1.690	1.763	1.862	1.956	1.967	2.121	2.406	2.125	2.104	2.333	2.504	2.707	2.726	2.728	2.512	2.908	2.817	2.778	2.887	2.970	2.744	2.719	2.739	2.672	2.752	2.627	2.707	2.921	2.885	2.720	3.030	2.913	2.979	2.945	3.016	3.094
385.0	818.8	835.7	830.9	767.8	747.3	712.9	672.8	650.7	632.1	621.3	619.4	607.3	588.3	563.8	540.0	510.6	485.2	466.8	443.0	415.8	383.6	354.0	331.2	356.6	309.4	202.8	147.8	114.9	99.75	95.79	169.7	824.6	2930	2386	39.24	4.387	2.694	2.226	1.958	1.923	1.808	1.837	1.822	1.917	2.023	2.227	2.100	2.450	2.388	2.054	2.272	2.711	2.780	2.899	2.650	2.612	2.956	2.986	2.685	2.823	2.873	2.798	2.892	2.803	2.819	3.051	2.646	2.757	2.810	3.110	2.936	3.128	2.961	3.090	2.958	3.067	3.165
390.0	831.5	869.2	836.9	796.6	760.4	732.4	709.9	689.2	659.9	640.7	635.5	616.7	596.3	577.7	543.1	521.2	499.0	485.9	465.2	434.7	407.8	378.8	348.6	334.3	336.7	288.8	199.6	147.5	118.7	95.33	89.41	220.1	838.0	2111	2290	675.5	13.85	2.889	2.299	2.201	1.998	1.870	1.863	2.077	2.050	2.079	2.199	2.398	2.295	2.115	2.256	2.629	2.762	2.855	2.833	2.736	3.100	3.097	2.851	3.127	3.071	2.946	3.048	2.941	2.820	2.983	2.802	2.935	2.742	3.113	3.059	3.125	3.202	3.248	3.080	3.085	3.229
395.0	833.2	865.5	858.6	817.0	790.5	763.2	733.1	707.7	691.5	663.4	643.9	633.4	612.0	585.5	552.0	528.0	508.3	497.7	476.8	450.9	428.9	400.3	370.1	345.5	319.8	326.2	282.8	192.6	149.8	118.1	92.75	99.51	220.6	506.5	1366	2805	284.9	16.11	3.140	2.346	2.381	2.065	1.919	2.011	2.070	2.095	2.255	2.655	2.331	2.246	2.416	2.615	2.865	3.096	3.028	2.905	3.127	3.259	3.017	3.223	3.293	3.067	3.212	3.222	2.926	3.015	3.092	3.032	2.963	3.130	3.122	3.081	3.188	3.359	3.212	3.209	3.261
400.0	825.6	873.4	884.1	826.9	783.8	782.8	739.7	719.1	708.1	682.4	661.0	637.7	616.8	589.8	553.9	528.0	509.9	498.0	478.4	460.0	437.1	410.7	385.3	357.7	325.0	314.5	323.8	246.8	178.1	138.5	105.8	85.72	91.13	142.0	359.3	1780	2314	245.9	9.168	3.091	2.437	2.414	2.202	2.065	2.027	2.354	2.253	2.432	2.366	2.294	2.305	2.867	2.906	3.113	2.918	2.916	3.190	3.105	3.122	3.286	3.212	3.244	3.400	3.235	3.218	3.147	2.972	3.180	2.892	3.006	3.028	3.091	3.004	3.210	3.239	3.457	3.407
405.0	879.5	901.5	867.7	832.4	807.4	793.7	772.7	740.2	723.4	706.8	674.5	642.3	620.4	583.7	553.1	525.4	509.2	496.8	481.8	462.7	440.4	418.6	393.5	367.0	338.7	311.9	313.7	300.0	215.6	160.5	125.1	94.20	72.89	68.59	104.7	486.7	1949	2066	190.0	5.159	2.729	2.459	2.227	2.122	2.239	2.201	2.257	2.415	2.368	2.167	2.193	3.000	2.855	3.076	3.011	3.263	3.420	3.249	3.233	3.473	3.266	3.248	3.368	3.314	3.182	3.285	2.984	3.025	2.981	3.039	2.930	3.012	3.077	3.293	3.250	3.320	3.219
410.0	869.7	895.5	862.1	818.6	800.4	798.7	771.1	760.2	732.8	713.1	684.7	648.1	618.6	584.2	549.1	516.8	500.7	488.5	475.3	456.4	440.5	420.6	402.9	377.1	350.7	323.1	302.5	303.2	275.2	201.3	149.5	111.7	82.51	62.58	56.41	131.3	528.8	1493	1835	608.0	13.96	3.090	2.474	2.206	2.279	2.269	2.163	2.428	2.443	2.299	2.334	2.833	2.880	3.106	3.123	3.120	3.373	3.246	3.430	3.433	3.537	3.296	3.313	3.288	3.166	3.284	3.178	2.979	3.212	3.102	3.168	3.063	3.117	3.193	3.165	3.240	3.143
415.0	883.4	881.0	825.6	809.2	795.1	783.2	764.7	763.2	725.5	714.9	680.5	654.1	620.4	576.0	534.0	506.3	485.1	471.3	462.5	442.7	432.6	411.9	402.4	381.1	358.2	329.0	305.6	286.8	287.5	259.9	182.5	132.5	98.78	72.72	54.60	59.76	138.9	353.4	919.1	2078	265.3	17.03	3.403	2.560	2.377	2.429	2.215	2.673	2.470	2.239	2.387	2.954	2.858	2.924	2.841	2.971	3.163	3.422	3.352	3.236	3.487	3.229	3.249	3.281	3.246	3.318	3.343	2.826	3.080	3.139	3.093	3.057	3.027	3.126	3.127	3.107	3.269
420.0	862.4	880.0	844.4	804.9	793.7	783.1	772.1	758.7	738.7	722.0	685.0	646.4	605.9	562.7	525.4	490.4	468.8	458.2	447.5	434.1	422.0	408.1	395.1	378.9	361.3	333.1	311.2	284.0	272.3	278.6	216.8	148.2	111.0	82.39	61.08	48.56	56.10	96.79	233.9	1191	1903	237.0	10.54	2.843	2.704	2.544	2.236	2.606	2.475	2.173	2.322	2.773	2.841	2.920	2.989	2.964	3.134	3.267	3.318	3.386	3.295	3.174	3.367	3.406	3.316	3.234	3.269	2.954	3.066	2.967	3.193	3.064	2.897	3.133	3.084	3.010	3.149
425.0	873.3	854.0	807.2	795.1	787.0	772.5	775.2	751.9	736.7	721.6	688.2	644.6	594.4	552.5	510.8	475.4	452.8	445.7	433.2	419.1	411.4	400.1	389.2	372.3	359.5	333.7	311.3	288.5	267.0	264.6	245.4	174.1	122.2	90.99	68.55	52.40	42.47	43.68	67.56	315.8	1381	1693	187.8	4.945	2.873	2.670	2.387	2.629	2.581	2.162	2.292	2.851	2.825	2.940	2.994	3.015	3.258	3.235	3.224	3.425	3.622	3.248	3.237	3.457	3.270	3.276	3.270	3.147	3.151	3.068	2.856	3.053	3.083	3.048	3.074	2.837	3.140
430.0	1175	835.4	795.2	783.3	761.0	751.9	753.6	742.8	740.0	721.3	680.0	633.5	590.4	533.3	499.9	459.1	436.9	425.0	415.4	405.6	395.6	385.3	376.2	364.9	351.3	330.8	310.1	293.1	271.4	250.3	236.8	209.7	148.4	104.7	79.78	60.83	47.11	37.84	34.94	85.67	362.0	1092	1457	526.7	13.80	3.145	2.525	2.574	2.494	2.118	2.279	2.733	2.791	3.021	2.837	2.991	3.295	3.417	3.138	3.380	3.469	3.343	3.117	3.139	3.337	3.225	3.165	3.137	3.119	2.948	2.783	2.953	2.739	2.790	2.866	2.837	2.845
435.0	2003	842.9	777.9	759.5	743.4	741.0	753.4	746.9	733.2	715.2	679.9	628.1	577.4	527.6	482.7	445.7	421.1	409.8	396.8	388.3	377.6	370.8	362.0	354.9	340.9	327.5	312.7	289.3	273.0	250.8	223.4	208.1	181.7	126.4	92.01	71.85	55.78	42.99	33.59	38.81	95.18	257.8	689.8	1732	251.2	17.29	3.160	2.840	2.498	2.302	2.334	2.702	2.631	2.815	2.868	2.813	3.098	3.362	3.347	3.284	3.388	3.391	3.247	3.264	3.167	3.117	3.074	3.149	2.856	2.875	2.824	2.985	2.919	2.654	2.748	2.663	2.844
440.0	2635	1086	771.7	726.2	715.9	730.5	728.2	737.0	726.5	711.6	677.3	621.4	566.0	519.0	468.3	427.1	404.6	394.0	377.9	372.0	363.0	358.3	350.6	345.7	330.9	317.3	306.7	288.6	275.4	251.8	222.6	197.8	189.4	149.2	102.3	79.68	62.17	47.62	37.69	31.92	37.95	70.66	175.6	988.8	1675	224.3	9.517	3.192	2.768	2.278	2.458	2.629	2.685	2.882	2.905	2.867	3.126	3.235	3.296	3.223	3.328	3.075	3.425	3.180	2.988	2.920	2.961	3.020	2.824	2.951	2.807	2.711	2.882	2.721	2.779	2.627	2.835
445.0	2571	1603	741.9	711.0	692.6	716.8	707.3	722.8	708.1	698.8	662.0	607.7	554.1	503.4	450.5	412.1	388.5	375.2	365.4	360.1	347.0	341.0	338.6	333.3	323.9	310.0	298.4	283.7	271.6	250.9	222.8	193.9	178.3	163.0	118.2	84.70	68.13	52.24	42.12	32.50	28.37	31.06	50.85	263.5	1222	1520	160.5	5.427	2.770	2.359	2.427	2.575	2.650	2.870	2.923	2.794	2.980	3.098	3.252	3.379	3.342	3.159	3.194	3.277	3.049	3.046	2.995	3.007	2.757	2.890	2.863	2.631	2.754	2.712	2.520	2.658	2.681
450.0	1600	2434	1001	671.4	657.5	680.5	672.2	680.8	682.3	672.7	637.3	586.5	531.9	479.1	429.3	388.2	366.3	354.5	340.7	333.1	324.8	317.9	316.1	311.1	303.7	294.7	282.9	271.3	260.6	243.6	220.0	191.0	165.5	152.8	134.6	100.5	75.27	58.61	47.56	37.46	30.28	25.18	25.58	69.73	320.4	976.1	1293	454.0	11.60	2.703	2.482	2.741	2.576	2.661	2.593	2.614	2.885	3.078	3.100	3.098	3.148	3.100	3.042	3.186	3.073	2.928	2.976	2.789	2.633	2.660	2.686	2.480	2.560	2.634	2.549	2.521	2.448
455.0	856.7	2155	1871	652.3	610.8	628.4	637.6	636.6	649.3	637.4	601.5	560.1	502.3	451.8	397.0	362.6	336.7	325.8	313.5	301.3	297.0	293.5	291.4	283.9	281.7	275.2	263.9	258.1	248.2	233.1	211.3	187.5	160.1	140.6	132.1	116.8	85.09	64.28	51.70	41.74	33.62	26.62	22.82	28.69	81.69	228.4	571.4	1405	205.2	13.33	2.784	2.678	2.424	2.574	2.672	2.596	2.610	2.955	2.913	2.987	2.896	3.007	3.008	3.060	2.980	2.896	2.845	2.886	2.671	2.449	2.441	2.323	2.504	2.358	2.454	2.276	2.493
460.0	654.2	1399	2559	815.2	572.9	593.6	596.6	602.3	613.9	595.9	585.6	532.9	476.7	427.6	369.8	335.6	314.5	301.7	291.4	279.7	276.2	273.1	271.0	269.6	263.3	257.6	247.7	244.0	236.3	223.0	203.4	183.6	155.0	134.2	120.7	117.8	96.68	68.49	54.38	43.84	36.29	29.12	23.44	20.36	29.94	60.39	142.7	764.7	1280	168.9	8.151	2.845	2.573	2.431	2.548	2.592	2.613	2.818	2.785	2.872	2.834	2.770	2.817	2.746	2.824	2.807	2.711	2.641	2.636	2.374	2.339	2.257	2.391	2.244	2.345	2.207	2.264
465.0	584.9	832.8	2440	1280	548.7	549.8	569.7	572.7	579.2	568.8	547.0	504.7	450.0	402.2	356.6	319.2	298.0	282.5	273.3	260.9	256.8	253.3	251.2	254.2	245.9	241.7	232.9	229.1	224.3	209.4	194.6	175.0	150.3	130.5	113.3	109.3	101.7	76.86	56.52	46.42	38.01	31.34	25.57	20.55	19.52	23.54	40.13	200.9	935.6	1150	137.8	4.702	2.713	2.610	2.453	2.470	2.545	2.555	2.654	2.705	2.761	2.751	2.766	2.609	2.874	2.612	2.572	2.550	2.420	2.389	2.259	2.232	2.305	2.077	2.219	2.258	2.111
470.0	567.8	577.0	1461	2043	663.4	510.7	523.4	529.7	538.0	534.7	513.0	470.7	417.4	367.5	325.1	288.7	269.1	253.9	246.5	236.7	231.1	227.1	227.9	224.9	219.3	216.5	212.4	208.5	203.2	194.4	181.3	163.7	143.9	124.7	108.0	96.64	91.32	84.04	63.56	48.55	39.44	32.65	26.67	22.36	18.82	16.52	18.27	52.43	244.4	734.8	884.1	343.2	11.30	2.854	2.474	2.348	2.402	2.418	2.502	2.434	2.522	2.581	2.415	2.568	2.565	2.492	2.368	2.366	2.217	2.246	2.073	1.996	2.173	2.058	1.988	1.866	2.006
475.0	535.7	488.2	703.3	1858	1413	472.1	463.3	480.5	483.8	489.5	471.4	426.8	381.3	336.8	297.9	260.3	239.6	226.5	222.1	212.9	206.1	203.3	204.1	200.4	195.0	193.9	189.6	186.6	182.5	177.2	166.3	149.1	133.7	117.9	101.6	89.60	80.86	78.05	71.27	52.49	40.67	34.01	28.12	23.79	19.82	16.61	14.70	20.71	61.23	170.5	372.4	935.1	204.9	13.51	2.523	2.386	2.390	2.273	2.384	2.311	2.304	2.199	2.216	2.332	2.373	2.331	2.106	2.214	1.998	1.967	1.989	1.904	2.059	1.751	1.959	1.792	1.706
480.0	552.9	484.2	496.6	1226	2006	564.8	440.6	465.0	454.6	458.6	439.7	404.5	354.7	312.3	280.0	242.5	224.3	211.6	205.5	197.4	190.6	187.9	186.0	184.2	183.5	176.5	176.3	174.1	170.4	164.7	158.1	141.2	125.6	111.1	97.12	86.08	76.15	70.61	70.49	57.22	42.47	35.26	28.79	24.87	20.71	17.36	14.22	13.57	20.78	44.00	92.81	490.7	910.2	183.2	6.905	2.536	2.321	2.243	2.274	2.245	2.177	2.128	2.265	2.198	2.177	2.199	1.983	2.022	1.906	2.003	1.763	1.784	1.927	1.675	1.839	1.757	1.784
485.0	472.3	505.6	423.6	690.7	2059	982.9	419.7	436.5	432.1	436.1	419.4	381.8	337.1	295.7	263.3	232.2	212.8	200.6	188.7	184.0	177.0	174.4	173.9	173.3	168.5	164.9	165.8	163.2	160.4	156.5	150.4	134.7	121.2	104.9	94.09	83.20	74.09	65.59	63.35	61.52	46.72	35.65	29.75	25.33	21.23	18.47	15.33	12.74	12.56	16.08	25.91	128.8	647.9	855.2	28.95	4.050	2.403	2.306	2.296	2.198	1.924	2.022	2.254	2.213	2.064	1.970	2.017	1.996	1.817	2.025	1.832	1.674	1.792	1.633	1.799	1.603	1.572
490.0	397.1	486.6	399.0	433.9	1271	1765	540.1	390.6	396.1	396.8	390.7	356.7	315.4	274.8	241.1	214.8	197.2	183.0	174.2	167.1	163.0	158.8	157.0	156.4	154.8	151.4	149.5	148.1	147.6	143.8	136.0	124.9	111.9	100.5	89.17	79.91	70.96	63.19	57.26	56.36	51.78	39.36	30.74	26.11	22.52	19.69	16.38	13.87	11.39	10.49	11.48	33.61	169.2	517.4	718.1	304.3	11.87	2.553	2.404	2.109	2.096	2.101	2.040	2.038	1.986	2.048	1.943	1.906	1.735	1.847	1.690	1.629	1.602	1.711	1.622	1.412	1.501
495.0	326.0	422.5	409.2	337.1	584.7	1790	1140	369.2	364.1	360.6	353.8	326.9	287.3	252.2	219.0	192.8	179.0	165.7	155.5	147.0	143.2	142.7	140.4	137.2	137.6	135.4	133.9	132.4	132.8	129.9	123.4	115.8	104.3	95.33	83.04	74.60	66.81	59.39	52.51	48.55	49.48	45.32	34.14	27.39	22.69	20.04	16.70	14.33	12.26	9.996	8.922	12.74	42.07	120.0	336.6	866.7	227.5	14.59	2.447	2.057	2.120	2.075	1.820	1.942	1.912	1.831	1.573	1.748	1.601	1.513	1.475	1.521	1.551	1.461	1.491	1.302	1.508
500.0	300.7	332.4	396.2	320.5	367.9	1180	1805	416.0	329.7	332.7	324.9	299.1	266.3	235.1	204.9	178.3	163.2	150.4	140.5	135.7	132.1	130.1	129.4	126.5	126.1	124.3	123.4	120.6	120.5	121.1	114.2	105.8	96.93	88.87	77.70	69.80	62.45	56.20	50.05	45.00	43.72	44.37	37.63	27.90	22.89	19.60	17.37	14.50	12.39	10.15	8.409	8.098	13.94	30.77	83.12	449.5	861.3	194.0	7.386	2.111	2.105	1.950	1.852	1.736	1.741	1.743	1.544	1.674	1.563	1.350	1.347	1.576	1.454	1.468	1.425	1.267	1.385
505.0	257.5	309.8	376.7	311.0	290.0	621.2	2032	742.0	310.5	304.0	306.1	278.2	247.6	220.3	184.1	166.2	150.9	138.8	132.6	125.8	119.8	117.9	116.2	116.7	115.1	112.7	112.1	110.7	112.0	110.7	106.2	99.10	88.64	81.28	72.94	65.99	59.06	53.50	47.47	42.36	39.35	39.61	38.19	29.57	22.91	19.66	17.52	14.72	12.83	10.51	8.711	7.596	7.380	10.89	22.14	116.3	572.6	782.4	31.85	3.635	2.141	1.851	1.699	1.666	1.664	1.698	1.535	1.528	1.611	1.349	1.477	1.484	1.269	1.312	1.218	1.187	1.431
510.0	236.2	249.8	306.9	318.0	252.4	338.1	1303	1606	380.8	277.4	272.5	248.3	222.3	194.0	167.4	149.7	134.0	124.9	116.6	112.5	106.1	103.7	102.3	102.7	101.7	99.63	99.74	98.67	99.09	98.85	93.57	87.87	79.75	73.06	65.53	60.07	54.51	48.12	44.07	38.89	35.43	33.16	34.06	31.49	24.72	19.63	16.88	14.50	12.14	10.48	9.188	7.677	6.317	6.686	8.667	29.30	147.5	448.4	592.8	133.3	11.28	2.014	1.683	1.679	1.545	1.560	1.433	1.379	1.413	1.257	1.288	1.318	1.226	1.219	1.065	1.078	1.202
515.0	230.5	221.6	235.1	307.5	239.9	237.8	532.3	1872	916.5	249.5	241.7	221.4	194.1	171.7	146.6	130.0	115.9	110.7	101.7	99.58	93.09	91.70	90.01	88.27	88.39	86.19	87.85	86.18	86.56	86.26	82.81	75.97	70.78	64.28	58.54	53.28	48.83	43.89	39.57	35.20	32.82	29.60	27.51	28.76	26.84	19.95	16.64	13.92	11.78	10.08	8.903	7.822	6.274	5.735	5.664	9.719	35.83	103.2	250.4	625.6	220.5	13.17	1.812	1.601	1.488	1.448	1.355	1.338	1.243	1.199	1.108	1.197	1.114	1.113	1.025	1.083	0.982
520.0	202.0	209.4	204.0	265.0	258.2	213.0	282.7	1278	1665	289.0	216.9	202.2	176.0	153.0	133.6	117.6	104.4	99.91	92.16	89.84	85.19	83.65	81.51	79.20	79.50	76.26	78.09	78.02	78.25	77.33	73.98	69.24	63.15	59.32	53.54	48.95	44.52	40.49	36.18	32.60	29.68	26.70	24.95	25.10	26.84	21.27	16.29	13.42	11.60	10.11	8.715	7.837	6.623	5.498	4.816	5.419	11.08	25.72	60.99	318.6	631.3	179.4	6.565	1.663	1.522	1.326	1.218	1.253	1.173	1.033	0.984	1.095	0.986	1.022	0.994	1.082	0.968
525.0	183.2	175.5	166.6	219.0	261.8	197.8	208.9	626.7	2141	578.6	196.3	188.0	161.7	140.7	122.3	108.0	95.33	92.12	84.55	80.43	75.80	75.37	74.48	72.83	69.51	69.15	69.44	69.99	69.53	69.73	66.61	61.82	58.07	53.02	48.71	45.17	40.34	36.77	33.61	30.84	27.53	24.75	22.73	22.31	23.77	22.79	17.20	13.17	11.16	9.597	8.385	7.597	6.983	5.901	4.814	4.480	5.449	8.619	16.16	81.32	389.3	566.5	32.10	2.874	1.406	1.375	1.274	1.177	1.020	1.045	0.981	1.090	1.012	0.919	0.975	0.981	0.880
530.0	177.3	159.1	154.6	167.6	235.3	208.6	179.1	282.5	1422	1572	228.2	164.8	143.1	127.6	108.3	95.40	84.29	79.54	74.78	69.04	67.53	65.53	64.50	62.69	62.11	61.07	59.56	61.17	60.15	60.30	58.56	54.65	51.21	45.97	42.48	39.65	36.45	33.02	30.44	27.84	24.63	22.66	20.85	19.64	19.31	20.73	18.28	13.68	10.80	9.080	8.060	7.017	6.533	5.870	4.997	4.137	4.271	4.594	6.039	20.31	98.30	303.2	411.5	133.2	10.84	1.402	1.125	1.157	0.949	0.986	0.947	1.001	0.944	0.932	0.896	0.852	0.884
535.0	140.4	138.9	135.7	146.3	183.7	220.1	157.6	177.0	521.1	2013	774.4	143.4	124.4	109.2	93.96	81.57	75.79	68.72	64.63	59.96	58.56	57.20	54.55	54.61	53.13	52.93	51.79	53.03	51.48	51.73	50.65	47.55	43.96	40.66	36.83	35.17	31.72	28.55	27.08	24.07	21.82	20.19	18.42	17.00	15.94	16.56	17.50	15.01	10.92	8.452	7.582	6.781	6.106	5.715	5.027	4.477	3.926	3.481	3.712	6.621	23.77	69.59	157.8	430.8	209.0	12.38	1.162	1.046	0.870	0.848	0.932	0.883	0.811	0.867	0.818	0.844	0.837
540.0	137.1	134.0	121.3	126.4	142.4	213.8	164.8	144.6	228.0	1387	1662	166.4	112.2	97.74	83.55	74.76	66.97	60.97	56.70	53.69	51.22	49.47	48.36	47.20	46.12	46.54	46.09	46.23	45.92	46.03	44.72	41.27	38.53	36.03	33.81	30.85	27.97	25.97	23.88	21.48	19.85	18.25	17.09	15.71	14.67	13.72	15.30	14.88	11.38	8.385	6.976	6.208	5.566	5.004	4.690	4.803	3.785	3.178	2.939	3.555	7.118	17.07	37.95	199.7	443.1	159.4	5.552	1.190	0.897	0.747	0.854	0.846	0.693	0.812	0.692	0.810	0.806
545.0	130.8	116.7	101.9	111.2	113.6	179.4	176.7	124.7	141.9	625.8	2235	377.0	102.6	86.79	76.05	68.66	59.45	54.74	51.08	46.84	46.03	43.42	42.14	42.25	40.72	40.85	41.21	39.71	40.48	40.64	39.33	36.66	34.37	31.54	30.00	27.58	25.01	22.72	21.92	19.15	17.72	16.32	15.04	13.93	13.55	11.91	12.12	12.95	11.86	8.742	6.729	6.042	5.193	4.790	4.401	4.418	3.791	2.990	2.911	2.707	3.270	5.396	10.13	49.58	246.1	396.6	32.16	2.326	0.909	0.861	0.791	0.799	0.790	0.732	0.757	0.767	0.613
550.0	111.4	107.0	89.35	97.84	92.32	122.7	179.1	116.1	110.2	232.3	1442	1290	127.4	75.33	64.43	57.38	50.06	44.85	44.06	40.63	38.93	37.30	35.66	35.51	34.52	33.88	34.32	33.27	33.83	34.14	32.88	30.61	29.31	26.69	24.68	23.29	20.99	19.11	18.23	16.81	15.48	14.10	13.14	12.10	11.47	10.41	10.05	9.998	10.48	9.056	6.759	5.417	4.531	4.350	3.868	3.777	3.784	3.315	2.648	2.405	2.350	2.643	3.584	12.27	60.52	191.3	241.8	124.9	10.61	0.850	0.793	0.765	0.728	0.689	0.617	0.736	0.618
555.0	96.73	82.21	79.80	76.78	75.88	86.04	145.6	129.3	87.65	117.4	465.7	1853	476.8	62.71	53.58	47.06	42.51	37.13	34.86	33.68	31.52	30.69	28.87	28.07	28.91	27.71	27.42	27.23	27.66	27.58	26.69	25.32	24.07	21.88	20.36	18.63	17.22	16.86	15.32	13.92	12.76	12.02	11.11	10.35	9.692	8.799	8.075	7.941	8.005	8.549	7.070	5.040	4.037	4.018	3.302	3.171	3.167	3.200	2.809	2.107	1.889	2.007	1.986	3.794	14.53	43.82	88.11	264.7	173.8	11.71	0.835	0.624	0.648	0.634	0.538	0.587	0.593
560.0	94.47	70.41	69.24	67.49	64.26	72.52	107.7	140.9	83.92	83.63	168.1	1267	1212	72.44	45.23	39.26	35.44	31.84	29.49	28.23	26.98	24.53	24.92	24.46	23.91	23.92	22.94	23.35	23.25	23.06	21.85	21.38	20.61	18.65	17.00	15.90	14.53	13.89	13.18	11.96	11.27	10.28	9.116	8.915	8.463	7.497	7.232	6.556	6.120	6.941	6.919	5.066	3.716	3.469	2.930	2.825	2.746	2.827	2.746	2.048	1.782	1.666	1.623	1.975	4.351	10.77	21.03	109.1	274.1	120.8	5.533	0.631	0.622	0.659	0.558	0.569	0.545
565.0	83.59	78.83	62.88	60.76	58.41	58.39	76.32	139.7	86.79	73.28	88.74	530.6	1753	147.0	39.68	34.49	29.96	28.04	25.12	24.62	23.19	22.54	20.72	20.61	20.12	19.67	19.50	19.89	19.15	19.84	18.93	18.17	16.96	15.88	14.82	13.80	13.05	11.60	11.16	10.41	9.422	8.887	8.202	7.679	7.463	6.624	6.176	5.627	5.063	5.270	5.960	5.198	3.753	3.061	2.870	2.465	2.242	2.442	2.294	2.362	1.871	1.625	1.489	1.403	1.898	3.196	5.442	26.39	129.2	242.3	33.13	2.173	0.667	0.645	0.564	0.551	0.534
570.0	82.66	68.79	60.30	49.59	47.41	51.25	55.84	99.93	107.3	61.69	63.01	171.3	1160	908.7	60.04	28.13	25.91	22.49	21.46	19.72	18.57	18.18	17.40	16.94	16.11	16.60	16.29	15.98	16.28	15.87	15.39	14.93	13.58	12.85	12.18	11.40	10.53	9.554	9.002	8.500	7.547	7.250	7.006	6.401	6.236	5.574	5.192	4.669	4.233	4.091	4.393	4.526	3.802	2.829	2.501	2.288	2.173	2.104	1.931	1.911	1.815	1.569	1.332	1.130	1.201	1.469	1.954	6.599	30.91	101.2	155.6	89.41	10.42	0.708	0.490	0.524	0.487
575.0	68.81	63.55	55.46	42.31	40.55	41.55	41.23	63.06	113.5	68.55	48.49	72.88	358.5	1401	306.8	23.24	19.96	18.42	17.47	16.30	15.35	14.82	13.62	14.11	13.36	12.81	12.86	12.84	12.97	12.34	12.35	11.88	10.84	9.794	9.606	8.975	8.499	7.632	7.336	6.839	6.130	5.756	5.631	4.964	4.864	4.437	4.195	3.668	3.597	3.519	3.183	3.443	3.643	3.054	2.336	2.071	1.823	1.744	1.616	1.387	1.496	1.743	1.331	1.183	1.007	1.099	1.169	2.116	7.500	23.22	46.65	139.2	117.6	11.71	0.498	0.488	0.444
580.0	74.29	59.41	54.05	38.97	38.29	38.82	37.08	46.93	97.74	81.97	44.26	48.12	115.6	944.4	847.5	31.97	17.82	16.78	14.28	13.41	12.32	12.13	11.63	11.61	11.52	10.88	10.87	10.53	11.22	11.21	10.90	10.19	9.232	8.525	8.085	7.611	7.036	6.644	6.382	6.034	5.306	4.704	4.859	4.152	4.096	3.897	3.516	3.230	3.135	2.887	2.503	2.631	3.055	3.095	2.179	1.734	1.687	1.561	1.549	1.352	1.206	1.518	1.425	1.135	1.030	0.950	0.881	1.039	2.242	5.740	11.07	50.47	152.1	86.18	5.520	0.477	0.553
585.0	69.47	60.36	48.50	38.09	32.69	32.58	33.69	38.95	72.16	99.54	48.29	42.63	53.68	373.7	1245	92.28	16.33	14.29	12.47	11.79	11.13	10.13	10.21	10.09	9.575	9.945	9.400	9.074	9.205	9.280	9.077	8.590	8.015	7.080	7.088	6.449	6.410	5.692	5.162	4.916	4.657	4.385	3.864	3.787	3.804	3.468	3.268	2.918	2.773	2.533	2.261	2.119	2.354	2.984	2.319	1.758	1.459	1.493	1.260	1.272	1.148	1.229	1.496	1.217	0.921	0.838	0.787	0.893	1.062	1.960	3.006	12.04	60.99	142.1	33.38	2.601	0.574
590.0	67.18	59.60	47.23	36.55	30.50	27.98	29.98	32.43	44.49	93.66	60.85	40.02	38.02	111.5	789.0	599.9	25.93	11.52	10.80	9.612	9.007	8.594	8.727	8.095	7.813	7.711	7.650	7.442	7.498	7.546	7.398	6.981	6.386	6.017	5.784	5.444	5.037	4.625	4.237	4.140	3.884	3.699	3.353	3.067	3.207	2.840	2.717	2.565	2.333	2.084	1.852	1.751	1.776	2.076	2.203	1.899	1.458	1.322	1.100	1.123	1.063	0.982	1.098	1.225	1.019	0.775	0.689	0.719	0.743	1.017	1.184	3.192	14.35	51.86	88.78	61.59	9.918
595.0	64.13	66.61	46.73	32.86	25.69	25.43	27.75	27.52	33.65	62.39	82.91	39.63	32.48	43.56	228.1	899.1	95.18	10.20	8.968	7.995	7.362	7.120	7.010	6.563	6.688	6.548	6.157	6.109	6.014	6.205	6.133	5.374	4.866	4.845	4.555	4.336	4.193	3.887	3.689	3.349	3.306	3.183	2.691	2.856	2.691	2.298	2.303	2.165	1.825	1.666	1.673	1.525	1.506	1.436	1.836	1.830	1.454	1.234	1.028	1.085	0.953	0.961	0.876	0.951	1.074	0.903	0.744	0.686	0.675	0.688	0.645	1.185	3.601	11.95	24.29	73.49	78.93
600.0	56.48	52.85	45.91	30.10	22.66	24.25	24.21	25.29	29.29	44.93	89.31	46.09	29.77	27.51	67.54	604.4	491.8	13.51	7.464	6.868	6.871	6.270	5.906	5.317	5.482	5.169	5.129	5.035	5.108	5.566	4.993	4.748	4.516	3.839	4.002	3.831	3.497	3.356	3.144	2.881	2.880	2.502	2.411	2.338	2.257	1.960	1.955	1.754	1.698	1.541	1.427	1.309	1.220	1.187	1.402	1.708	1.591	1.186	1.026	0.988	0.872	0.900	0.778	0.722	0.811	1.072	0.929	0.680	0.632	0.614	0.530	0.606	1.152	3.037	5.798	23.90	83.21
605.0	62.64	53.89	40.41	27.76	25.84	24.58	21.41	25.10	25.91	35.16	75.84	55.60	29.72	24.13	27.87	235.2	749.0	55.52	6.853	6.265	6.001	4.951	5.406	4.787	4.627	4.355	4.716	4.459	4.475	4.561	4.388	4.142	4.083	3.623	3.411	3.044	3.030	2.935	2.585	2.463	2.414	2.148	2.054	1.940	1.981	1.876	1.713	1.363	1.543	1.365	1.217	1.105	1.014	1.040	1.132	1.308	1.375	1.201	0.960	0.915	0.729	0.736	0.728	0.678	0.759	1.014	1.001	0.717	0.611	0.561	0.521	0.496	0.643	1.055	1.714	5.829	30.62
610.0	58.91	53.56	37.81	26.89	23.88	22.14	20.81	23.83	26.56	31.21	53.83	71.08	34.23	22.68	19.03	66.60	500.9	378.4	12.65	5.152	4.715	4.319	4.263	4.179	3.897	3.672	4.054	3.494	3.838	3.809	3.438	3.359	3.328	2.984	2.973	2.522	2.573	2.459	2.345	2.083	1.926	1.849	1.905	1.622	1.620	1.461	1.502	1.249	1.173	1.147	0.995	1.021	0.922	0.888	0.886	1.000	1.182	1.246	0.983	0.774	0.634	0.675	0.682	0.628	0.640	0.752	0.825	0.794	0.724	0.599	0.553	0.512	0.498	0.551	0.707	1.626	7.314
615.0	57.82	42.33	35.49	27.43	21.38	18.30	18.56	20.32	25.66	26.36	38.03	66.07	44.38	22.31	16.00	23.88	147.2	589.2	70.31	4.590	4.055	3.601	3.521	3.493	3.403	2.830	3.369	2.803	3.001	3.112	2.919	2.788	2.852	2.626	2.362	2.346	2.105	2.086	2.052	1.607	1.559	1.445	1.406	1.198	1.486	1.256	1.208	1.056	1.008	0.929	0.853	0.842	0.752	0.769	0.767	0.761	0.941	1.000	1.052	0.769	0.595	0.617	0.581	0.638	0.585	0.617	0.610	0.673	0.917	0.655	0.553	0.461	0.405	0.570	0.486	0.769	1.996
620.0	57.49	39.50	37.89	23.86	21.00	15.30	17.86	19.75	22.97	24.97	32.82	51.55	56.30	23.10	15.50	12.95	41.82	413.6	314.4	6.112	3.188	3.005	3.022	3.023	2.740	2.579	2.757	2.474	2.603	2.633	2.436	2.504	2.394	2.091	2.109	1.880	1.929	1.737	1.719	1.465	1.370	1.274	1.172	1.083	1.269	1.265	0.980	1.006	0.914	0.844	0.753	0.775	0.687	0.745	0.607	0.620	0.698	0.785	0.881	0.775	0.670	0.604	0.481	0.550	0.507	0.651	0.590	0.563	0.721	0.794	0.460	0.602	0.453	0.470	0.413	0.470	0.826
625.0	53.82	38.74	37.20	25.51	18.25	16.73	17.87	18.60	22.45	24.40	28.83	39.35	60.09	25.32	15.22	10.80	16.16	170.5	517.1	30.25	3.280	2.914	2.655	2.550	2.383	2.497	2.515	2.148	2.110	2.279	2.214	2.177	1.902	1.883	1.893	1.712	1.721	1.558	1.456	1.285	1.241	1.185	1.085	1.023	1.015	1.055	0.915	0.975	0.817	0.734	0.696	0.728	0.613	0.638	0.567	0.615	0.655	0.682	0.806	0.806	0.721	0.618	0.506	0.488	0.552	0.647	0.505	0.556	0.561	0.747	0.511	0.500	0.487	0.390	0.451	0.443	0.535
630.0	57.44	43.00	35.06	23.11	18.85	17.16	16.98	17.10	19.34	23.38	25.96	29.68	50.34	34.82	13.93	9.692	9.514	46.37	374.2	240.0	5.924	2.532	2.371	2.163	2.192	1.950	2.020	1.870	1.981	1.898	1.872	1.829	1.590	1.698	1.631	1.459	1.430	1.427	1.288	1.187	1.213	1.026	0.929	0.941	0.877	0.832	0.832	0.821	0.690	0.634	0.603	0.580	0.571	0.561	0.503	0.559	0.532	0.579	0.597	0.687	0.694	0.633	0.528	0.487	0.519	0.512	0.460	0.527	0.539	0.644	0.644	0.621	0.451	0.395	0.457	0.419	0.398
635.0	50.23	43.70	29.94	23.95	16.71	16.04	14.52	17.72	20.94	22.02	24.58	26.18	34.58	43.18	17.21	8.836	7.533	14.14	113.9	422.7	48.64	2.348	2.155	1.658	1.796	1.707	1.720	1.645	1.623	1.676	1.540	1.482	1.441	1.443	1.371	1.440	1.154	1.214	1.077	0.949	1.075	1.009	0.822	0.794	0.719	0.685	0.615	0.572	0.663	0.560	0.490	0.488	0.472	0.537	0.500	0.508	0.523	0.530	0.496	0.614	0.617	0.608	0.523	0.453	0.453	0.505	0.454	0.492	0.487	0.472	0.610	0.565	0.456	0.443	0.427	0.457	0.353
640.0	57.30	42.11	31.21	24.96	15.74	16.34	15.41	16.21	18.38	21.47	24.70	25.03	27.15	42.27	22.28	9.881	7.232	7.183	30.65	329.6	196.1	3.316	2.055	1.540	1.643	1.556	1.500	1.604	1.390	1.456	1.451	1.303	1.262	1.107	1.265	1.175	1.072	1.061	0.919	0.802	0.931	0.976	0.737	0.733	0.590	0.639	0.647	0.690	0.584	0.494	0.482	0.478	0.430	0.444	0.490	0.462	0.454	0.467	0.462	0.516	0.517	0.579	0.511	0.428	0.448	0.451	0.445	0.442	0.411	0.478	0.467	0.586	0.582	0.414	0.358	0.431	0.432
645.0	49.72	41.17	33.69	22.63	18.32	14.85	15.06	16.00	17.39	21.76	23.84	25.29	25.08	35.73	26.95	10.24	7.030	5.319	9.914	149.2	350.2	17.14	1.829	1.411	1.552	1.357	1.369	1.344	1.256	1.199	1.223	1.171	1.090	1.086	1.138	1.056	0.936	0.927	0.783	0.834	0.811	0.893	0.810	0.693	0.589	0.718	0.620	0.591	0.547	0.482	0.380	0.439	0.419	0.458	0.434	0.386	0.481	0.476	0.429	0.452	0.480	0.547	0.513	0.440	0.386	0.429	0.421	0.477	0.434	0.511	0.416	0.458	0.562	0.480	0.324	0.342	0.430
650.0	47.18	41.71	29.78	24.01	18.33	14.73	14.02	16.06	17.96	19.86	23.81	24.60	22.71	27.69	32.16	11.09	7.021	5.222	4.979	44.91	358.4	62.92	1.708	1.511	1.536	1.372	1.275	1.242	1.131	1.175	0.951	1.080	0.994	0.963	1.150	0.911	0.918	0.974	0.787	0.726	0.751	0.805	0.792	0.614	0.541	0.570	0.516	0.548	0.461	0.385	0.402	0.470	0.430	0.402	0.484	0.347	0.495	0.447	0.463	0.422	0.461	0.414	0.525	0.499	0.457	0.407	0.436	0.438	0.350	0.424	0.418	0.394	0.451	0.615	0.431	0.320	0.444
