Sample:	'1
File name:	ÅôÔ¶Î÷ÇÅ.FD3
Run date:	'14:54:48, 05/24/2023
Operator:	aa
Comment:	'

Instrument
Model:	F-2700 FL Spectrophotometer
Serial number:	2086-009
ROM Version:	4J14000 07

Instrument parameters
Measurement type:	3-D scan
Data mode:	Fluorescence
EX  Start WL:	220.0 nm
EX  End WL:	600.0 nm
EX Sampling interval:	5.0 nm
EM  Start WL:	230.0 nm
EM  End WL:	650.0 nm
EM Sampling interval:	5.0 nm
Scan speed:	12000 nm/min
EX Slit:	5.0 nm
EM Slit:	5.0 nm
PMT Voltage:	700 V
Response:	0.04 s
Corrected spectra:	Off
Contour interval:	50.000

Peak integration
Integration method:	Rectangular
Sensitivity:	1
Threshold:	1.000

Peaks
No.	ApexEX/EM(nm)	Height(Data)
1	225.0/585.0	38.29
2	225.0/625.0	26.63
3	230.0/340.0	823.4
4	240.0/525.0	224.6
5	245.0/400.0	773.7
6	245.0/540.0	193.5
7	250.0/550.0	156.9
8	255.0/280.0	437.1
9	255.0/565.0	141.3
10	260.0/285.0	459.4
11	260.0/405.0	804.1
12	260.0/415.0	803.8
13	260.0/440.0	792.7
14	260.0/575.0	113.2
15	265.0/420.0	806.3
16	265.0/435.0	797.4
17	265.0/585.0	90.46
18	270.0/300.0	852.0
19	270.0/400.0	802.6
20	270.0/410.0	803.0
21	270.0/600.0	86.88
22	275.0/305.0	 1048
23	275.0/610.0	77.12
24	280.0/310.0	 1026
25	280.0/340.0	939.1
26	280.0/625.0	77.26
27	285.0/315.0	986.2
28	290.0/325.0	886.9
29	305.0/345.0	479.8
30	310.0/350.0	437.3
31	315.0/355.0	440.2
32	320.0/365.0	459.7
33	325.0/370.0	462.6
34	330.0/375.0	471.6
35	335.0/380.0	482.0
36	505.0/275.0	2.018
37	520.0/285.0	2.782
38	540.0/295.0	4.005
39	545.0/300.0	4.639
40	550.0/305.0	5.090
41	560.0/310.0	4.758
42	570.0/315.0	4.396
43	575.0/320.0	4.618
44	580.0/325.0	4.556

Data points
	220.0	225.0	230.0	235.0	240.0	245.0	250.0	255.0	260.0	265.0	270.0	275.0	280.0	285.0	290.0	295.0	300.0	305.0	310.0	315.0	320.0	325.0	330.0	335.0	340.0	345.0	350.0	355.0	360.0	365.0	370.0	375.0	380.0	385.0	390.0	395.0	400.0	405.0	410.0	415.0	420.0	425.0	430.0	435.0	440.0	445.0	450.0	455.0	460.0	465.0	470.0	475.0	480.0	485.0	490.0	495.0	500.0	505.0	510.0	515.0	520.0	525.0	530.0	535.0	540.0	545.0	550.0	555.0	560.0	565.0	570.0	575.0	580.0	585.0	590.0	595.0	600.0
230.0	20.88	738.3	 3070	 1472	83.26	4.934	3.802	3.895	2.556	3.134	3.055	2.210	2.290	2.012	1.699	1.503	1.347	1.038	0.893	0.953	0.943	0.908	0.736	0.764	0.751	0.801	0.574	0.530	0.524	0.402	0.401	0.404	0.464	0.462	0.328	0.442	0.370	0.391	0.409	0.425	0.368	0.472	0.466	0.480	0.299	0.255	0.588	3.876	8.779	8.687	5.135	1.488	0.329	0.176	0.136	0.108	0.130	0.109	0.095	0.093	0.099	0.053	0.067	0.088	0.051	0.050	0.032	0.041	0.057	0.057	0.003	0.017	-0.013	0.006	0.000	-0.039	-0.014
235.0	54.40	192.0	 1335	 2851	790.7	118.9	5.070	4.895	4.348	2.689	2.998	2.680	2.351	1.821	1.504	1.362	1.339	1.080	1.035	0.959	0.822	0.854	0.897	0.661	0.836	0.711	0.867	0.541	0.586	0.258	0.380	0.282	0.437	0.395	0.328	0.390	0.419	0.402	0.449	0.349	0.401	0.374	0.420	0.609	0.461	0.355	0.304	1.070	2.636	4.609	8.253	10.88	6.442	2.337	0.297	0.170	0.214	0.158	0.124	0.078	0.121	0.093	0.094	0.061	0.076	0.074	0.023	0.043	0.064	0.082	0.005	0.029	-0.024	0.010	-0.019	-0.030	-0.010
240.0	64.89	98.45	340.3	 1678	 3071	672.4	72.57	6.461	4.932	4.067	3.889	3.387	2.908	2.051	2.053	1.552	1.401	1.031	1.152	1.267	0.875	1.020	0.867	0.704	0.893	0.737	0.752	0.585	0.575	0.374	0.429	0.417	0.512	0.303	0.323	0.330	0.338	0.323	0.484	0.481	0.368	0.330	0.259	0.395	0.385	0.615	0.560	0.542	0.793	1.285	3.203	8.506	11.85	11.53	5.865	1.510	0.306	0.186	0.181	0.091	0.065	0.114	0.052	0.073	0.117	0.035	0.049	0.117	0.074	0.022	0.014	0.051	0.017	-0.019	0.004	-0.035	0.018
245.0	47.15	111.4	114.3	478.9	 2345	 3536	546.4	35.63	5.654	6.062	5.127	3.342	3.252	2.476	2.076	1.667	1.417	1.390	1.060	1.278	0.779	0.968	1.052	0.772	0.664	0.865	0.588	0.676	0.801	0.418	0.415	0.504	0.404	0.424	0.328	0.353	0.305	0.352	0.519	0.535	0.330	0.255	0.327	0.331	0.276	0.508	0.717	0.618	0.514	0.432	0.857	2.381	5.400	11.88	15.87	12.61	5.220	0.824	0.122	0.113	0.173	0.069	0.074	0.070	0.041	0.039	0.020	0.044	0.046	0.034	0.045	-0.040	0.017	-0.019	0.013	-0.029	0.014
250.0	15.25	61.25	140.7	179.5	653.3	 2397	 4245	 2024	167.8	9.513	6.217	4.190	4.404	2.969	2.258	2.168	1.266	1.388	1.209	1.120	1.191	0.948	0.863	0.780	0.893	0.774	0.743	0.692	0.690	0.519	0.515	0.391	0.458	0.400	0.356	0.378	0.330	0.392	0.398	0.469	0.377	0.394	0.380	0.288	0.276	0.363	0.376	0.522	0.644	0.664	0.604	0.805	1.419	3.406	6.696	12.15	17.88	19.59	13.84	5.635	1.150	0.193	0.117	0.088	0.075	0.150	0.081	0.032	0.035	0.027	0.056	0.002	-0.011	0.023	-0.011	-0.023	-0.026
255.0	7.180	18.51	74.41	208.8	235.0	567.5	 2192	 6773	 3137	230.6	11.94	7.158	4.459	4.156	2.811	2.288	1.679	1.431	1.474	1.284	1.334	1.024	0.959	0.815	0.916	0.915	0.725	0.748	0.660	0.525	0.437	0.429	0.467	0.362	0.272	0.390	0.272	0.326	0.289	0.434	0.379	0.434	0.290	0.371	0.310	0.349	0.324	0.222	0.369	0.540	0.756	0.963	0.961	1.142	1.778	2.954	5.209	12.48	27.12	35.22	24.71	9.409	0.869	0.070	0.108	0.119	0.040	0.094	0.087	-0.005	0.013	-0.026	0.030	0.000	0.068	0.068	-0.004
260.0	4.699	11.20	29.34	146.4	247.5	183.1	568.7	 3933	 8691	 2653	145.3	9.781	7.366	5.533	3.945	2.394	1.907	2.081	1.557	1.527	1.545	1.215	0.950	0.996	0.804	0.864	0.755	0.707	0.546	0.636	0.559	0.639	0.500	0.421	0.424	0.370	0.374	0.296	0.283	0.362	0.374	0.355	0.346	0.340	0.284	0.312	0.309	0.278	0.271	0.354	0.482	1.019	1.371	1.183	0.790	0.853	1.388	3.088	9.306	24.08	42.84	41.07	22.11	4.058	0.260	0.120	0.068	0.052	0.124	-0.013	0.033	0.029	0.103	0.005	-0.005	0.046	-0.024
265.0	11.22	12.72	14.49	59.70	233.9	219.7	162.0	 1095	 5945	9999.9	 2105	59.39	10.11	6.745	4.784	3.100	2.556	2.278	1.729	1.648	1.446	1.006	0.991	1.045	0.976	1.125	0.805	0.780	0.577	0.713	0.647	0.548	0.554	0.486	0.424	0.358	0.471	0.253	0.253	0.473	0.317	0.277	0.404	0.364	0.311	0.319	0.327	0.273	0.330	0.233	0.272	0.431	0.956	1.562	1.310	0.777	0.593	0.779	2.342	6.501	17.98	43.14	56.65	35.81	13.44	1.385	0.171	0.106	0.117	0.124	0.115	0.090	0.044	-0.036	0.016	-0.023	0.100
270.0	24.56	23.24	22.03	26.02	92.10	253.2	244.5	297.9	 1586	 6054	9999.9	 4682	123.6	11.71	7.566	4.933	3.300	2.795	2.266	2.038	1.498	1.279	1.296	1.053	1.018	1.100	1.037	0.818	0.647	0.899	0.719	0.538	0.579	0.546	0.533	0.462	0.442	0.342	0.444	0.414	0.307	0.355	0.392	0.486	0.369	0.364	0.406	0.378	0.354	0.281	0.287	0.267	0.455	0.767	1.042	1.398	1.468	0.962	0.893	1.718	4.294	11.47	22.41	35.78	41.04	46.16	23.02	9.673	1.198	0.174	0.156	0.088	0.090	0.080	0.099	0.025	0.049
275.0	55.66	63.49	45.30	26.39	35.12	95.48	310.6	319.3	405.9	 1422	 4424	9999.9	 8063	148.9	12.68	7.336	4.700	3.646	2.767	2.735	1.870	1.830	1.627	1.266	1.128	1.063	1.063	0.775	0.943	0.792	0.660	0.779	0.583	0.549	0.602	0.733	0.471	0.394	0.550	0.485	0.387	0.354	0.434	0.537	0.500	0.539	0.506	0.513	0.361	0.365	0.276	0.226	0.353	0.376	0.435	0.742	1.490	2.018	1.676	0.998	1.265	2.780	5.257	8.388	11.76	28.50	58.31	72.59	34.16	10.32	0.541	0.145	0.178	0.128	0.105	0.042	0.075
280.0	92.20	97.59	70.56	38.94	33.18	45.62	171.4	437.1	281.7	379.7	 1138	 6212	9999.9	 1696	93.61	9.956	5.983	5.136	3.186	2.776	2.624	1.786	1.499	1.418	1.354	1.288	0.833	0.882	1.066	0.643	0.650	0.802	0.713	0.642	0.677	0.709	0.542	0.674	0.605	0.481	0.458	0.503	0.642	0.593	0.630	0.606	0.613	0.664	0.529	0.380	0.347	0.296	0.292	0.219	0.341	0.411	0.647	1.254	1.981	2.209	1.247	1.076	1.470	2.241	2.958	7.093	19.32	50.20	78.40	45.30	24.32	3.124	0.218	0.083	0.130	0.102	0.158
285.0	144.2	138.6	109.2	56.72	39.39	41.23	84.05	323.3	459.4	228.7	354.7	 1721	 8902	9999.9	 1290	40.19	8.102	6.170	3.664	3.244	3.046	1.946	1.637	1.331	1.501	1.656	1.338	1.114	1.090	0.871	0.868	0.735	0.771	0.806	0.653	0.747	0.700	0.754	0.689	0.701	0.576	0.640	0.727	0.591	0.685	0.762	0.763	0.758	0.656	0.545	0.537	0.381	0.303	0.359	0.343	0.458	0.445	0.606	1.061	2.214	2.782	1.871	0.985	0.967	1.123	2.116	4.907	13.20	32.53	64.42	90.11	39.16	13.38	0.814	0.269	0.141	0.145
290.0	202.7	216.4	171.6	99.62	67.16	62.78	81.11	167.3	403.9	509.5	313.1	568.7	 2421	 7596	9999.9	 4478	70.50	9.743	5.622	4.351	3.371	2.570	2.087	1.737	1.662	1.676	1.261	1.211	1.144	0.996	0.990	0.949	0.781	0.882	0.820	0.942	0.879	1.094	0.821	0.864	0.775	0.791	0.863	0.862	0.898	0.959	0.980	1.041	0.928	0.690	0.626	0.599	0.424	0.467	0.388	0.438	0.507	0.530	0.695	1.069	1.709	2.405	2.620	2.281	1.518	1.416	1.907	3.795	8.076	17.18	36.36	51.39	67.53	57.89	24.51	10.16	0.892
295.0	268.4	298.9	247.2	150.2	108.0	96.65	112.1	155.3	256.2	542.9	746.0	484.7	804.0	 1903	 4667	9999.9	 6133	85.86	9.075	6.392	4.651	3.360	2.322	2.014	1.775	1.750	1.415	1.177	1.220	0.837	1.080	0.891	0.800	0.823	0.955	1.087	1.331	1.198	1.094	0.976	0.890	0.882	0.952	1.153	1.057	1.278	1.295	1.263	1.198	0.743	0.869	0.729	0.592	0.647	0.633	0.557	0.541	0.555	0.691	0.814	1.096	1.659	1.929	3.213	4.005	2.727	1.975	2.096	3.119	4.941	9.069	12.31	18.67	36.74	75.93	91.77	35.61
300.0	337.0	351.0	302.2	208.7	141.5	132.3	149.6	187.6	258.0	430.7	852.0	758.8	549.6	686.1	 1261	 6185	9999.9	982.9	54.74	8.429	6.092	3.736	2.879	2.611	2.319	2.088	1.583	1.507	1.251	1.060	1.023	0.895	0.998	0.893	0.903	1.172	1.499	1.163	1.196	1.199	1.186	1.194	1.183	1.261	1.336	1.391	1.279	1.439	1.365	0.974	0.721	0.937	0.716	0.763	0.738	0.730	0.662	0.770	0.832	1.142	1.157	1.323	1.773	2.259	3.292	4.639	3.816	2.552	2.322	2.497	3.264	3.852	5.084	9.346	25.28	64.88	94.85
305.0	356.9	401.9	357.2	235.7	162.9	157.4	181.3	232.9	309.5	424.8	705.1	 1048	680.7	478.6	495.7	 1665	 8492	9999.9	801.2	25.66	7.795	4.844	3.623	2.892	2.633	2.045	1.630	1.494	1.463	1.068	1.040	1.013	0.840	1.076	0.990	1.140	1.457	1.469	1.538	1.560	1.296	1.235	1.308	1.364	1.497	1.530	1.446	1.710	1.487	1.159	1.084	0.947	0.765	0.760	0.816	0.897	0.856	0.901	1.134	1.321	1.283	1.511	1.705	1.956	2.411	3.622	5.090	4.653	3.198	2.384	2.271	2.047	2.180	3.215	6.376	16.81	40.37
310.0	399.6	462.1	409.4	274.4	193.8	189.0	223.3	290.5	364.2	485.6	641.1	898.0	 1026	651.4	393.9	521.1	 2216	 6942	 9042	 3019	48.06	7.480	5.309	3.629	3.043	2.542	1.895	1.631	1.477	1.207	1.085	1.048	1.016	1.022	1.182	1.257	1.537	1.570	1.587	1.485	1.424	1.304	1.471	1.473	1.485	1.580	1.562	1.684	1.536	1.195	1.094	1.018	0.935	0.969	1.024	1.025	1.038	1.114	1.224	1.490	1.520	1.731	1.935	2.300	2.476	2.858	3.657	4.434	4.758	4.298	3.047	2.244	1.926	1.849	2.275	4.427	9.698
315.0	448.9	533.9	459.7	323.2	222.3	210.6	256.8	326.6	415.0	543.5	673.6	783.1	933.3	986.2	520.3	305.0	604.4	 1628	 4317	9999.9	 4450	58.83	7.430	5.410	4.253	3.484	2.619	2.065	1.777	1.852	1.268	1.095	0.933	0.916	1.254	1.196	1.529	1.622	1.534	1.425	1.329	1.383	1.396	1.598	1.548	1.891	1.761	1.928	1.782	1.405	1.270	1.156	1.173	1.110	1.088	1.182	1.201	1.307	1.396	1.578	1.653	1.856	2.054	2.377	2.380	2.886	3.047	3.719	3.975	4.230	4.396	4.072	2.602	1.761	1.609	1.843	2.840
320.0	500.2	591.5	537.4	358.1	245.0	233.9	268.8	365.9	446.9	578.7	712.9	788.8	868.9	966.6	764.2	323.4	266.9	442.5	 1072	 6162	9999.9	719.0	38.22	6.909	5.205	4.161	2.705	2.622	1.920	1.898	1.654	1.153	1.039	0.900	1.212	1.324	1.421	1.335	1.395	1.545	1.378	1.513	1.590	1.740	1.778	1.835	2.033	2.167	1.956	1.336	1.370	1.308	1.069	1.077	1.127	1.192	1.352	1.277	1.523	1.555	1.796	2.030	2.103	2.599	2.774	3.005	3.204	3.467	3.851	3.617	4.045	4.618	4.317	2.830	1.622	1.354	1.459
325.0	547.7	658.2	653.6	422.6	274.9	247.8	289.4	385.1	478.7	614.1	752.7	827.7	883.1	844.5	886.9	483.5	224.9	200.3	304.4	 1604	 8046	9999.9	603.3	15.22	6.715	5.766	3.029	2.764	2.417	1.611	1.531	1.189	1.339	1.121	1.055	1.449	1.360	1.531	1.487	1.445	1.452	1.547	1.899	1.923	2.011	2.245	2.296	2.459	2.205	1.771	1.616	1.396	1.270	1.360	1.219	1.197	1.435	1.377	1.607	1.730	2.219	2.387	2.497	2.567	3.205	3.334	3.448	3.626	3.701	3.538	3.364	3.942	4.556	4.187	2.508	1.695	1.299
330.0	598.6	750.9	741.8	509.0	333.6	282.2	322.8	405.8	504.2	646.7	783.0	854.9	920.6	816.2	738.2	632.3	376.7	185.6	157.4	421.4	 2075	 6684	 7499	 2325	37.38	7.800	5.015	3.273	2.628	2.151	1.734	1.430	1.572	1.207	1.062	1.474	1.507	1.513	1.479	1.584	1.475	1.660	1.761	2.053	2.000	2.372	2.488	2.811	2.531	1.994	1.787	1.750	1.333	1.371	1.389	1.461	1.597	1.498	1.622	1.869	2.161	2.517	2.825	2.762	3.084	3.280	3.528	3.808	3.741	3.707	3.366	3.487	3.414	3.494	3.272	3.123	2.396
335.0	606.0	776.2	783.7	592.2	387.5	331.5	349.1	431.8	527.5	669.3	804.8	858.9	938.4	833.2	688.1	532.3	537.2	318.4	158.1	183.7	525.9	 1555	 3948	9999.9	 3659	48.53	6.646	4.917	3.090	2.883	1.790	1.686	1.562	1.302	1.342	1.552	1.640	1.445	1.640	1.680	1.609	1.588	1.869	2.072	2.078	2.317	2.681	2.879	2.748	2.321	1.926	2.039	1.352	1.421	1.445	1.554	1.562	1.854	1.926	2.022	1.979	2.411	2.848	3.154	3.250	3.401	3.465	3.661	3.753	3.767	3.640	3.342	3.352	2.993	2.687	2.661	3.320
340.0	625.9	808.3	823.4	626.0	429.4	360.1	388.3	453.1	536.4	670.3	810.3	865.3	939.1	844.1	692.1	491.6	482.4	467.5	225.5	152.3	201.0	408.7	996.6	 6114	9999.9	 2769	29.38	5.979	4.251	3.737	2.319	1.891	1.638	1.365	1.245	1.473	1.595	1.783	1.590	1.657	1.511	1.456	1.888	2.049	2.187	2.418	2.568	2.983	2.831	2.243	2.125	2.104	1.618	1.584	1.527	1.452	1.822	1.788	1.854	2.134	2.115	2.409	2.848	3.204	3.223	3.576	3.833	3.587	3.696	3.559	3.645	3.482	3.285	2.971	2.425	2.636	2.418
345.0	601.0	786.1	822.1	651.4	475.9	399.6	415.6	467.9	550.3	671.6	799.0	858.5	935.6	841.0	696.1	504.8	420.0	479.8	361.7	185.2	151.0	173.0	285.7	 1633	 8606	9999.9	501.6	12.65	5.375	4.504	2.921	2.023	1.714	1.626	1.280	1.642	1.510	1.710	1.742	1.800	1.631	1.759	1.836	1.963	2.154	2.493	2.627	2.722	2.888	2.256	2.224	2.153	1.796	1.703	1.678	1.686	1.904	1.799	1.928	2.285	1.938	2.639	2.774	2.994	3.231	3.535	3.196	3.534	3.895	3.758	3.765	3.633	3.393	3.167	2.438	2.515	2.155
350.0	592.1	770.2	796.0	665.1	523.7	447.3	456.5	499.7	575.4	670.2	779.6	834.6	899.7	827.3	695.4	529.1	429.2	402.1	437.3	337.1	202.3	159.7	158.6	436.8	 2285	 7825	 6798	 2022	31.14	5.883	3.935	2.780	2.144	1.578	1.464	1.689	1.661	1.674	1.571	1.675	1.440	1.660	1.602	1.983	2.043	2.304	2.508	2.732	2.806	2.102	2.237	2.437	2.085	1.809	1.748	1.873	1.947	1.830	2.215	2.293	2.364	2.734	2.763	3.202	3.235	3.355	3.467	3.492	3.773	3.610	3.628	3.490	3.429	3.175	2.677	2.558	2.548
355.0	543.9	707.8	754.4	659.1	563.4	500.9	515.4	538.3	611.7	687.2	777.4	817.0	863.1	810.3	697.3	555.2	466.6	411.3	394.6	440.2	349.7	213.4	172.2	204.4	580.4	 1827	 3785	 9944	 3058	38.68	6.017	3.758	2.867	2.043	1.678	1.797	1.574	1.587	1.514	1.624	1.559	1.629	1.594	1.788	1.857	2.369	2.272	2.743	2.676	2.153	2.252	2.467	2.142	2.182	1.995	2.000	1.945	1.956	2.221	2.402	2.525	2.814	2.939	3.062	3.324	3.223	3.470	3.141	3.572	3.527	3.374	3.446	3.279	3.102	2.925	2.888	2.529
360.0	520.0	687.7	763.6	643.9	585.5	570.6	541.4	573.7	641.5	712.0	780.5	793.9	846.9	798.6	700.5	579.2	492.0	439.3	401.3	418.7	454.1	301.6	208.2	179.8	230.1	480.8	969.0	 5932	 9669	539.1	22.22	5.103	3.363	2.458	1.829	1.942	1.897	1.720	1.714	1.730	1.518	1.682	1.666	1.848	1.798	2.259	2.359	2.569	2.642	2.278	2.106	2.369	2.315	2.414	2.427	2.316	2.230	2.335	2.385	2.473	2.599	2.891	3.030	2.996	3.152	3.056	3.380	3.181	3.561	3.538	3.518	3.320	3.151	3.081	2.860	2.790	2.750
365.0	515.0	652.8	735.0	666.7	605.6	602.1	575.3	606.0	646.3	719.8	780.1	786.4	835.6	785.0	697.5	592.0	527.3	474.8	434.8	413.0	459.7	415.1	264.7	204.3	179.2	201.1	281.4	 1611	 7540	 8188	429.3	9.323	4.656	3.242	2.300	2.081	1.870	1.796	1.811	1.721	1.586	1.752	1.732	1.800	2.116	2.216	2.176	2.439	2.323	2.224	2.192	2.367	2.249	2.237	2.452	2.467	2.484	2.438	2.477	2.621	2.778	2.927	3.298	3.146	3.337	3.259	3.185	3.334	3.649	3.436	3.320	3.459	3.275	3.601	3.174	2.880	3.097
370.0	496.9	645.1	701.3	681.4	645.0	631.8	624.5	650.9	680.4	734.4	775.7	792.0	809.6	772.5	705.6	613.3	562.6	519.8	481.7	454.4	443.3	462.6	402.4	277.1	210.5	175.1	157.4	426.2	 2033	 6022	 6194	 1725	25.91	4.780	3.251	2.607	2.119	1.867	1.933	1.793	1.536	1.770	1.735	1.900	1.998	2.025	2.226	2.306	2.363	2.035	2.107	2.454	2.262	2.420	2.595	2.511	2.673	2.729	2.545	2.713	2.879	2.879	2.943	3.208	3.295	3.413	3.326	3.438	3.491	3.420	3.451	3.598	3.217	3.497	3.342	3.027	3.099
375.0	492.7	608.8	697.9	697.4	680.4	673.9	675.3	691.0	707.9	767.8	785.8	790.8	809.8	761.7	703.4	626.7	593.5	566.7	534.5	503.5	475.6	451.5	471.6	407.9	275.6	213.3	166.4	191.0	518.4	 1418	 3696	 8633	 2491	28.65	4.763	3.560	2.713	2.137	2.267	1.886	1.572	1.691	1.984	1.876	2.159	2.054	2.025	2.386	2.457	2.304	2.191	2.697	2.537	2.569	2.475	2.902	2.626	2.697	2.862	3.041	3.142	3.050	3.029	3.170	3.341	3.482	3.348	3.301	3.232	3.589	3.354	3.288	3.060	3.504	2.958	3.053	3.404
380.0	515.1	599.5	701.0	700.5	707.1	712.5	704.1	706.0	736.8	752.0	788.7	785.3	805.7	754.7	701.9	645.9	607.2	597.5	560.4	538.1	511.3	473.7	464.1	482.0	360.9	257.1	199.8	165.1	204.9	378.2	963.1	 5515	 8293	439.0	14.72	4.854	3.160	2.235	2.374	1.936	1.818	1.830	1.993	2.074	1.935	2.187	2.191	2.508	2.362	2.207	2.230	2.692	2.579	2.686	2.549	2.862	2.697	2.841	2.802	2.973	2.911	3.167	3.034	3.277	3.505	3.206	3.372	3.337	3.437	3.580	3.513	3.373	3.296	3.169	2.782	3.099	3.498
385.0	492.9	600.7	672.5	708.3	713.4	718.4	715.0	729.5	740.8	767.3	797.1	795.5	799.8	758.5	704.6	652.4	625.4	616.5	581.5	571.0	534.2	506.5	471.4	475.8	449.5	313.8	233.4	186.3	154.8	165.1	272.8	 1546	 6862	 6573	325.4	8.162	3.933	2.616	2.938	2.467	1.913	1.956	1.871	2.183	2.236	2.216	2.228	2.557	2.395	2.058	2.307	2.583	2.740	2.894	2.828	2.729	2.900	2.730	3.008	3.169	2.921	2.980	3.023	3.408	3.350	3.310	3.395	3.396	3.440	3.346	3.380	3.440	3.342	3.287	3.075	3.538	3.403
390.0	495.5	606.3	677.5	711.3	735.7	742.7	738.7	750.4	763.3	786.7	795.6	791.7	795.3	749.7	707.4	658.6	638.4	632.6	609.5	597.9	567.1	538.7	503.2	473.9	473.2	418.8	304.8	228.5	180.7	148.1	140.8	397.4	 1887	 5146	 4990	 1381	20.19	4.113	3.682	3.021	2.314	2.098	2.151	2.224	2.179	2.147	2.202	2.405	2.411	2.180	2.432	2.727	2.734	2.958	2.746	3.027	3.134	2.938	3.099	3.130	3.029	3.054	3.152	3.367	3.160	3.347	3.421	3.391	3.346	3.179	3.446	3.370	3.395	3.546	3.259	3.358	3.356
395.0	510.6	612.9	680.0	738.2	732.5	764.3	751.9	765.7	780.1	797.9	793.6	782.5	788.9	755.1	703.0	659.7	652.2	647.7	628.6	617.3	597.9	575.3	539.9	501.5	472.2	464.4	410.5	297.9	224.5	179.8	139.2	160.0	467.8	 1209	 3205	 8129	 1929	22.34	5.111	3.573	2.689	2.464	2.456	2.337	2.517	2.145	2.344	2.668	2.430	2.171	2.202	2.683	2.772	2.981	3.027	2.980	2.955	2.945	3.326	3.352	3.277	3.321	3.478	3.020	3.273	3.235	3.293	3.058	3.317	3.015	3.329	3.267	3.482	3.371	3.447	3.611	3.448
400.0	493.9	619.9	699.9	724.8	748.1	773.7	760.1	778.1	781.9	801.9	802.6	791.4	788.5	746.1	698.7	651.2	651.4	651.3	637.0	627.2	615.4	591.4	560.2	529.1	486.3	464.4	458.8	368.7	264.0	209.5	156.6	125.1	161.6	309.0	842.9	 5429	 6356	360.3	13.28	4.777	3.084	2.558	2.527	2.314	2.308	2.336	2.431	2.607	2.364	2.244	2.294	3.007	2.852	2.969	3.059	2.926	3.268	3.316	3.019	2.984	3.203	3.392	3.325	3.115	3.169	3.315	3.491	3.278	3.296	3.281	3.495	3.370	3.490	3.222	3.432	3.807	3.700
405.0	496.7	619.0	694.7	731.0	748.8	771.3	765.3	778.2	804.1	795.7	788.5	780.4	780.2	743.9	696.9	652.5	647.7	644.6	643.4	629.4	622.7	602.2	574.3	546.2	509.4	473.1	456.2	432.9	314.4	239.2	182.0	133.1	107.7	117.2	220.3	 1536	 5369	 3175	288.3	6.673	3.486	3.076	2.880	2.648	2.196	2.452	2.478	2.711	2.479	2.235	2.396	3.064	2.848	3.014	3.016	3.135	3.233	3.217	3.291	3.139	3.245	3.196	3.350	3.106	3.208	3.333	3.138	3.259	3.145	3.496	3.447	3.401	3.273	3.452	3.330	3.947	3.833
410.0	488.8	602.6	713.3	723.4	741.5	770.6	770.4	793.7	798.8	798.3	803.0	783.2	770.3	732.6	696.5	649.3	638.2	632.7	636.9	630.6	620.1	609.7	590.2	564.3	532.6	492.1	452.6	440.6	392.2	293.4	214.6	158.0	113.2	88.96	92.46	373.9	 1490	 3699	 4903	 1218	17.18	3.956	3.325	3.051	2.497	2.462	2.424	2.614	2.537	2.272	2.368	2.983	3.022	3.174	2.931	3.182	3.174	3.276	3.366	3.459	3.264	3.258	3.268	3.239	3.140	3.397	3.253	3.272	3.200	3.280	3.295	3.355	3.255	3.358	3.386	3.555	3.678
415.0	473.7	602.3	696.6	708.6	742.5	751.7	776.9	785.7	803.8	803.0	801.7	764.4	755.3	719.6	678.8	645.1	619.4	625.9	629.3	626.4	611.5	607.5	592.5	573.6	550.4	513.5	467.8	430.6	412.9	362.6	256.6	184.2	134.7	99.51	78.28	123.6	359.4	873.7	 3390	 6748	359.0	18.34	4.067	3.515	2.955	2.656	2.458	2.651	2.512	2.108	2.409	2.944	2.693	3.131	2.993	3.144	3.238	3.229	3.137	3.131	3.119	3.494	3.189	3.307	3.145	3.144	3.234	3.005	2.976	3.541	3.291	3.237	3.266	3.332	3.253	3.398	3.556
420.0	491.1	593.4	686.9	689.3	741.9	747.0	782.0	783.5	801.3	806.3	792.1	775.4	741.1	708.7	668.6	627.0	607.9	606.6	615.4	615.9	601.8	605.6	594.4	575.8	557.0	517.2	478.0	436.0	408.2	389.4	303.6	207.6	151.8	111.5	82.87	75.00	113.5	219.2	902.1	 4703	 4872	318.9	8.122	4.258	3.590	2.952	2.575	2.688	2.625	2.128	2.331	3.034	2.890	3.114	2.976	3.343	3.126	3.466	3.005	3.078	3.507	3.348	3.178	3.402	3.119	3.163	3.043	2.818	3.144	3.091	3.035	3.263	3.290	3.329	3.567	3.449	3.498
425.0	498.4	580.9	664.5	681.7	745.5	748.1	772.0	780.6	797.7	792.6	781.0	769.0	714.8	685.7	650.6	609.8	591.8	593.9	596.4	597.1	597.0	594.0	587.4	571.4	552.7	521.7	489.0	445.8	407.7	381.2	340.5	240.8	170.0	127.1	94.76	71.53	66.10	76.91	223.5	 1375	 4526	 2854	44.81	6.151	3.999	3.150	2.729	2.723	2.676	2.043	2.400	3.078	2.774	2.863	3.081	3.104	3.265	3.265	3.238	3.269	3.223	3.483	3.547	3.377	3.446	3.212	3.006	3.284	3.086	3.007	3.133	3.245	3.399	3.052	3.361	3.050	3.598
430.0	541.5	572.9	645.4	668.3	729.5	736.4	759.8	790.9	785.3	792.8	782.9	755.9	702.7	676.2	634.5	589.6	572.6	571.6	574.0	574.4	579.6	576.8	571.8	564.3	548.1	522.3	489.5	451.0	416.8	371.5	337.8	285.9	204.6	145.8	111.1	83.84	65.27	54.11	77.37	328.0	 1276	 3137	 3681	 1091	16.49	4.026	3.278	2.992	2.613	2.227	2.521	2.886	2.752	2.883	2.789	2.972	3.256	3.255	3.217	3.457	3.260	3.176	3.280	3.314	3.149	2.973	2.952	3.042	2.954	2.964	3.055	3.146	3.042	3.113	2.987	3.112	3.333
435.0	819.9	554.3	596.5	660.0	698.1	727.3	748.0	783.0	785.0	797.4	766.4	741.1	703.3	652.8	621.4	563.7	553.2	548.1	553.1	553.5	561.1	558.3	553.9	553.4	533.9	521.6	490.0	454.9	423.9	377.7	328.2	293.7	249.9	170.8	127.5	99.69	75.17	57.87	52.00	99.22	303.0	740.5	 2491	 5998	342.0	17.13	4.270	3.343	2.966	2.417	2.673	2.794	2.737	2.739	2.625	3.082	3.280	3.211	3.453	3.241	3.193	3.547	3.337	3.107	3.285	3.059	3.127	2.967	2.765	3.129	2.884	2.697	2.806	3.097	3.133	2.832	3.256
440.0	 1270	597.3	590.1	646.5	684.2	705.2	729.2	770.4	792.7	787.8	765.3	733.3	687.4	647.2	598.6	546.3	534.0	532.2	540.6	538.6	542.0	533.1	537.8	542.1	525.1	516.6	487.3	455.9	427.0	380.4	330.0	287.1	265.0	202.2	142.4	109.8	84.95	65.17	51.96	51.60	89.46	182.7	663.7	 4344	 4617	290.7	7.697	3.850	3.306	2.539	2.700	2.858	2.538	2.890	2.554	2.762	3.239	3.347	3.376	3.182	3.396	3.068	3.294	3.121	3.126	3.176	2.938	2.930	2.881	2.888	3.086	2.661	2.725	2.972	2.969	2.726	3.006
445.0	 1519	840.3	569.1	626.8	657.8	699.5	712.1	745.7	773.4	754.7	747.5	716.8	671.8	629.0	577.0	533.3	512.4	515.9	516.3	513.3	521.6	518.0	516.2	523.9	508.2	501.8	478.2	451.1	423.8	386.0	331.5	282.6	253.4	224.6	162.0	121.1	94.29	71.66	56.13	46.31	45.82	60.04	163.6	 1298	 4447	 2578	38.23	5.307	3.629	2.736	2.670	2.882	2.434	2.840	2.837	2.904	3.121	3.107	3.169	3.264	3.164	3.118	3.230	3.278	3.012	3.260	2.944	2.872	2.762	2.825	2.507	2.870	2.630	2.603	2.637	2.797	3.110
450.0	 1125	 1613	666.7	606.5	630.2	655.0	690.1	717.3	744.3	739.2	726.5	697.2	643.1	601.9	547.0	512.0	485.2	487.6	484.3	480.0	485.5	486.1	488.0	492.5	480.0	476.8	458.2	437.0	409.8	377.6	329.9	281.9	243.5	218.1	188.0	139.7	104.3	81.90	64.30	51.13	41.41	36.95	54.84	305.2	 1277	 3111	 3245	835.9	13.14	3.185	3.118	3.043	2.738	2.796	2.889	2.808	2.919	3.057	3.011	3.041	3.108	3.034	3.165	3.222	2.839	3.051	2.787	2.675	2.744	2.791	2.647	2.714	2.589	2.569	2.546	2.596	2.789
455.0	605.2	 1832	 1190	574.2	581.8	611.3	644.5	671.5	717.0	709.7	694.9	656.1	614.0	560.7	512.4	474.1	448.3	451.7	440.1	438.8	445.5	445.4	452.8	454.3	447.2	443.5	431.0	412.9	394.4	364.2	324.4	278.6	237.6	203.8	188.4	160.9	118.1	89.64	72.28	55.67	45.13	36.74	34.62	85.05	297.6	741.1	 2194	 4262	273.9	12.12	3.713	3.227	2.861	2.743	2.704	2.615	2.899	2.888	2.856	3.076	3.155	2.880	2.785	3.201	2.893	2.781	2.645	2.638	2.749	2.514	2.694	2.386	2.356	2.105	2.240	2.568	2.562
460.0	420.8	 1318	 1956	618.7	554.4	588.3	628.7	654.2	689.9	679.0	663.2	619.6	586.3	531.3	483.7	447.8	421.6	425.1	417.9	412.0	418.6	420.7	426.0	424.1	422.3	417.5	408.4	393.0	374.1	353.4	313.2	274.1	233.3	198.2	177.2	166.8	132.8	97.72	76.59	61.46	48.80	39.07	32.08	37.77	81.14	177.9	579.8	 3181	 3753	204.2	7.171	3.414	3.099	2.935	2.392	2.789	2.832	2.521	3.153	2.991	2.900	2.767	2.917	2.817	2.750	2.628	2.605	2.737	2.617	2.310	2.395	2.420	2.366	2.095	2.170	2.487	2.623
465.0	351.2	774.0	 2234	932.8	534.0	559.0	593.7	616.5	662.1	650.8	637.0	602.8	555.8	500.1	457.7	426.9	399.0	392.3	385.0	389.1	390.1	390.3	398.9	396.9	398.0	394.3	382.1	368.6	357.6	337.2	299.0	265.6	229.1	196.5	170.2	155.6	140.7	106.0	80.54	64.40	51.59	42.76	32.77	28.91	34.36	52.42	140.9	963.2	 3820	 1823	31.46	4.972	3.568	3.149	2.676	2.776	2.827	2.783	2.877	2.830	2.710	2.677	2.911	2.607	2.754	2.620	2.616	2.658	2.568	2.293	2.176	2.307	2.222	2.175	2.104	2.416	2.356
470.0	312.9	462.4	 1514	 1772	601.7	516.9	547.3	576.8	598.8	610.0	599.1	560.7	516.9	462.6	425.1	390.5	369.2	358.2	355.8	351.9	353.5	357.2	360.7	362.0	360.9	358.9	349.1	341.8	331.2	314.4	283.7	252.8	219.2	189.7	163.8	144.0	134.1	118.6	87.27	67.66	55.65	45.61	36.40	30.22	26.28	26.72	43.39	225.6	 1112	 2445	 2684	674.8	11.40	3.467	2.810	2.716	2.738	2.827	2.627	2.564	2.651	2.615	2.605	2.604	2.480	2.543	2.359	2.385	2.269	2.157	2.033	2.078	2.098	1.978	1.988	2.156	2.111
475.0	308.0	352.2	678.3	 1966	 1143	474.4	515.0	530.0	550.8	562.7	554.1	518.4	474.5	426.4	387.0	352.2	335.4	323.9	317.1	318.4	318.6	324.1	319.2	326.2	324.5	321.6	317.4	314.9	304.0	287.0	265.3	237.3	205.4	181.3	153.8	137.0	121.0	114.3	98.56	72.79	58.71	47.79	39.36	32.27	26.36	22.80	22.49	61.05	256.6	582.2	 1908	 3018	261.5	11.52	3.367	2.615	2.787	2.407	2.612	2.607	2.263	2.294	2.452	2.477	2.613	2.283	2.230	2.321	2.104	1.918	1.833	1.957	1.891	1.821	1.974	2.076	1.851
480.0	289.1	318.1	434.6	 1378	 1803	520.5	471.1	501.3	518.2	522.5	523.2	491.4	448.9	402.2	364.7	329.2	314.7	301.7	295.4	295.4	291.5	296.6	295.4	297.8	302.1	302.2	292.6	290.9	283.1	269.9	250.7	222.9	197.1	174.4	147.8	131.8	116.4	105.8	99.81	80.51	60.66	47.88	41.25	32.69	27.85	22.94	19.97	25.19	67.06	137.5	510.6	 2274	 2193	227.8	5.071	2.734	2.799	2.618	2.595	2.317	2.348	2.193	2.314	2.238	2.179	2.101	2.076	2.033	1.810	1.951	1.839	1.946	1.865	1.488	1.860	1.880	1.779
485.0	277.3	295.9	361.5	774.9	 2116	731.7	440.6	468.9	497.8	496.5	493.7	459.1	425.7	380.9	345.3	310.6	296.4	279.6	274.0	277.7	273.3	273.9	274.2	277.8	279.0	279.8	271.1	270.4	264.2	254.6	238.6	215.3	191.3	167.3	146.5	128.2	113.4	101.6	94.89	85.68	65.80	50.38	42.56	34.40	28.98	24.70	20.19	18.51	25.47	38.81	121.7	709.4	 2579	 2011	32.68	3.805	3.008	2.487	2.471	2.253	2.318	2.217	2.102	1.885	2.121	1.993	1.793	1.971	1.616	1.853	1.855	1.765	1.720	1.445	1.603	1.672	1.764
490.0	236.1	293.5	327.4	444.1	 1445	 1700	495.7	430.2	451.6	460.2	454.9	430.9	389.9	355.6	315.7	285.6	268.6	258.3	251.0	250.3	245.7	251.0	249.9	251.9	253.9	255.0	247.1	247.6	242.8	234.7	219.6	199.9	176.9	158.2	139.3	123.7	108.5	95.53	85.17	82.97	72.52	55.36	44.23	36.87	30.73	25.84	21.55	17.80	17.36	17.73	34.87	165.8	764.9	 1961	 2047	534.0	10.67	3.064	2.690	2.323	2.247	2.156	2.142	1.887	1.962	2.024	1.724	1.844	1.629	1.700	1.556	1.745	1.521	1.512	1.429	1.429	1.639
495.0	213.5	267.6	301.2	337.6	648.8	 2043	 1064	395.5	414.4	420.5	418.5	389.7	357.4	325.5	291.0	255.4	240.6	233.8	229.0	224.5	220.4	223.7	223.7	224.3	227.6	225.3	222.3	222.9	219.1	212.9	200.3	182.3	164.6	147.7	127.8	117.1	104.4	88.25	80.36	73.02	71.26	61.31	46.20	38.42	32.23	26.97	22.67	18.78	16.13	13.77	16.10	43.96	176.2	469.9	 1562	 2513	284.6	8.155	2.584	2.487	2.194	1.979	2.092	1.949	2.032	1.735	1.502	1.840	1.570	1.562	1.579	1.576	1.373	1.415	1.198	1.230	1.380
500.0	184.8	242.5	296.7	301.0	377.6	 1505	 1909	437.3	377.7	384.1	378.8	357.9	331.1	297.4	265.6	236.1	223.1	214.7	206.5	204.7	201.2	201.1	202.3	202.5	206.7	201.8	202.5	199.2	200.1	194.5	182.3	170.8	151.3	137.5	121.2	109.9	98.00	84.11	76.23	67.80	64.22	62.64	50.97	37.86	32.18	27.37	22.39	18.94	16.17	13.39	12.23	16.84	45.25	110.3	427.7	 2055	 2293	41.91	4.014	2.756	2.213	1.966	1.924	1.879	1.928	1.737	1.592	1.646	1.518	1.390	1.536	1.472	1.274	1.246	0.984	1.418	1.329
505.0	157.9	197.8	285.6	277.9	287.5	798.8	 2420	807.7	344.3	359.1	353.0	333.4	304.1	277.4	245.6	217.2	204.6	194.0	188.0	182.8	183.2	180.7	181.5	183.5	188.5	184.2	185.4	184.2	184.0	178.4	168.6	156.1	141.1	127.5	113.5	102.5	91.26	80.00	72.84	64.96	57.43	58.61	52.73	39.13	32.37	27.19	22.61	19.79	16.14	13.28	11.53	10.86	15.96	30.18	100.8	643.9	 2486	 1696	34.55	3.018	2.294	1.868	1.895	1.763	1.765	1.541	1.580	1.440	1.343	1.230	1.279	1.373	1.340	1.205	1.222	1.406	1.156
510.0	142.4	179.0	244.4	272.5	251.1	380.4	 1698	 2048	398.2	314.4	312.8	295.5	272.2	245.2	218.6	193.4	180.2	169.2	165.1	160.7	160.8	159.0	157.1	161.6	162.3	161.7	160.7	161.1	159.8	156.8	147.1	137.6	125.7	112.0	103.7	92.46	83.20	73.44	67.15	59.23	52.72	49.74	49.17	43.14	32.61	27.18	22.85	19.37	16.18	13.57	11.58	9.385	9.866	11.95	27.37	148.9	751.9	 1764	 1686	164.9	8.181	1.919	1.840	1.639	1.615	1.455	1.328	1.226	1.190	1.283	1.096	1.014	1.154	1.020	1.031	1.108	1.099
515.0	120.4	155.0	191.4	260.8	229.3	251.9	685.2	 2690	 1105	279.0	273.7	259.0	243.6	213.8	192.6	171.8	156.9	147.4	142.9	139.8	141.4	138.5	138.1	137.9	139.2	139.1	138.7	138.7	139.9	137.5	129.0	120.5	110.2	99.82	92.35	83.24	74.88	66.75	61.07	54.65	47.71	43.84	41.74	40.89	34.85	26.38	22.90	18.35	15.80	13.65	11.58	10.18	8.376	8.155	10.87	37.55	171.3	429.7	 1405	 1886	245.4	4.459	2.059	1.497	1.572	1.286	1.254	1.124	1.228	1.114	0.954	0.983	0.917	1.043	0.809	0.876	0.871
520.0	115.1	133.3	164.8	232.1	217.1	203.5	319.2	 1981	 2203	312.9	246.3	235.0	223.2	190.8	173.8	152.4	140.7	131.6	128.5	126.9	127.3	123.5	121.5	125.2	125.3	124.0	123.4	121.9	125.2	122.5	116.5	108.5	99.10	90.35	82.89	76.16	68.53	61.36	56.73	49.72	44.08	40.46	37.59	36.52	35.23	27.38	22.43	18.18	15.13	12.94	11.26	10.09	8.446	7.327	6.881	12.55	42.12	99.58	405.5	 1695	 1713	38.72	2.819	1.725	1.340	1.421	1.250	1.093	1.091	0.988	0.760	0.995	0.711	0.893	0.788	0.888	0.891
525.0	107.4	124.7	140.4	195.8	224.6	182.3	223.0	974.0	 2909	692.8	226.6	216.2	196.6	174.7	158.0	136.1	128.6	122.8	116.2	113.9	111.8	112.7	109.4	112.5	111.6	111.0	110.4	111.4	111.3	110.8	104.2	97.94	90.64	83.46	75.58	68.89	62.99	57.37	51.70	46.71	41.89	37.43	33.29	31.44	32.68	29.48	22.19	17.62	15.69	13.02	11.19	9.695	8.315	7.024	6.199	6.861	13.28	26.04	94.36	572.0	 2020	 1136	28.68	2.071	1.368	1.265	1.187	1.108	0.956	0.909	0.917	0.899	0.780	0.727	0.613	0.777	0.667
530.0	92.43	106.9	123.8	151.0	203.4	182.4	178.5	378.5	 2024	 2086	285.4	188.4	171.7	152.7	135.8	121.8	112.8	107.0	101.7	98.96	96.84	97.79	95.37	97.67	95.62	95.36	95.75	96.91	96.25	96.16	91.40	85.00	79.97	73.29	67.20	61.32	56.04	52.02	46.07	42.09	37.69	33.91	30.19	27.87	27.43	27.47	22.97	17.59	14.87	12.43	10.71	9.288	8.245	7.258	6.343	5.500	6.643	8.989	24.05	131.9	643.9	 1348	931.2	143.8	3.884	1.485	1.355	1.037	1.025	0.887	0.781	0.885	0.709	0.690	0.521	0.735	0.539
535.0	80.61	88.25	111.1	127.6	163.0	186.2	157.8	200.7	720.3	 2868	 1054	169.3	147.5	133.7	119.7	106.5	96.05	93.07	87.80	85.42	82.41	83.99	81.94	83.45	82.27	82.84	82.67	83.25	82.88	81.93	77.94	75.17	69.38	63.78	58.51	53.16	49.57	46.32	40.99	37.32	34.15	30.42	26.85	24.12	23.67	22.98	23.01	18.74	14.21	11.81	10.12	8.865	7.757	7.001	6.239	5.159	5.123	5.158	8.326	32.25	145.9	336.6	 1003	 1373	41.58	2.486	1.289	1.049	0.996	0.740	0.603	0.679	0.646	0.640	0.571	0.533	0.559
540.0	67.23	80.69	98.43	106.1	136.5	193.5	150.5	154.5	285.5	 2044	 2299	207.0	136.6	123.4	108.6	96.12	86.43	82.51	81.38	76.25	75.65	73.81	74.71	74.54	71.35	74.17	73.09	74.12	73.62	73.32	70.27	66.35	61.92	57.39	52.89	47.29	44.79	41.27	37.52	33.46	31.63	28.36	25.33	22.66	20.96	20.30	20.17	19.48	14.89	11.64	9.877	8.557	7.358	6.603	6.215	5.465	4.720	4.434	4.655	9.923	34.80	77.62	302.4	 1332	 1065	33.96	1.663	1.112	0.947	0.859	0.626	0.645	0.695	0.565	0.686	0.509	0.622
545.0	61.15	73.85	93.87	92.71	109.7	158.7	154.9	131.0	170.9	921.4	 3106	325.1	125.3	111.8	97.15	88.56	77.44	73.23	71.67	67.54	66.87	65.85	66.24	67.19	64.89	64.78	66.24	65.04	65.77	64.80	62.38	60.25	55.99	51.53	47.74	43.19	40.65	37.68	34.64	30.99	28.73	26.21	23.66	21.30	19.96	17.57	18.07	18.45	15.74	11.31	9.560	8.382	7.067	6.393	5.535	5.464	4.303	4.025	3.895	4.726	10.05	19.59	70.22	469.4	 1405	342.0	23.59	1.278	0.826	0.743	0.685	0.634	0.663	0.466	0.538	0.606	0.429
550.0	56.74	68.30	79.66	87.14	92.70	122.0	156.9	121.6	125.5	321.1	 2057	 1853	180.3	97.77	86.08	75.12	68.13	64.17	63.09	60.31	58.45	57.28	57.08	56.75	56.24	56.28	56.24	56.08	56.98	55.76	53.44	51.51	48.08	44.58	41.32	37.97	35.33	32.43	30.20	27.50	25.01	22.75	20.94	19.31	17.84	15.65	14.76	14.91	14.95	12.05	9.002	7.623	6.293	6.022	5.391	5.024	4.669	3.998	3.442	3.455	4.367	6.439	17.55	108.0	464.2	913.2	732.1	119.0	2.473	0.826	0.693	0.525	0.616	0.386	0.373	0.522	0.438
555.0	53.20	61.37	65.44	82.15	79.25	94.28	137.3	123.7	108.7	152.0	656.5	 2675	981.9	86.03	74.19	65.56	58.56	55.80	50.93	51.17	49.68	47.63	46.95	48.28	47.44	47.58	47.53	46.64	47.77	47.35	45.47	42.64	40.33	38.51	35.15	32.27	30.19	27.72	25.58	23.81	21.92	19.46	18.23	16.52	15.76	13.86	12.89	11.68	12.24	12.08	9.874	7.135	5.761	5.309	5.072	4.681	4.523	4.142	3.485	3.031	3.175	3.265	5.599	25.57	104.8	234.6	818.9	953.9	38.99	1.719	0.758	0.513	0.748	0.502	0.365	0.476	0.285
560.0	49.15	60.54	64.40	67.93	62.55	74.17	110.1	136.8	95.97	106.6	226.3	 1898	 2115	108.7	64.40	56.33	51.66	47.97	47.10	44.49	43.15	43.28	41.75	41.02	41.58	42.16	41.43	40.36	40.87	40.38	39.85	37.72	35.15	33.60	29.75	27.99	25.86	24.56	23.25	21.21	19.39	17.79	16.25	14.77	14.36	12.29	11.51	10.31	10.14	10.80	9.872	7.182	5.463	4.933	4.458	4.148	3.781	3.702	3.590	3.009	2.631	2.565	2.949	7.188	24.71	53.96	256.7	979.0	715.2	29.81	1.026	0.755	0.617	0.400	0.501	0.411	0.284
565.0	49.52	55.55	57.29	56.42	60.13	68.72	79.55	141.3	94.57	88.43	115.3	801.5	 3389	222.6	58.23	51.52	45.42	42.08	41.16	38.90	36.77	37.67	35.96	35.20	36.59	35.56	36.45	35.04	35.97	36.09	34.93	33.81	30.55	29.69	26.79	24.63	22.72	21.91	19.82	18.29	16.87	15.32	13.98	13.50	12.53	11.02	10.63	9.258	8.755	8.753	9.047	7.671	5.378	4.632	3.974	3.828	3.728	3.169	3.144	2.965	2.299	2.370	2.316	3.192	6.944	13.21	59.69	356.2	988.6	327.9	17.90	0.826	0.548	0.392	0.431	0.336	0.298
570.0	38.95	50.48	52.72	48.60	47.67	52.50	58.08	104.6	107.8	74.72	79.93	249.0	 2303	 1551	96.87	42.45	35.86	35.16	32.15	31.52	30.14	29.89	29.88	28.66	29.12	29.68	28.88	28.36	28.90	29.12	28.58	27.40	25.28	23.60	21.91	21.05	19.03	17.73	16.56	15.35	14.05	13.12	11.88	10.87	10.02	9.127	8.594	8.099	7.126	6.429	6.997	6.877	5.300	4.065	3.737	3.247	3.115	2.815	2.659	2.719	2.410	2.117	1.910	1.999	2.735	4.159	14.56	81.88	335.1	637.3	486.5	24.22	1.310	0.532	0.348	0.359	0.377
575.0	30.66	44.45	46.70	39.07	37.80	41.74	47.93	65.31	113.2	74.34	60.86	102.9	684.1	 2246	604.8	34.33	29.64	27.94	24.99	25.15	23.56	22.98	22.51	22.51	22.14	22.82	22.86	22.07	23.06	23.01	21.64	21.69	18.98	18.34	16.84	16.41	14.99	14.06	13.26	11.82	11.18	10.07	9.147	9.079	8.020	7.218	6.945	6.392	5.330	5.000	4.967	5.200	5.384	4.128	3.199	2.797	2.450	2.312	2.285	2.087	2.023	2.062	1.735	1.629	1.777	2.126	4.320	19.22	75.62	165.5	519.2	544.9	33.82	0.813	0.412	0.329	0.355
580.0	34.11	35.64	42.23	36.13	33.88	36.53	38.96	49.74	97.43	83.30	57.50	64.13	198.7	 1532	 1440	51.75	25.51	21.95	21.63	20.07	18.73	18.40	18.66	18.60	17.22	18.07	17.67	17.51	18.49	18.67	17.82	16.95	15.28	14.12	13.90	13.30	11.94	11.19	10.77	9.662	9.293	8.675	7.209	7.309	6.449	6.144	5.995	5.512	4.656	4.315	3.780	3.871	4.437	3.914	2.931	2.508	1.985	2.095	1.994	2.019	1.796	2.120	1.488	1.651	1.454	1.671	1.953	5.245	17.85	37.90	164.3	581.5	321.8	21.99	0.555	0.303	0.364
585.0	29.65	38.29	35.76	31.47	30.75	33.18	33.30	39.22	69.18	90.46	56.62	53.24	80.84	601.2	 2162	150.1	22.49	19.17	18.32	15.76	16.39	16.06	15.40	15.53	15.05	14.52	13.86	14.32	14.85	15.19	14.63	14.35	12.89	11.57	11.66	11.14	9.946	9.920	9.225	8.245	7.553	7.279	6.625	6.248	5.249	4.994	4.775	4.615	4.029	3.521	3.112	3.177	3.327	3.425	3.084	2.170	1.858	1.737	1.520	1.758	1.467	1.863	1.750	1.549	1.459	1.373	1.370	2.237	5.069	9.637	38.37	213.4	535.2	240.4	10.05	0.332	0.334
590.0	30.03	33.52	34.58	27.91	25.49	28.77	29.71	33.97	47.78	87.25	65.88	48.23	53.04	172.3	 1385	 1102	51.39	16.29	15.06	12.61	12.98	12.44	11.88	11.84	11.90	11.67	11.38	11.36	11.52	11.66	11.40	11.27	10.17	9.457	9.188	8.376	8.175	7.285	7.382	6.549	6.293	5.813	5.062	4.919	4.339	4.064	3.868	3.674	3.204	2.730	2.609	2.373	2.292	2.703	2.756	2.316	1.776	1.488	1.418	1.418	1.461	1.518	1.424	1.539	1.242	1.207	1.251	1.340	2.086	3.167	9.525	49.42	187.8	358.0	199.1	20.40	0.712
595.0	29.79	35.80	34.31	26.32	24.30	22.45	26.13	29.91	34.87	66.73	83.02	49.03	47.91	63.28	390.7	 1599	398.6	14.01	11.50	10.59	10.66	9.509	9.617	9.699	9.236	9.121	8.560	8.926	8.872	9.035	8.920	8.361	7.783	7.637	7.132	6.647	6.514	5.820	5.584	5.171	4.813	4.233	3.929	4.111	3.702	3.256	3.030	2.895	2.562	2.304	2.051	1.950	1.787	1.948	2.175	2.331	1.704	1.382	1.211	1.227	1.325	1.243	1.290	1.362	1.416	1.187	1.052	1.351	1.424	1.792	3.111	11.79	42.73	95.06	268.5	279.9	28.14
600.0	22.66	30.89	33.58	23.56	21.92	19.95	25.21	26.46	32.50	48.79	86.88	53.00	44.04	39.34	109.4	 1071	 1031	25.15	9.587	9.091	8.572	8.513	8.168	7.813	7.498	7.856	7.391	7.507	7.294	7.204	7.761	6.951	6.335	6.071	5.352	5.408	5.200	4.950	4.663	3.930	3.917	3.577	3.371	3.393	3.172	2.923	2.378	2.325	2.075	1.838	1.682	1.730	1.491	1.475	1.703	2.231	1.631	1.336	1.055	1.095	1.102	1.054	1.119	1.173	1.395	1.381	1.269	1.204	1.456	1.484	1.675	3.464	10.32	22.00	89.08	311.0	217.0
605.0	26.20	28.80	33.24	24.02	17.75	20.50	22.37	27.33	30.03	39.70	77.67	65.78	44.74	34.20	41.80	409.9	 1488	105.5	8.170	7.699	7.957	7.020	6.539	6.519	6.397	6.854	6.213	6.008	6.233	5.939	6.218	5.841	5.680	5.223	4.901	4.711	4.506	3.804	3.866	3.628	3.108	3.003	2.853	2.713	2.639	2.417	2.079	1.991	1.837	1.701	1.446	1.405	1.351	1.265	1.377	1.653	1.658	1.280	1.145	0.982	0.937	0.996	1.187	1.306	1.280	1.395	1.271	1.393	1.488	1.492	1.431	1.792	3.156	5.518	20.94	119.1	320.5
610.0	26.40	27.17	29.83	19.43	17.83	18.43	21.89	26.45	29.98	35.38	59.10	77.12	50.63	32.20	27.10	109.4	940.8	774.6	30.26	6.724	6.421	6.001	5.785	4.998	5.253	5.651	5.019	4.877	5.042	5.176	4.804	4.844	4.455	4.395	3.917	3.966	3.647	3.249	3.218	3.143	2.629	2.463	2.413	2.282	2.086	2.024	1.777	1.771	1.667	1.431	1.320	1.204	1.065	1.053	1.068	1.257	1.409	1.289	1.149	1.006	1.035	1.100	1.104	1.125	1.234	1.306	1.468	1.513	1.447	1.479	1.634	1.425	1.496	1.928	5.288	27.70	114.5
615.0	27.00	24.37	25.94	16.75	17.45	17.61	22.22	27.02	28.07	33.36	43.51	71.19	64.25	32.96	23.27	35.08	256.3	 1141	286.5	5.956	5.543	4.658	4.318	3.927	4.317	4.298	4.119	4.068	4.120	4.197	3.678	4.150	3.743	3.567	3.240	3.087	2.905	2.729	2.812	2.425	2.130	2.101	1.885	1.949	1.666	1.628	1.616	1.335	1.224	1.136	1.005	0.973	0.907	0.834	0.887	0.989	1.147	1.330	1.073	1.036	0.881	1.123	1.198	1.109	1.090	1.081	1.321	1.623	1.486	1.704	1.576	1.318	1.167	0.933	1.758	6.546	26.03
620.0	25.04	25.86	24.87	19.61	17.15	12.80	18.20	23.59	27.13	34.10	40.63	61.68	72.42	33.83	22.58	18.75	66.76	750.1	788.2	16.19	4.493	4.280	3.922	3.227	3.882	3.678	3.323	3.225	3.395	3.689	3.091	3.222	3.254	2.943	2.672	2.619	2.458	2.246	2.371	2.083	1.778	1.845	1.651	1.450	1.303	1.384	1.293	1.111	1.105	1.051	1.007	0.878	0.694	0.747	0.789	0.820	0.800	1.234	0.906	0.984	0.876	1.014	1.034	0.975	0.880	1.000	1.115	1.401	1.686	1.726	1.529	1.202	0.934	0.796	0.928	1.832	6.119
625.0	25.63	26.63	25.28	18.60	14.81	15.17	16.41	21.91	26.78	32.65	39.99	45.83	77.26	37.98	22.55	15.66	22.97	277.8	 1114	83.88	4.418	3.612	3.273	3.268	3.221	3.286	2.875	2.844	2.934	2.863	2.509	2.793	2.612	2.493	2.430	2.388	2.179	2.080	2.099	1.666	1.505	1.491	1.509	1.091	1.118	1.136	1.033	0.911	0.977	0.847	0.937	0.802	0.658	0.616	0.578	0.813	0.605	0.731	0.890	0.931	0.825	0.684	0.867	0.824	0.850	0.975	1.116	1.355	1.390	1.506	1.424	1.009	0.939	0.743	0.570	0.754	1.734
630.0	21.63	24.76	22.78	18.63	12.95	14.18	15.31	19.05	23.75	31.08	37.24	42.11	68.81	47.78	23.73	14.62	12.65	70.75	701.1	617.8	21.50	3.223	2.700	2.791	2.628	2.609	2.463	2.394	2.321	2.292	2.292	2.259	2.039	1.866	2.028	1.931	1.587	1.512	1.693	1.267	1.160	1.142	1.002	0.986	1.045	0.934	0.917	0.778	0.717	0.659	0.658	0.542	0.513	0.451	0.460	0.576	0.567	0.580	0.637	0.714	0.835	0.649	0.753	0.682	0.727	0.824	0.888	0.902	1.036	1.350	1.094	0.806	0.727	0.667	0.419	0.493	0.579
635.0	20.15	25.82	22.22	20.20	11.23	13.01	13.79	17.47	22.90	29.81	35.13	37.26	55.37	54.22	27.17	13.46	9.541	20.50	186.3	883.2	215.7	2.766	2.303	2.583	2.125	1.965	1.894	1.760	1.850	1.901	1.908	1.686	1.698	1.387	1.546	1.624	1.293	1.280	1.041	1.035	0.937	0.975	0.799	0.919	0.828	0.723	0.762	0.706	0.649	0.616	0.507	0.433	0.417	0.431	0.375	0.441	0.544	0.445	0.491	0.575	0.636	0.520	0.515	0.581	0.601	0.633	0.670	0.668	0.881	0.898	0.939	0.697	0.653	0.570	0.327	0.345	0.359
640.0	23.88	25.54	21.75	19.21	12.44	12.50	14.72	15.85	23.15	28.97	33.60	38.02	46.93	51.97	31.36	14.64	8.830	9.640	46.56	574.3	591.8	9.064	2.089	2.231	2.219	1.687	1.514	1.233	1.516	1.594	1.453	1.415	1.382	1.197	1.325	1.287	0.960	1.078	0.995	1.020	0.923	0.913	0.754	0.785	0.673	0.595	0.563	0.510	0.593	0.415	0.459	0.388	0.357	0.382	0.446	0.340	0.336	0.373	0.314	0.345	0.519	0.582	0.470	0.423	0.485	0.544	0.590	0.607	0.681	0.574	0.637	0.696	0.539	0.445	0.352	0.302	0.253
645.0	23.73	21.65	23.52	15.67	14.48	11.81	13.16	17.29	20.02	28.33	33.66	35.97	45.93	43.60	38.86	14.69	9.107	6.679	14.18	218.1	833.1	65.56	2.217	1.557	1.797	1.732	1.326	1.459	1.344	1.494	1.361	1.094	1.432	1.051	1.147	1.136	0.871	1.070	0.825	0.742	0.715	0.712	0.770	0.630	0.505	0.469	0.523	0.427	0.451	0.418	0.347	0.291	0.351	0.269	0.373	0.274	0.279	0.297	0.351	0.294	0.336	0.457	0.459	0.389	0.460	0.436	0.508	0.603	0.467	0.549	0.625	0.488	0.516	0.407	0.292	0.167	0.188
650.0	23.22	24.99	25.49	17.37	12.75	11.97	14.59	15.35	19.92	26.54	33.84	35.15	44.15	37.08	40.73	16.99	9.301	6.572	6.544	57.36	688.6	321.7	3.323	1.729	1.624	1.445	1.242	1.302	1.070	1.201	1.136	0.885	1.194	1.000	0.859	0.979	0.805	0.851	0.783	0.713	0.718	0.536	0.786	0.463	0.478	0.513	0.481	0.475	0.357	0.402	0.296	0.329	0.285	0.239	0.225	0.253	0.320	0.176	0.303	0.212	0.290	0.365	0.467	0.404	0.355	0.301	0.447	0.558	0.403	0.403	0.475	0.434	0.478	0.343	0.226	0.128	0.129
