Sample:	'1
File name:	Default_20250318_111122.FD3
Run date:	'11:05:01, 03/18/2025
Operator:	dsjg
Comment:	'

Instrument
Model:	F-2700 FL Spectrophotometer
Serial number:	2198-001
ROM Version:	4J14000 07

Instrument parameters
Measurement type:	3-D scan
Data mode:	Fluorescence
EX  Start WL:	220.0 nm
EX  End WL:	600.0 nm
EX Sampling interval:	5.0 nm
EM  Start WL:	230.0 nm
EM  End WL:	650.0 nm
EM Sampling interval:	5.0 nm
Scan speed:	12000 nm/min
EX Slit:	5.0 nm
EM Slit:	5.0 nm
PMT Voltage:	700 V
Response:	Auto 
Corrected spectra:	Off
Contour interval:	50.000

Peak integration
Integration method:	Rectangular
Sensitivity:	1
Threshold:	1.000

Peaks
No.	ApexEX/EM(nm)	Height(Data)
1	225.0/305.0	153.0
2	225.0/605.0	15.64
3	230.0/345.0	380.5
4	230.0/635.0	11.54
5	235.0/515.0	139.0
6	240.0/520.0	125.5
7	245.0/390.0	483.9
8	245.0/535.0	102.1
9	250.0/405.0	471.9
10	250.0/545.0	85.39
11	255.0/555.0	71.40
12	260.0/285.0	226.5
13	265.0/290.0	236.7
14	265.0/580.0	47.01
15	270.0/300.0	337.4
16	270.0/595.0	37.20
17	275.0/305.0	397.2
18	275.0/605.0	32.65
19	280.0/310.0	376.3
20	280.0/620.0	27.15
21	285.0/315.0	359.3
22	285.0/630.0	20.89
23	290.0/325.0	338.6
24	290.0/645.0	16.47
25	295.0/330.0	281.9
26	300.0/335.0	260.7
27	305.0/340.0	253.5
28	310.0/350.0	210.0
29	315.0/355.0	203.2
30	320.0/360.0	219.4
31	325.0/365.0	204.6
32	330.0/375.0	187.2
33	335.0/380.0	205.6
34	340.0/385.0	200.2
35	350.0/400.0	177.3
36	355.0/405.0	171.5
37	360.0/410.0	150.4
38	365.0/415.0	143.0
39	370.0/425.0	137.1
40	385.0/445.0	95.22
41	400.0/465.0	58.90
42	410.0/475.0	41.91
43	415.0/485.0	36.10
44	420.0/490.0	31.44
45	425.0/495.0	27.03
46	435.0/510.0	19.08
47	440.0/515.0	16.95
48	445.0/525.0	13.97
49	450.0/530.0	11.63
50	455.0/535.0	9.979
51	460.0/545.0	8.304
52	545.0/300.0	2.382
53	555.0/305.0	2.582
54	560.0/310.0	2.281
55	570.0/315.0	2.327
56	580.0/320.0	2.531
57	585.0/325.0	2.519

Data points
	220.0	225.0	230.0	235.0	240.0	245.0	250.0	255.0	260.0	265.0	270.0	275.0	280.0	285.0	290.0	295.0	300.0	305.0	310.0	315.0	320.0	325.0	330.0	335.0	340.0	345.0	350.0	355.0	360.0	365.0	370.0	375.0	380.0	385.0	390.0	395.0	400.0	405.0	410.0	415.0	420.0	425.0	430.0	435.0	440.0	445.0	450.0	455.0	460.0	465.0	470.0	475.0	480.0	485.0	490.0	495.0	500.0	505.0	510.0	515.0	520.0	525.0	530.0	535.0	540.0	545.0	550.0	555.0	560.0	565.0	570.0	575.0	580.0	585.0	590.0	595.0	600.0
230.0	47.61	 1538	 3755	 1185	55.07	5.124	3.913	3.000	1.960	1.435	1.278	1.211	1.178	0.948	0.715	0.753	0.651	0.570	0.551	0.502	0.471	0.430	0.417	0.411	0.343	0.392	0.373	0.311	0.331	0.320	0.309	0.257	0.243	0.236	0.250	0.281	0.297	0.247	0.211	0.207	0.199	0.160	0.192	0.192	0.142	0.133	0.198	1.151	4.205	5.907	3.318	0.769	0.171	0.114	0.109	0.085	0.097	0.113	0.087	0.080	0.075	0.082	0.071	0.077	0.068	0.071	0.076	0.062	0.058	0.063	0.062	0.059	0.053	0.062	0.032	0.041	0.056
235.0	44.57	442.7	 2661	 4906	 2514	54.70	5.909	3.632	2.087	1.752	1.952	1.613	1.513	0.996	0.829	0.732	0.543	0.677	0.585	0.573	0.491	0.484	0.371	0.390	0.427	0.406	0.363	0.290	0.341	0.285	0.293	0.300	0.237	0.205	0.274	0.215	0.268	0.292	0.257	0.216	0.195	0.136	0.159	0.144	0.171	0.196	0.158	0.394	1.300	3.541	6.511	9.518	6.116	1.581	0.180	0.091	0.140	0.093	0.071	0.093	0.087	0.066	0.072	0.070	0.080	0.068	0.064	0.084	0.045	0.059	0.066	0.053	0.050	0.063	0.064	0.041	0.053
240.0	55.71	132.7	877.0	 4529	 8850	407.8	23.32	5.193	3.055	2.065	2.426	1.511	1.329	1.018	0.926	0.638	0.710	0.551	0.670	0.478	0.513	0.461	0.510	0.384	0.376	0.427	0.416	0.325	0.345	0.206	0.310	0.331	0.295	0.224	0.202	0.263	0.203	0.274	0.239	0.216	0.238	0.150	0.189	0.137	0.161	0.264	0.220	0.187	0.404	0.999	2.622	8.155	13.56	11.61	4.701	0.667	0.141	0.066	0.063	0.098	0.078	0.060	0.069	0.090	0.091	0.079	0.065	0.067	0.061	0.078	0.065	0.036	0.031	0.070	0.067	0.052	0.054
245.0	55.90	100.5	232.5	 1706	 9159	 3307	299.7	10.56	3.877	2.599	2.286	1.844	1.627	1.047	0.929	1.054	0.713	0.745	0.601	0.595	0.481	0.493	0.559	0.442	0.460	0.490	0.331	0.412	0.338	0.274	0.303	0.282	0.272	0.248	0.240	0.252	0.187	0.221	0.237	0.244	0.232	0.239	0.228	0.199	0.180	0.249	0.325	0.412	0.374	0.333	0.701	2.559	7.020	13.69	16.06	10.17	3.121	0.307	0.077	0.132	0.090	0.084	0.088	0.081	0.111	0.070	0.134	0.085	0.057	0.076	0.035	0.058	0.031	0.093	0.051	0.051	0.044
250.0	35.76	83.09	148.8	438.7	 3090	 4057	 4331	 1148	50.93	4.040	3.039	2.336	2.035	1.514	1.279	1.001	0.774	0.801	0.701	0.531	0.556	0.578	0.508	0.449	0.442	0.437	0.380	0.389	0.327	0.372	0.273	0.312	0.307	0.242	0.228	0.194	0.222	0.228	0.208	0.220	0.253	0.236	0.214	0.189	0.184	0.174	0.217	0.368	0.473	0.505	0.448	0.794	1.791	4.054	7.844	12.00	15.17	13.76	8.296	2.815	0.301	0.125	0.091	0.077	0.106	0.054	0.101	0.084	0.084	0.078	0.058	0.079	0.051	0.062	0.055	0.045	0.045
255.0	26.20	40.26	104.9	235.6	741.7	 1067	 3595	 6681	 1333	50.51	4.165	3.262	2.525	1.960	1.409	1.256	1.095	0.968	0.758	0.754	0.713	0.503	0.640	0.510	0.479	0.449	0.463	0.382	0.430	0.342	0.339	0.329	0.291	0.273	0.275	0.221	0.199	0.276	0.210	0.222	0.232	0.262	0.217	0.196	0.173	0.159	0.163	0.184	0.313	0.440	0.649	0.899	0.790	1.028	1.863	2.890	5.122	10.93	19.35	22.12	12.53	3.081	0.246	0.108	0.118	0.106	0.093	0.065	0.067	0.089	0.088	0.070	0.066	0.061	0.078	0.051	0.044
260.0	31.76	30.21	48.98	164.2	287.9	269.9	 1100	 5503	 4099	229.8	21.10	4.331	3.291	2.260	1.695	1.298	1.125	1.017	0.945	0.774	0.809	0.563	0.633	0.598	0.466	0.516	0.523	0.418	0.404	0.335	0.371	0.372	0.278	0.291	0.332	0.257	0.230	0.233	0.206	0.187	0.200	0.250	0.225	0.214	0.206	0.218	0.172	0.210	0.191	0.254	0.327	0.810	1.070	0.874	0.630	0.741	1.295	2.881	7.893	17.29	25.33	21.57	8.945	1.375	0.120	0.148	0.093	0.096	0.092	0.107	0.084	0.078	0.082	0.075	0.039	0.068	0.053
265.0	37.19	25.66	25.84	78.23	217.4	158.1	271.3	 1836	 3921	 3511	190.7	10.86	4.097	2.925	2.356	1.543	1.178	1.128	0.950	0.667	0.687	0.644	0.516	0.563	0.432	0.565	0.547	0.400	0.439	0.357	0.409	0.432	0.251	0.285	0.257	0.259	0.271	0.219	0.236	0.183	0.198	0.234	0.219	0.204	0.221	0.179	0.200	0.257	0.147	0.157	0.152	0.375	0.810	1.283	1.034	0.507	0.460	0.816	1.956	4.916	12.62	24.03	27.97	19.13	5.419	0.527	0.149	0.084	0.093	0.103	0.088	0.084	0.073	0.082	0.038	0.061	0.060
270.0	42.86	37.10	25.38	33.66	105.4	174.4	169.9	445.4	 1220	 3059	 3488	 1495	52.41	4.377	3.038	2.093	1.570	1.391	1.061	0.926	0.753	0.702	0.493	0.558	0.573	0.570	0.503	0.445	0.413	0.421	0.424	0.407	0.299	0.334	0.232	0.287	0.260	0.245	0.202	0.203	0.175	0.201	0.184	0.237	0.258	0.249	0.219	0.233	0.214	0.189	0.137	0.199	0.346	0.584	0.846	1.017	1.092	0.700	0.631	1.256	3.067	6.778	12.17	19.49	23.22	22.11	13.82	4.880	0.550	0.131	0.122	0.088	0.104	0.088	0.065	0.074	0.085
275.0	53.65	59.74	44.19	29.13	40.58	82.60	201.0	225.0	302.1	768.0	 2119	 4500	 1135	62.68	4.042	2.589	2.227	1.724	1.392	1.154	0.836	0.795	0.653	0.838	0.607	0.641	0.551	0.465	0.469	0.471	0.438	0.338	0.313	0.311	0.302	0.356	0.232	0.216	0.202	0.209	0.164	0.229	0.209	0.208	0.246	0.246	0.236	0.278	0.305	0.199	0.202	0.150	0.221	0.277	0.341	0.511	0.858	1.321	1.466	0.889	0.917	1.713	2.956	4.663	6.803	13.76	26.30	30.27	20.27	5.003	0.368	0.093	0.112	0.116	0.083	0.105	0.092
280.0	76.17	78.66	58.79	38.91	28.20	37.82	125.5	232.6	160.1	205.9	619.3	 2815	 4508	905.8	34.75	4.270	2.773	2.019	1.843	1.504	0.942	0.765	0.894	0.754	0.576	0.736	0.577	0.627	0.495	0.451	0.531	0.436	0.339	0.399	0.317	0.383	0.280	0.285	0.272	0.208	0.178	0.218	0.179	0.219	0.256	0.301	0.305	0.332	0.401	0.306	0.231	0.203	0.189	0.226	0.288	0.249	0.379	0.879	1.583	1.485	1.196	0.795	0.839	1.304	1.834	3.620	9.080	19.69	32.15	29.37	14.29	1.891	0.158	0.117	0.096	0.113	0.091
285.0	97.48	102.9	83.09	43.50	25.84	24.90	59.30	181.1	226.5	122.2	182.3	886.4	 3265	 4389	670.0	13.11	3.542	2.376	2.012	1.488	1.068	1.002	0.881	0.755	0.786	0.664	0.581	0.605	0.548	0.432	0.455	0.387	0.338	0.469	0.381	0.389	0.366	0.317	0.331	0.232	0.234	0.222	0.198	0.186	0.322	0.280	0.406	0.441	0.387	0.329	0.301	0.236	0.239	0.214	0.180	0.217	0.237	0.389	0.630	1.167	1.686	1.361	0.784	0.626	0.690	1.064	2.360	5.468	12.97	25.97	35.10	25.04	7.565	0.500	0.131	0.131	0.098
290.0	99.09	125.4	104.0	59.48	35.20	29.67	41.27	90.10	198.4	236.7	154.0	268.6	974.4	 2601	 3606	 1749	36.82	4.076	2.664	2.039	1.585	1.319	1.093	0.868	0.897	0.719	0.717	0.634	0.642	0.514	0.509	0.477	0.418	0.406	0.438	0.403	0.393	0.370	0.294	0.263	0.249	0.237	0.217	0.220	0.284	0.302	0.409	0.484	0.458	0.410	0.346	0.260	0.294	0.235	0.183	0.209	0.242	0.326	0.373	0.595	1.039	1.387	1.555	1.515	0.950	0.775	1.006	1.670	3.381	7.066	13.13	20.56	24.36	25.81	15.47	5.365	0.456
295.0	115.0	137.3	118.8	71.52	45.58	39.96	46.53	65.20	112.2	234.2	316.7	195.9	300.7	665.7	 1609	 3978	 2760	45.29	4.020	2.637	2.113	1.740	1.433	1.114	0.942	0.784	0.816	0.722	0.644	0.602	0.525	0.538	0.509	0.460	0.385	0.374	0.435	0.351	0.307	0.290	0.210	0.219	0.214	0.260	0.287	0.273	0.352	0.459	0.537	0.444	0.380	0.361	0.276	0.252	0.296	0.255	0.311	0.334	0.308	0.459	0.581	0.795	0.995	1.491	2.004	1.832	1.222	0.984	1.321	2.063	3.417	5.117	6.931	13.30	26.59	33.20	22.23
300.0	113.5	142.6	122.8	82.02	54.90	44.16	55.76	69.29	91.77	170.2	337.4	317.8	185.4	224.8	462.9	 2002	 4760	585.2	27.66	3.911	2.526	2.063	1.551	1.329	1.159	0.955	0.821	0.842	0.697	0.604	0.657	0.601	0.443	0.489	0.484	0.408	0.384	0.327	0.261	0.330	0.261	0.226	0.250	0.227	0.320	0.354	0.332	0.348	0.523	0.481	0.462	0.404	0.358	0.339	0.363	0.322	0.336	0.427	0.451	0.431	0.523	0.614	0.715	0.992	1.670	2.382	2.365	1.396	1.013	1.103	1.360	1.609	1.953	3.508	8.714	20.38	36.53
305.0	114.8	153.0	136.4	87.63	69.36	55.01	64.39	79.71	100.9	150.7	260.0	397.2	260.9	146.3	162.4	587.2	 2616	 4514	479.0	13.84	3.129	2.493	1.695	1.585	1.466	1.178	0.864	0.961	0.896	0.604	0.615	0.666	0.573	0.548	0.424	0.543	0.419	0.386	0.357	0.348	0.275	0.298	0.337	0.245	0.268	0.338	0.390	0.448	0.518	0.504	0.471	0.446	0.379	0.407	0.352	0.384	0.420	0.403	0.612	0.564	0.568	0.652	0.744	0.857	1.160	1.623	2.272	2.582	1.730	1.036	0.973	0.958	0.907	1.116	2.232	5.509	13.64
310.0	109.5	148.9	142.5	102.4	79.56	68.25	75.08	94.96	115.0	154.5	210.6	309.1	376.3	222.6	119.5	178.1	708.9	 2290	 3591	 1744	28.41	3.739	2.547	2.010	1.640	1.375	1.131	1.002	0.900	0.714	0.675	0.684	0.649	0.564	0.542	0.519	0.420	0.363	0.354	0.369	0.361	0.286	0.321	0.279	0.338	0.371	0.376	0.453	0.543	0.506	0.460	0.450	0.482	0.434	0.418	0.480	0.463	0.505	0.618	0.632	0.716	0.764	0.825	0.943	1.095	1.280	1.539	1.986	2.281	2.172	1.599	1.065	0.737	0.671	0.883	1.547	3.372
315.0	117.5	153.7	163.3	115.3	93.48	84.89	89.87	109.0	131.2	170.4	211.7	255.0	309.4	359.3	202.6	101.3	196.1	548.2	 1328	 4060	 2697	36.93	3.868	2.625	2.068	1.594	1.246	1.164	0.822	0.873	0.885	0.725	0.697	0.637	0.599	0.555	0.456	0.338	0.407	0.384	0.300	0.290	0.251	0.312	0.307	0.366	0.464	0.607	0.559	0.546	0.478	0.442	0.576	0.487	0.513	0.524	0.507	0.604	0.668	0.701	0.760	0.829	0.875	1.042	1.176	1.232	1.386	1.505	1.700	1.860	2.327	2.321	1.463	0.791	0.698	0.750	1.161
320.0	130.4	194.7	194.5	137.3	100.7	93.14	99.10	122.0	148.2	186.2	224.5	257.3	274.0	334.9	319.8	110.8	93.10	154.8	347.4	 1761	 4849	 1896	24.04	3.809	2.492	2.133	1.381	1.517	0.944	0.934	0.856	0.839	0.642	0.626	0.620	0.568	0.453	0.439	0.351	0.358	0.326	0.255	0.263	0.305	0.324	0.365	0.511	0.579	0.756	0.646	0.603	0.591	0.603	0.607	0.577	0.639	0.643	0.607	0.653	0.816	0.840	0.880	1.026	1.156	1.188	1.258	1.353	1.344	1.418	1.496	1.817	2.202	2.531	1.692	0.849	0.680	0.685
325.0	149.0	223.5	240.9	177.8	125.9	102.0	114.0	133.9	164.2	205.7	241.5	273.8	277.1	282.1	338.6	227.6	89.02	76.12	105.4	469.1	 2457	 4871	395.5	13.17	3.374	2.438	1.729	1.641	1.171	1.149	0.938	0.875	0.610	0.590	0.591	0.642	0.506	0.529	0.385	0.395	0.333	0.292	0.328	0.296	0.370	0.459	0.550	0.738	0.857	0.770	0.647	0.712	0.711	0.625	0.596	0.647	0.645	0.659	0.783	0.871	0.977	0.949	1.089	1.150	1.361	1.325	1.451	1.338	1.563	1.609	1.469	1.694	2.088	2.519	1.728	1.048	0.717
330.0	156.8	259.3	300.0	232.4	157.9	123.5	129.3	150.0	179.1	222.0	263.2	295.9	297.6	270.9	267.5	281.9	191.9	76.90	62.83	134.0	626.8	 2274	 3221	 1640	25.42	3.679	2.499	1.878	1.460	1.368	1.085	0.979	0.808	0.731	0.693	0.625	0.518	0.455	0.409	0.379	0.372	0.321	0.329	0.315	0.396	0.483	0.583	0.829	1.004	0.940	0.853	0.915	0.871	0.827	0.649	0.722	0.794	0.842	0.853	0.909	1.067	1.101	1.174	1.338	1.476	1.479	1.590	1.561	1.664	1.665	1.618	1.651	1.602	1.858	1.860	1.975	1.492
335.0	175.8	270.5	340.4	273.6	196.3	156.4	147.8	166.0	198.2	239.5	281.0	314.8	315.2	287.2	244.4	219.2	260.7	173.3	70.51	69.20	170.1	535.6	 1162	 4121	 2466	34.19	3.516	2.572	1.900	1.518	1.343	1.053	1.017	0.741	0.628	0.587	0.618	0.498	0.518	0.377	0.464	0.321	0.333	0.353	0.402	0.463	0.566	0.906	1.183	1.083	1.062	1.039	1.043	0.821	0.804	0.845	0.870	1.026	0.892	0.956	1.114	1.161	1.347	1.343	1.433	1.516	1.678	1.751	1.854	1.836	1.699	1.714	1.601	1.518	1.484	1.542	1.761
340.0	169.8	290.9	365.3	308.8	222.9	186.8	174.3	182.8	209.5	251.2	289.0	327.8	327.5	305.0	256.3	201.3	213.6	253.5	119.1	62.81	75.39	147.3	294.5	 1732	 4903	 1797	23.23	3.354	2.420	1.827	1.481	1.216	0.988	0.775	0.824	0.717	0.647	0.576	0.531	0.432	0.467	0.411	0.307	0.366	0.453	0.517	0.591	0.938	1.163	1.158	1.227	1.233	1.135	1.014	0.901	0.875	0.978	1.098	1.000	1.064	1.166	1.331	1.386	1.477	1.575	1.619	1.708	1.851	1.800	1.779	1.780	1.677	1.706	1.515	1.275	1.301	1.224
345.0	176.5	285.8	380.5	342.7	255.7	206.9	195.0	201.8	220.3	259.5	297.8	333.6	330.4	307.6	264.8	208.9	176.7	231.1	207.5	74.86	60.83	67.75	92.03	442.8	 2566	 4747	354.5	13.57	3.055	2.243	1.718	1.397	1.150	0.874	0.893	0.694	0.664	0.630	0.481	0.516	0.470	0.497	0.257	0.346	0.413	0.520	0.663	0.941	1.204	1.238	1.194	1.372	1.299	1.098	1.055	0.981	1.057	1.125	1.041	1.219	1.296	1.380	1.421	1.576	1.620	1.681	1.659	1.762	1.793	1.812	1.910	1.713	1.739	1.525	1.439	1.171	1.113
350.0	174.7	270.3	378.3	360.9	298.8	253.6	237.6	233.2	252.0	276.6	308.4	336.0	337.4	317.4	276.3	221.3	179.2	175.2	210.0	175.8	86.21	61.55	56.91	126.1	640.4	 2261	 2966	 1501	24.06	3.613	2.232	1.718	1.343	1.133	0.924	0.806	0.662	0.613	0.506	0.474	0.413	0.424	0.334	0.352	0.439	0.516	0.680	0.917	1.194	1.262	1.299	1.359	1.450	1.298	1.425	1.251	1.306	1.406	1.191	1.332	1.431	1.415	1.537	1.644	1.655	1.687	1.731	1.814	1.884	1.938	1.861	1.782	1.714	1.623	1.527	1.386	1.154
355.0	161.2	270.3	372.4	377.3	336.2	316.1	291.3	292.7	300.7	312.5	331.4	351.8	353.1	325.9	287.3	240.0	197.9	170.0	162.2	203.2	175.8	83.11	61.53	66.58	172.2	528.4	 1066	 3746	 2302	35.06	3.520	2.330	1.519	1.308	1.044	0.897	0.655	0.608	0.564	0.519	0.445	0.412	0.398	0.399	0.463	0.487	0.628	0.906	1.130	1.322	1.279	1.454	1.553	1.488	1.498	1.429	1.485	1.553	1.510	1.662	1.705	1.740	1.862	1.682	1.725	1.879	1.994	1.789	1.960	1.964	1.954	1.935	1.869	1.652	1.593	1.472	1.416
360.0	154.6	258.5	375.6	398.8	364.7	347.7	335.6	331.2	334.5	345.5	358.8	364.2	358.6	337.0	301.9	257.6	215.5	183.8	157.6	167.5	219.4	139.7	74.21	62.58	75.24	145.3	267.4	 1574	 4467	 1774	23.74	3.073	1.916	1.514	1.165	0.970	0.727	0.643	0.689	0.455	0.460	0.424	0.456	0.429	0.425	0.542	0.659	0.893	1.068	1.314	1.310	1.582	1.734	1.642	1.725	1.535	1.765	1.801	1.787	1.763	2.002	1.746	1.867	1.902	1.903	1.967	1.989	1.908	2.040	2.062	2.017	2.004	1.944	1.874	1.513	1.559	1.466
365.0	152.7	266.9	370.4	407.9	386.9	375.6	368.5	366.5	370.0	372.5	376.4	367.1	370.7	347.8	313.5	269.0	230.8	194.5	167.8	154.8	191.6	204.6	105.8	70.45	61.96	66.56	84.09	396.6	 2343	 4598	344.4	12.81	2.787	1.762	1.394	1.003	0.784	0.787	0.658	0.518	0.435	0.402	0.406	0.396	0.412	0.527	0.632	0.893	1.080	1.327	1.375	1.635	1.771	1.753	1.800	1.793	1.972	1.980	1.939	1.965	1.944	1.950	1.892	1.904	2.014	1.983	1.848	1.993	1.906	2.096	1.986	2.038	1.974	1.850	1.602	1.762	1.677
370.0	149.1	254.1	362.8	411.8	418.3	421.4	406.0	395.0	399.2	397.5	397.1	389.3	381.9	353.6	322.2	280.6	245.4	213.9	185.2	164.8	161.5	192.3	181.5	108.2	72.67	59.80	52.73	113.4	581.0	 2212	 2912	 1374	21.64	2.888	1.915	1.307	1.004	0.799	0.755	0.574	0.487	0.495	0.388	0.435	0.457	0.497	0.676	0.806	1.039	1.224	1.380	1.641	1.899	1.848	1.937	2.000	2.110	2.097	2.095	2.084	2.128	2.213	2.096	2.301	2.145	2.173	2.145	1.980	2.056	2.063	1.910	2.039	2.137	1.907	1.714	1.887	1.742
375.0	153.6	251.2	359.2	412.5	443.4	451.6	442.6	427.6	426.4	423.1	415.6	405.5	386.4	358.8	328.0	291.3	261.5	230.5	203.3	180.5	164.4	162.2	187.2	186.5	103.9	73.69	57.20	59.49	153.4	512.7	 1062	 3454	 2046	29.82	2.846	1.637	1.245	0.937	0.899	0.686	0.503	0.580	0.438	0.491	0.457	0.566	0.569	0.798	1.129	1.199	1.417	1.594	1.885	1.972	2.033	2.156	2.193	2.314	2.236	2.301	2.248	2.378	2.366	2.372	2.223	2.071	2.200	2.084	2.123	2.104	2.058	2.045	2.142	2.102	1.819	1.770	1.751
380.0	140.1	237.6	359.0	423.8	447.8	472.6	465.2	448.7	435.9	437.6	426.8	415.5	392.8	361.9	332.5	296.8	268.9	240.4	215.1	192.1	173.4	161.5	164.3	205.6	155.1	89.24	67.21	54.73	64.83	136.3	259.7	 1469	 3964	 1400	19.64	2.009	1.430	1.190	0.960	0.675	0.542	0.530	0.429	0.495	0.515	0.604	0.726	0.926	1.074	1.125	1.239	1.589	1.871	2.209	2.168	2.250	2.231	2.398	2.319	2.317	2.216	2.509	2.481	2.372	2.211	2.336	2.162	1.954	2.027	2.013	2.141	2.079	1.997	2.065	2.082	1.803	1.924
385.0	146.6	239.5	351.8	428.6	469.8	476.7	468.1	451.0	448.7	450.1	429.4	418.1	396.8	362.1	331.7	301.7	273.3	248.0	221.7	201.9	181.8	167.9	157.8	179.1	200.2	121.2	78.46	61.78	50.89	57.09	76.56	365.6	 2129	 3537	278.9	8.718	1.777	1.264	1.113	0.858	0.688	0.624	0.506	0.487	0.512	0.546	0.675	0.944	1.086	1.138	1.324	1.627	1.965	2.141	2.253	2.381	2.387	2.420	2.420	2.377	2.460	2.394	2.471	2.383	2.297	2.235	2.280	2.157	2.280	2.186	2.205	2.117	2.069	2.062	1.883	1.962	1.979
390.0	146.5	242.1	338.0	410.1	470.8	483.9	463.4	461.1	450.6	446.3	425.9	415.3	392.6	363.6	331.9	300.7	276.0	253.2	230.9	211.1	194.1	176.7	164.6	160.0	179.0	174.9	115.0	75.76	58.34	48.13	42.88	99.69	524.4	 1716	 2237	 1076	17.44	2.102	1.284	1.050	0.703	0.621	0.545	0.512	0.518	0.582	0.652	0.883	0.997	1.168	1.359	1.733	1.985	2.118	2.288	2.407	2.450	2.448	2.555	2.411	2.400	2.454	2.461	2.375	2.219	2.303	2.250	2.131	2.198	2.204	2.066	1.999	2.061	2.084	1.904	1.901	1.925
395.0	141.6	226.2	336.6	407.6	465.1	479.3	469.2	459.1	448.8	449.7	427.3	410.8	390.7	358.3	328.5	300.3	275.7	257.0	238.0	218.9	202.6	186.5	175.6	161.5	157.0	168.3	170.3	108.1	70.53	55.98	44.05	46.25	133.5	395.8	807.3	 2650	 1571	24.44	2.033	1.212	0.949	0.698	0.679	0.553	0.573	0.579	0.615	0.928	0.988	1.168	1.317	1.737	2.051	2.123	2.298	2.351	2.369	2.376	2.640	2.492	2.289	2.429	2.334	2.339	2.247	2.405	2.165	2.022	2.241	2.084	2.033	2.154	2.048	1.994	1.992	1.748	1.978
400.0	133.0	229.7	326.7	409.3	451.5	475.6	471.7	460.6	440.7	439.8	421.8	404.0	383.5	355.4	323.9	294.6	275.0	258.0	238.7	219.5	206.5	192.9	179.6	166.1	154.8	150.0	177.3	149.0	85.54	64.26	48.89	39.23	50.98	102.7	196.5	 1141	 2859	 1034	15.79	1.646	1.138	0.795	0.708	0.639	0.548	0.597	0.670	0.821	0.924	1.225	1.327	1.686	1.891	1.962	2.313	2.247	2.321	2.481	2.454	2.371	2.364	2.329	2.349	2.530	2.310	2.227	2.178	1.988	2.113	2.021	2.147	1.813	2.084	1.962	1.923	1.828	2.008
405.0	134.4	220.8	320.1	401.2	447.9	470.4	471.9	463.7	439.5	433.2	419.0	396.8	372.8	349.1	322.4	291.9	274.2	255.3	239.6	223.3	207.9	196.2	183.3	170.0	160.0	145.2	153.7	171.5	116.2	73.52	55.88	43.95	36.41	40.65	56.65	281.6	 1499	 2332	238.9	8.279	1.310	1.012	0.829	0.643	0.606	0.704	0.702	0.953	1.008	1.059	1.324	1.593	1.847	1.989	2.084	2.339	2.428	2.339	2.335	2.305	2.452	2.390	2.387	2.571	2.316	2.399	2.090	2.033	2.063	2.034	2.116	1.971	2.176	2.029	1.967	1.859	1.910
410.0	130.8	211.5	303.9	377.8	431.4	455.9	458.0	450.3	438.3	423.7	407.2	391.6	362.8	341.7	313.7	286.3	269.3	251.9	237.1	219.6	207.1	197.6	185.3	175.9	163.2	148.9	140.8	149.9	150.4	105.3	68.42	51.49	39.00	31.47	29.19	74.96	364.8	 1198	 1808	885.2	15.01	1.684	1.004	0.737	0.671	0.695	0.723	0.994	1.006	1.097	1.348	1.541	1.902	1.965	2.034	2.166	2.294	2.347	2.288	2.386	2.361	2.425	2.445	2.298	2.189	2.147	2.114	2.137	2.006	1.955	1.934	2.034	1.978	1.877	1.795	1.761	1.966
415.0	132.1	214.6	296.7	360.2	412.7	437.4	440.6	439.0	429.6	420.4	401.3	380.2	348.9	328.5	301.5	277.0	259.3	242.0	232.7	218.4	205.7	192.9	186.2	175.1	165.2	152.1	138.8	131.7	138.2	143.0	93.09	60.90	46.13	34.78	27.39	31.53	92.11	276.0	650.1	 1949	 1126	20.79	1.517	0.946	0.808	0.857	0.743	0.918	0.944	1.059	1.330	1.450	1.803	1.873	2.039	2.001	2.402	2.233	2.493	2.339	2.437	2.358	2.348	2.227	2.290	1.991	2.147	1.979	1.998	2.002	1.866	1.851	1.925	1.931	1.728	1.799	1.859
420.0	120.3	210.0	295.0	349.6	395.5	425.3	441.8	431.5	424.3	410.8	391.5	370.7	342.9	317.2	290.3	270.0	249.7	237.0	224.5	213.0	202.0	189.5	186.3	175.5	166.0	154.5	139.4	129.7	123.9	141.1	121.9	73.96	51.19	39.01	29.64	24.26	33.45	70.36	155.5	831.4	 2099	250.5	13.37	1.209	0.895	0.867	0.852	0.901	0.900	0.988	1.234	1.526	1.756	1.735	2.135	2.192	2.354	2.218	2.280	2.246	2.364	2.319	2.141	2.190	2.210	2.058	1.981	2.001	1.909	1.833	1.776	1.852	1.869	1.795	1.791	1.786	1.588
425.0	121.3	194.1	280.4	344.0	381.6	410.4	425.1	425.8	422.2	407.1	383.8	361.0	336.0	313.1	279.3	264.5	242.0	230.0	220.9	207.9	197.7	188.7	180.4	174.0	165.4	152.2	141.0	131.6	121.3	124.1	137.1	95.91	58.42	42.76	33.19	25.46	21.91	26.22	42.35	203.4	 1135	 1833	217.9	4.884	1.165	0.961	0.753	0.869	0.957	1.040	1.212	1.452	1.709	1.849	1.989	2.082	2.147	2.249	2.337	2.135	2.212	2.354	2.192	2.169	2.077	1.950	1.817	1.959	1.963	1.817	1.680	1.876	1.876	1.737	1.714	1.724	1.632
430.0	122.6	190.1	270.1	323.3	365.0	397.9	409.9	417.5	414.5	397.1	384.8	355.4	326.9	302.4	272.6	253.4	236.2	222.5	213.7	202.2	191.4	183.7	177.9	170.8	162.3	153.9	143.9	133.9	123.2	115.9	118.8	117.4	81.29	51.42	38.29	29.30	22.99	19.22	19.18	52.56	279.6	958.4	 1430	604.7	13.09	1.380	0.907	1.027	1.039	1.023	1.120	1.413	1.588	1.721	1.904	1.890	2.152	2.253	2.286	2.203	2.239	2.351	2.128	2.134	2.117	1.904	1.873	1.853	1.745	1.777	1.674	1.867	1.826	1.659	1.713	1.597	1.576
435.0	148.3	186.5	251.3	310.6	345.4	381.5	396.8	406.3	410.9	393.7	376.6	350.8	316.0	291.8	265.1	244.9	226.9	215.3	202.4	195.1	183.9	178.2	172.9	166.7	159.2	153.8	144.3	134.7	126.5	116.3	107.5	104.8	106.4	69.34	44.75	34.24	26.74	20.68	16.44	20.20	68.85	219.7	526.3	 1576	880.7	17.18	1.237	1.198	1.071	1.133	1.081	1.424	1.564	1.779	1.889	1.771	2.018	1.986	2.310	2.263	2.070	2.158	2.119	2.004	2.003	1.938	1.737	1.823	1.848	1.820	1.671	1.689	1.702	1.601	1.735	1.494	1.621
440.0	230.8	194.5	245.0	299.6	340.4	376.0	393.6	403.4	398.4	390.1	370.2	341.0	311.2	281.8	257.4	233.0	220.9	208.5	196.9	189.9	181.5	173.9	169.6	164.1	158.5	153.1	144.0	137.1	127.4	116.9	105.7	96.37	102.2	89.12	52.87	37.77	29.16	22.40	17.41	14.35	22.87	54.55	125.4	756.1	 1787	223.9	7.669	1.368	1.290	1.201	1.096	1.402	1.534	1.746	1.723	1.766	1.905	2.030	2.114	2.186	2.020	2.233	2.097	1.965	2.117	1.914	1.702	1.734	1.724	1.754	1.648	1.546	1.680	1.551	1.658	1.514	1.594
445.0	426.2	225.7	237.3	283.9	334.1	368.8	384.0	402.0	393.2	377.7	360.4	332.5	304.2	277.3	247.7	228.2	213.7	201.3	192.2	182.3	174.8	166.9	166.1	160.5	153.1	149.7	141.1	135.6	126.0	118.6	106.7	94.58	89.95	95.22	67.58	42.05	31.45	23.90	19.17	14.56	13.51	18.40	33.28	190.7	 1109	 1496	153.7	2.949	1.374	1.119	1.159	1.417	1.553	1.667	1.579	1.705	1.870	2.097	2.064	2.135	2.256	2.232	1.887	2.062	2.035	1.985	1.806	1.918	1.710	1.747	1.487	1.602	1.578	1.482	1.664	1.570	1.495
450.0	547.0	603.9	274.3	277.6	319.3	335.5	365.3	377.0	380.0	372.0	350.3	319.8	289.8	265.0	236.6	215.2	200.4	189.8	182.3	171.5	165.7	158.8	155.2	151.0	146.7	142.7	136.8	131.7	123.7	116.9	105.5	92.86	82.28	81.05	79.09	55.61	35.46	26.36	21.32	16.35	13.37	11.78	13.31	47.20	276.9	880.5	 1231	473.2	10.16	1.537	1.295	1.406	1.413	1.569	1.588	1.659	1.792	1.869	2.039	2.104	2.099	1.998	1.984	1.904	1.898	1.877	1.735	1.807	1.680	1.583	1.471	1.518	1.544	1.395	1.488	1.381	1.367
455.0	312.9	 1278	643.4	264.1	288.6	320.3	339.8	354.0	365.1	352.5	335.3	306.7	271.6	244.3	218.6	201.0	185.8	175.0	167.3	158.7	153.2	149.2	145.8	142.0	136.8	133.9	128.6	125.4	118.8	113.1	103.7	91.16	78.80	70.04	68.33	67.85	47.05	30.15	23.57	18.22	14.31	11.43	9.695	16.06	66.03	201.2	494.6	 1326	628.8	12.23	1.487	1.539	1.535	1.561	1.476	1.621	1.740	1.789	1.863	2.090	1.945	1.927	1.994	1.885	1.832	1.850	1.736	1.541	1.566	1.472	1.472	1.506	1.410	1.484	1.416	1.470	1.409
460.0	149.3	 1368	 1408	290.9	277.6	301.8	321.5	338.5	351.0	342.4	317.8	292.8	264.3	234.1	209.4	189.5	175.4	165.7	157.8	148.8	144.2	140.3	135.2	134.0	129.9	128.0	123.5	119.5	114.9	108.8	101.5	89.53	77.53	66.42	59.60	64.61	58.12	35.18	24.85	19.55	15.57	12.47	9.873	9.700	19.38	48.84	118.1	658.1	 1366	167.0	6.814	1.518	1.558	1.602	1.489	1.617	1.768	1.834	1.757	1.972	1.887	1.939	1.811	1.726	1.759	1.799	1.655	1.566	1.460	1.462	1.383	1.378	1.301	1.308	1.374	1.354	1.349
465.0	101.3	884.0	 2320	525.2	262.3	289.0	305.4	320.7	331.2	328.1	308.5	279.6	246.1	224.3	196.3	181.0	167.8	156.0	149.3	139.8	136.8	131.6	127.3	126.3	122.9	121.9	117.4	113.4	110.7	104.5	97.48	86.38	76.31	64.35	55.35	54.97	58.90	43.18	27.00	20.81	17.26	13.27	10.67	8.627	9.625	14.96	30.00	166.1	888.9	 1113	121.9	2.776	1.633	1.594	1.497	1.648	1.746	1.813	1.701	1.741	1.888	1.972	1.723	1.695	1.789	1.653	1.566	1.474	1.530	1.475	1.359	1.354	1.238	1.309	1.254	1.267	1.247
470.0	84.50	337.9	 2160	 1708	356.9	261.9	283.1	297.2	309.2	305.1	287.3	259.6	228.2	203.9	182.8	165.0	154.7	144.6	136.4	129.6	123.9	119.6	118.0	116.8	113.9	111.7	107.5	105.6	103.2	99.05	93.32	83.22	72.69	62.42	53.17	47.78	48.33	48.22	34.90	23.30	17.60	14.47	11.80	9.791	8.199	8.203	10.73	40.55	225.4	678.3	881.9	358.5	9.691	1.690	1.482	1.574	1.679	1.658	1.592	1.595	1.714	1.846	1.635	1.611	1.552	1.599	1.465	1.336	1.359	1.259	1.272	1.152	1.188	1.112	1.191	1.178	1.220
475.0	85.97	172.5	877.8	 2660	 1250	243.3	253.4	271.4	280.9	281.1	265.1	237.6	212.8	188.7	168.0	149.2	139.6	131.1	124.5	118.0	111.9	108.4	107.1	105.4	102.9	100.5	100.1	96.80	94.10	91.31	85.31	78.23	68.94	58.29	50.77	44.74	40.03	40.48	41.91	29.57	19.51	15.61	12.64	10.59	9.010	7.716	6.781	12.99	53.25	154.8	343.6	946.1	198.1	11.47	1.619	1.500	1.550	1.669	1.622	1.597	1.517	1.459	1.625	1.606	1.533	1.485	1.306	1.330	1.219	1.093	1.164	1.174	1.062	1.093	1.061	1.011	1.126
480.0	90.81	128.8	334.6	 2138	 2798	297.3	243.1	256.5	265.8	268.1	249.7	226.3	203.1	176.2	158.2	140.8	131.8	122.4	117.7	110.2	105.6	100.1	98.42	96.56	96.46	94.26	93.43	89.69	88.85	86.35	81.51	73.69	66.00	56.42	49.18	43.09	37.50	34.35	39.19	35.11	22.40	16.22	13.27	11.38	9.496	8.263	6.526	7.033	15.39	37.44	82.14	444.5	877.6	171.2	5.464	1.631	1.481	1.487	1.505	1.530	1.436	1.366	1.485	1.403	1.453	1.309	1.265	1.250	1.189	1.119	1.058	1.196	0.985	1.026	1.050	0.982	1.102
485.0	81.73	117.6	185.7	 1114	 4071	476.1	230.1	245.2	249.0	251.2	236.2	213.0	191.5	168.9	150.4	134.0	123.1	116.2	110.8	102.5	99.92	96.07	92.84	89.75	90.12	89.53	86.66	84.51	83.20	81.52	77.17	70.34	62.51	55.18	47.58	41.96	36.67	32.43	32.60	36.10	27.88	17.89	14.01	11.56	10.04	8.523	6.688	5.972	7.067	11.22	21.12	110.6	580.2	827.9	27.16	2.494	1.613	1.563	1.585	1.381	1.449	1.377	1.365	1.285	1.509	1.417	1.173	1.219	1.084	1.003	1.076	1.001	0.961	0.945	0.954	0.934	0.923
490.0	69.14	116.7	144.3	407.3	 2969	 1588	290.0	225.3	231.0	231.7	215.1	201.3	174.6	155.1	139.2	122.4	112.4	106.1	100.1	95.56	90.87	87.94	84.17	83.72	81.48	80.75	79.87	77.64	76.73	74.86	71.16	65.67	58.32	52.23	45.18	40.29	35.03	31.22	27.87	30.01	31.44	23.47	15.87	12.65	10.43	9.062	7.392	6.680	5.653	5.886	7.649	27.23	145.3	464.3	670.1	288.5	10.28	1.553	1.571	1.381	1.291	1.339	1.356	1.249	1.251	1.261	1.149	1.128	1.045	0.963	0.910	0.898	0.870	0.884	0.843	0.829	0.802
495.0	54.47	109.7	137.5	194.2	 1042	 2140	814.2	203.1	212.1	211.2	200.4	182.2	161.6	139.2	125.3	112.1	102.0	96.55	89.05	83.74	81.97	79.08	75.74	74.94	73.06	73.12	71.62	69.63	69.04	67.79	65.38	59.17	54.47	47.69	42.57	37.80	33.33	29.19	26.42	24.33	26.29	27.03	19.73	13.17	10.92	9.561	7.966	6.797	5.972	5.223	4.850	8.789	34.55	106.3	285.1	785.1	209.5	12.13	1.643	1.285	1.326	1.310	1.208	1.139	1.222	1.079	1.008	1.029	0.910	0.999	0.953	0.777	0.837	0.817	0.747	0.897	0.662
500.0	56.00	95.06	137.2	146.5	364.1	 1593	 1537	257.2	196.8	189.1	182.2	169.3	148.6	128.5	116.9	102.9	94.96	87.04	81.97	77.38	73.52	72.13	68.95	67.33	66.65	67.10	64.74	64.51	63.87	62.60	60.55	55.23	50.03	44.93	39.85	35.38	31.75	27.46	24.87	22.54	21.82	25.04	22.57	14.93	11.11	9.576	8.394	6.947	6.132	5.023	4.190	4.703	10.21	25.94	68.23	369.8	798.4	178.2	5.652	1.337	1.333	1.318	1.254	1.101	1.038	0.963	0.905	1.020	0.875	0.943	0.851	0.813	0.712	0.729	0.718	0.741	0.654
505.0	47.08	82.98	145.0	129.5	187.9	802.7	 1948	574.3	181.3	177.4	169.5	156.4	139.1	118.2	108.2	95.09	86.76	80.26	74.01	71.50	67.98	65.92	63.65	61.77	62.59	62.26	59.07	58.91	58.92	57.55	55.50	51.37	47.36	41.28	37.35	33.91	30.27	26.31	23.77	21.47	18.79	20.85	22.40	17.80	11.84	9.511	8.286	6.983	5.883	5.256	4.374	3.861	4.813	7.984	17.24	91.77	499.0	748.9	29.37	2.651	1.315	1.233	1.140	1.102	0.887	0.999	0.989	0.884	0.678	0.822	0.846	0.775	0.679	0.679	0.606	0.673	0.659
510.0	43.28	67.12	118.4	135.5	135.8	301.5	 1299	 1527	228.5	158.6	149.4	137.6	124.9	107.5	95.80	84.32	77.70	71.44	66.26	64.04	60.06	57.45	56.06	55.08	54.59	53.82	52.76	51.55	51.83	51.56	48.99	45.50	41.67	37.22	33.38	30.73	27.64	24.65	22.07	19.59	17.48	16.93	18.48	19.08	14.45	10.22	8.028	6.930	6.090	5.311	4.608	3.809	3.673	3.915	5.811	22.33	123.4	405.3	539.3	124.4	10.45	1.253	1.044	0.979	0.925	0.934	0.819	0.847	0.722	0.694	0.685	0.721	0.704	0.649	0.631	0.644	0.546
515.0	41.59	59.54	87.72	139.0	120.6	151.7	459.7	 1780	703.3	140.2	132.4	120.0	109.0	95.34	83.01	74.54	67.68	62.92	58.07	55.32	52.65	51.65	48.72	47.66	47.49	46.16	45.47	44.91	44.54	44.58	42.90	40.33	36.35	33.25	29.87	27.46	24.64	22.30	19.64	17.64	16.33	14.78	14.48	15.93	16.95	12.55	8.318	6.975	6.208	5.165	4.561	4.121	3.411	3.178	3.215	6.736	29.26	92.31	202.4	546.4	209.3	11.59	1.174	0.894	0.766	0.848	0.753	0.771	0.620	0.624	0.591	0.571	0.601	0.611	0.548	0.556	0.600
520.0	35.60	50.69	75.06	118.9	125.5	109.5	194.6	 1161	 1334	188.9	122.2	111.1	99.66	86.62	75.56	66.70	61.57	56.85	54.95	50.27	47.22	46.76	45.11	43.71	43.49	42.27	40.67	40.66	40.40	40.89	38.45	36.65	33.32	30.26	27.61	24.16	23.04	20.57	18.51	17.20	14.87	13.95	12.71	12.90	15.38	13.96	9.056	6.889	5.824	4.996	4.412	4.165	3.428	3.151	2.629	3.268	8.096	22.24	47.98	255.7	588.2	166.3	4.514	0.920	0.794	0.763	0.712	0.730	0.609	0.646	0.590	0.537	0.586	0.418	0.449	0.533	0.495
525.0	35.61	51.35	63.32	96.45	121.0	95.29	124.7	528.1	 1642	438.3	115.0	103.7	91.66	78.70	69.19	61.04	55.05	52.41	50.18	47.15	42.83	42.15	40.70	40.00	38.41	38.19	37.43	36.25	36.59	36.95	34.94	33.36	30.77	28.11	24.93	22.03	21.15	19.04	17.61	16.06	14.13	13.15	11.58	11.14	12.39	13.97	10.68	7.151	5.533	4.942	4.303	3.873	3.441	3.132	2.456	2.449	3.387	6.516	12.14	62.90	336.5	546.8	29.21	1.901	0.890	0.684	0.628	0.621	0.613	0.601	0.586	0.521	0.479	0.487	0.461	0.485	0.378
530.0	30.32	44.06	57.38	77.31	109.0	99.60	96.45	198.9	 1049	 1010	166.7	90.40	80.51	70.26	60.91	54.24	48.90	45.88	42.92	41.16	37.93	36.29	35.05	34.84	33.27	32.32	32.45	32.26	32.51	31.98	30.92	29.57	26.93	24.53	22.13	20.08	18.89	17.20	15.71	14.49	12.66	12.05	10.77	10.02	9.593	11.33	11.63	8.949	5.810	4.664	4.097	3.680	3.276	3.016	2.704	2.400	2.339	2.912	4.076	15.48	81.98	279.7	379.4	123.1	9.030	0.684	0.674	0.604	0.528	0.501	0.501	0.538	0.440	0.449	0.404	0.440	0.367
535.0	28.00	36.94	49.51	65.25	84.28	102.1	84.76	104.7	352.3	 1030	636.0	84.83	71.48	60.25	53.77	47.65	43.40	39.45	37.69	34.77	33.13	31.60	30.67	29.39	28.59	28.37	27.77	27.65	28.27	27.21	27.16	25.92	23.20	21.09	19.77	18.10	16.23	15.27	13.88	13.02	11.30	10.70	9.799	8.964	8.446	8.204	9.708	9.979	6.732	4.659	3.782	3.565	2.942	2.822	2.670	2.449	2.164	2.024	2.122	4.647	19.43	63.57	132.9	377.7	194.5	10.68	0.792	0.502	0.559	0.430	0.415	0.493	0.416	0.322	0.381	0.405	0.328
540.0	25.65	34.12	46.60	52.84	66.26	97.65	78.39	79.89	140.5	642.0	 1045	146.5	63.16	54.53	48.56	42.79	39.15	35.16	34.37	32.51	30.74	27.74	27.41	26.92	25.93	25.91	25.04	24.83	24.56	24.19	23.86	22.25	20.79	19.68	17.93	16.16	15.18	13.78	12.46	11.78	10.70	10.06	9.213	8.200	7.558	6.860	7.752	9.333	8.025	5.151	3.789	3.296	2.752	2.749	2.534	2.490	2.169	1.874	1.684	2.164	5.373	15.19	31.19	162.3	419.2	148.5	4.159	0.563	0.499	0.417	0.447	0.465	0.358	0.323	0.363	0.268	0.363
545.0	24.95	30.89	42.90	48.98	56.06	83.56	85.39	70.00	84.40	293.3	 1059	426.8	59.96	52.14	44.90	39.14	35.97	32.30	30.70	29.03	26.68	25.55	25.21	24.66	23.49	23.16	23.08	22.38	22.32	22.35	21.40	20.41	19.27	17.41	16.37	14.76	13.72	12.75	11.83	10.63	9.732	9.245	8.393	7.560	6.815	6.310	6.359	7.746	8.304	5.847	3.891	3.129	2.680	2.453	2.434	2.214	2.084	1.903	1.667	1.600	2.308	4.421	7.883	39.20	227.2	388.7	29.35	1.497	0.630	0.432	0.380	0.371	0.441	0.377	0.359	0.350	0.294
550.0	26.15	30.31	38.38	44.03	46.73	62.71	81.28	66.91	66.66	118.5	569.8	845.2	114.7	43.83	39.89	34.22	31.35	28.02	26.47	24.73	23.16	21.71	21.92	21.10	20.85	19.85	19.69	18.64	18.96	19.38	18.71	17.76	16.42	15.18	13.83	12.92	12.04	11.01	10.26	9.605	8.487	7.887	7.338	6.694	6.178	5.765	5.285	5.577	6.637	6.583	4.595	3.098	2.549	2.350	2.219	2.027	2.141	1.986	1.718	1.403	1.522	1.807	2.683	9.624	54.87	185.7	228.8	114.1	8.281	0.547	0.413	0.378	0.325	0.304	0.332	0.295	0.315
555.0	21.44	25.34	32.50	35.95	40.70	46.41	67.79	71.40	54.99	67.36	187.7	701.0	549.4	43.46	32.55	29.00	26.18	23.98	21.78	20.76	19.70	19.32	18.23	17.54	17.34	16.44	16.25	16.31	15.81	15.82	15.05	14.14	13.73	12.50	11.35	11.10	10.14	9.027	8.452	8.056	7.524	6.573	6.444	5.903	5.191	4.757	4.541	4.436	4.673	5.508	5.307	3.504	2.379	2.086	1.913	1.815	1.812	1.820	1.720	1.540	1.213	1.288	1.484	2.846	13.07	42.09	79.19	250.3	162.4	8.044	0.444	0.338	0.272	0.238	0.305	0.236	0.244
560.0	22.00	25.17	27.53	32.76	33.39	37.36	51.20	70.83	53.16	50.70	76.86	388.5	821.5	102.7	27.79	25.31	22.68	20.96	19.06	18.95	16.97	16.35	15.28	14.86	14.90	14.22	13.97	13.87	14.30	14.08	13.04	12.66	11.94	10.97	9.807	9.347	8.536	8.198	7.372	7.005	6.347	6.202	5.602	5.233	4.405	4.168	4.008	3.662	3.464	4.056	5.151	3.896	2.395	1.926	1.668	1.645	1.579	1.548	1.434	1.528	1.116	0.948	1.059	1.241	3.583	10.00	18.63	101.3	265.6	100.2	2.732	0.380	0.242	0.287	0.225	0.249	0.256
565.0	18.70	25.91	27.36	28.64	28.59	30.26	38.91	62.69	55.51	44.85	49.01	160.7	732.3	364.8	26.22	22.43	19.30	17.94	17.04	15.95	14.69	13.60	13.85	13.20	12.81	12.23	12.23	12.27	11.80	12.02	11.40	11.30	10.21	9.246	8.800	8.051	7.409	6.886	6.340	5.968	5.600	5.019	4.849	4.506	4.026	3.749	3.475	3.095	3.003	3.001	3.926	3.891	2.745	1.840	1.463	1.474	1.392	1.479	1.269	1.443	1.224	0.945	0.958	0.897	1.347	2.835	4.742	24.27	130.6	233.5	27.83	0.927	0.305	0.240	0.278	0.207	0.233
570.0	17.87	24.65	24.52	24.57	25.38	25.43	29.59	46.36	55.44	39.04	37.65	61.40	349.2	639.6	80.21	18.39	15.60	14.54	13.86	12.70	12.27	11.09	10.85	10.82	10.24	10.02	9.399	9.530	9.757	9.675	9.261	8.875	8.054	7.534	6.830	6.375	6.050	5.504	5.251	5.000	4.318	4.053	3.972	3.718	3.387	3.148	2.763	2.601	2.378	2.313	2.630	3.166	2.961	1.865	1.453	1.248	1.165	1.254	1.115	1.071	1.165	0.945	0.837	0.729	0.811	1.077	1.580	5.837	31.06	104.4	147.7	73.74	5.870	0.264	0.264	0.213	0.204
575.0	14.36	22.28	20.33	20.39	20.60	21.12	22.90	31.37	46.87	42.00	30.71	34.88	105.7	448.3	452.0	21.49	12.77	11.33	10.33	9.982	9.029	8.753	8.416	8.323	8.361	7.542	7.121	7.254	7.519	8.104	7.097	6.829	6.377	5.773	5.442	4.985	4.845	4.148	4.099	3.920	3.573	3.191	2.910	2.928	2.708	2.566	2.189	2.124	1.937	1.692	1.751	1.959	2.478	2.128	1.598	1.097	0.947	1.018	0.890	0.812	0.870	0.893	0.815	0.664	0.637	0.748	0.737	1.722	7.242	23.62	46.32	132.5	87.74	4.715	0.300	0.235	0.155
580.0	13.28	19.37	19.13	16.93	18.98	18.87	17.71	23.36	36.99	47.01	26.93	26.21	41.19	225.3	618.0	79.59	10.75	9.479	8.441	8.169	8.320	7.168	7.203	6.584	6.732	6.557	6.021	6.350	6.209	6.262	5.853	5.290	5.228	4.911	4.555	3.949	3.831	3.526	3.217	3.251	2.829	2.724	2.539	2.490	2.211	2.102	1.877	1.741	1.505	1.527	1.284	1.348	1.813	2.036	1.691	1.166	0.840	0.830	0.702	0.692	0.711	0.713	0.806	0.665	0.588	0.546	0.575	0.765	2.055	5.629	10.84	52.11	139.8	30.10	1.476	0.211	0.195
585.0	14.06	15.66	17.41	16.67	16.56	16.31	16.23	18.11	28.15	46.45	27.78	22.07	24.52	87.79	488.8	313.3	10.07	8.313	7.286	6.856	6.983	5.999	6.147	5.629	5.549	5.825	5.409	5.179	4.915	5.114	4.843	4.326	4.180	3.949	3.802	3.353	3.227	3.066	2.803	2.821	2.473	2.145	2.399	1.965	2.012	1.795	1.647	1.456	1.400	1.408	1.099	1.089	1.294	1.779	1.645	1.286	0.857	0.688	0.708	0.598	0.643	0.622	0.690	0.674	0.584	0.510	0.477	0.518	0.827	1.570	2.773	12.44	67.38	113.0	22.43	0.589	0.181
590.0	13.68	16.18	16.54	14.87	12.93	12.81	13.75	15.42	19.88	36.46	35.20	21.31	18.93	31.40	209.3	486.7	104.8	6.748	6.271	5.528	5.305	5.062	5.066	4.525	4.495	4.416	4.235	4.211	4.017	4.083	3.945	3.692	3.461	3.066	3.008	2.779	2.639	2.467	2.260	2.235	2.018	1.804	1.867	1.568	1.564	1.449	1.361	1.198	1.123	1.031	0.928	0.907	0.913	1.085	1.520	1.327	0.924	0.628	0.657	0.558	0.518	0.477	0.502	0.623	0.612	0.446	0.388	0.422	0.505	0.623	0.907	2.989	16.02	50.99	78.05	41.77	3.439
595.0	11.98	15.33	13.90	14.21	10.96	12.24	12.68	13.06	15.62	23.81	37.20	23.34	16.60	16.88	58.78	296.6	372.3	11.91	5.314	4.422	4.661	4.188	4.055	3.688	3.595	3.344	3.223	3.312	3.086	3.135	2.948	2.953	2.898	2.401	2.266	2.187	2.173	1.954	1.864	1.617	1.523	1.566	1.396	1.276	1.244	1.228	1.080	0.974	0.941	0.842	0.737	0.734	0.709	0.666	0.956	1.166	1.164	0.738	0.535	0.506	0.449	0.393	0.461	0.501	0.482	0.465	0.430	0.373	0.365	0.398	0.388	0.829	3.733	11.61	24.07	71.81	32.22
600.0	10.95	13.67	14.02	12.11	9.269	9.645	10.57	11.99	14.35	19.30	33.59	28.28	15.50	13.04	20.41	132.7	472.7	61.03	4.608	3.836	3.839	3.459	3.191	3.166	3.002	2.706	2.842	2.701	2.576	2.714	2.758	2.472	2.062	1.945	1.980	1.830	1.795	1.688	1.635	1.447	1.226	1.479	1.214	1.100	1.078	1.031	0.975	0.892	0.892	0.718	0.655	0.580	0.590	0.496	0.809	0.914	1.059	0.835	0.389	0.417	0.431	0.361	0.369	0.358	0.340	0.517	0.474	0.369	0.315	0.320	0.270	0.375	0.990	2.769	5.663	27.71	72.92
605.0	11.29	15.64	14.52	11.83	8.361	9.169	11.19	10.67	13.22	15.34	26.46	32.65	15.47	11.89	10.84	46.41	340.3	255.0	5.256	3.785	3.310	3.092	2.799	2.845	2.637	2.622	2.436	2.371	2.444	2.218	2.497	2.046	2.054	1.729	1.753	1.616	1.485	1.386	1.424	1.133	1.042	1.138	1.047	1.011	0.825	0.857	0.716	0.849	0.713	0.624	0.600	0.552	0.519	0.473	0.542	0.691	0.935	0.880	0.558	0.419	0.341	0.395	0.331	0.361	0.303	0.387	0.483	0.391	0.315	0.314	0.216	0.244	0.383	0.788	1.403	6.543	35.28
610.0	9.923	12.02	13.42	9.824	7.863	8.732	9.152	10.20	11.24	13.55	19.13	30.16	20.44	10.81	8.635	15.50	131.9	376.4	90.54	3.131	2.789	2.640	2.364	2.336	2.181	2.095	2.025	1.936	2.029	1.895	1.860	1.685	1.600	1.485	1.428	1.315	1.297	1.111	1.067	0.921	0.860	0.892	0.779	0.826	0.714	0.683	0.652	0.637	0.594	0.509	0.490	0.449	0.402	0.403	0.376	0.481	0.631	0.766	0.639	0.424	0.310	0.366	0.270	0.326	0.287	0.343	0.400	0.457	0.337	0.253	0.247	0.213	0.258	0.317	0.446	1.611	8.348
615.0	10.95	9.705	12.11	7.263	7.806	7.508	8.903	9.594	11.31	12.32	15.75	22.07	26.86	11.21	7.935	7.606	34.96	208.3	317.6	9.357	2.234	2.072	2.024	1.972	1.695	1.753	1.689	1.497	1.554	1.695	1.567	1.319	1.247	1.182	1.174	1.037	1.034	0.895	0.856	0.791	0.725	0.676	0.558	0.561	0.517	0.589	0.473	0.530	0.484	0.409	0.330	0.314	0.336	0.350	0.263	0.340	0.351	0.531	0.596	0.562	0.293	0.289	0.291	0.285	0.208	0.245	0.384	0.399	0.331	0.225	0.184	0.194	0.187	0.188	0.246	0.453	1.976
620.0	7.016	10.39	11.54	8.311	7.422	6.289	7.439	8.394	10.11	11.02	12.60	17.86	27.15	13.15	7.442	5.294	11.02	82.79	386.7	55.62	2.086	1.845	1.766	1.608	1.562	1.474	1.368	1.209	1.419	1.176	1.337	1.142	1.110	0.971	0.898	0.889	0.912	0.810	0.674	0.711	0.549	0.592	0.534	0.506	0.430	0.510	0.499	0.419	0.390	0.365	0.306	0.281	0.297	0.283	0.280	0.278	0.316	0.399	0.501	0.534	0.304	0.270	0.266	0.228	0.243	0.229	0.224	0.271	0.353	0.360	0.257	0.227	0.140	0.176	0.162	0.178	0.532
625.0	8.316	8.665	9.322	8.178	6.730	6.569	7.158	7.634	9.844	10.73	11.73	15.45	23.36	18.45	7.325	5.048	5.571	26.18	259.7	225.6	3.005	1.704	1.406	1.291	1.373	1.203	1.330	0.993	1.353	1.106	1.171	0.990	0.862	0.850	0.738	0.738	0.644	0.590	0.691	0.589	0.488	0.488	0.456	0.504	0.461	0.449	0.412	0.363	0.347	0.360	0.307	0.301	0.242	0.235	0.204	0.279	0.261	0.321	0.376	0.514	0.353	0.312	0.216	0.252	0.233	0.210	0.181	0.196	0.222	0.321	0.337	0.178	0.153	0.140	0.151	0.124	0.177
630.0	7.464	10.02	9.475	8.339	6.864	6.159	6.879	7.602	8.955	10.00	11.30	13.57	17.78	20.89	8.886	4.869	4.122	8.432	91.87	305.6	76.49	1.613	1.315	1.158	1.116	1.082	1.014	0.944	0.939	0.938	0.880	0.820	0.738	0.731	0.679	0.638	0.585	0.617	0.531	0.553	0.501	0.467	0.403	0.370	0.358	0.325	0.364	0.275	0.306	0.275	0.279	0.253	0.254	0.221	0.193	0.255	0.234	0.234	0.268	0.355	0.326	0.336	0.237	0.217	0.200	0.191	0.196	0.188	0.202	0.223	0.279	0.204	0.163	0.149	0.102	0.124	0.123
635.0	8.233	10.73	11.54	7.164	7.260	6.184	6.370	6.680	8.031	9.168	10.69	12.26	12.86	18.21	13.71	5.351	3.572	4.069	23.44	152.5	261.6	7.468	1.217	1.028	1.116	0.973	0.776	0.823	0.763	0.721	0.774	0.645	0.635	0.672	0.574	0.521	0.507	0.463	0.504	0.495	0.403	0.350	0.344	0.361	0.345	0.255	0.276	0.250	0.230	0.273	0.206	0.257	0.249	0.184	0.174	0.211	0.212	0.191	0.185	0.249	0.253	0.307	0.218	0.193	0.185	0.176	0.193	0.190	0.185	0.160	0.258	0.244	0.180	0.146	0.089	0.142	0.105
640.0	5.875	10.89	10.95	6.720	6.666	5.847	6.211	6.704	7.378	9.184	10.84	11.30	12.25	15.28	16.36	6.184	3.540	3.182	7.184	55.16	307.4	47.68	1.069	0.960	0.975	0.884	0.629	0.749	0.700	0.709	0.703	0.612	0.577	0.529	0.537	0.481	0.471	0.474	0.400	0.403	0.321	0.330	0.304	0.303	0.283	0.259	0.222	0.206	0.222	0.232	0.195	0.202	0.197	0.176	0.137	0.162	0.195	0.175	0.187	0.203	0.233	0.227	0.277	0.170	0.160	0.144	0.158	0.205	0.171	0.133	0.186	0.229	0.232	0.134	0.151	0.147	0.099
645.0	7.806	9.884	11.51	7.377	6.395	6.324	6.191	7.070	7.205	8.119	10.95	10.68	11.64	12.58	16.47	7.806	3.364	2.778	3.222	16.15	199.5	189.8	2.350	0.992	0.911	0.734	0.596	0.700	0.668	0.622	0.658	0.545	0.517	0.435	0.420	0.483	0.317	0.442	0.343	0.326	0.300	0.318	0.297	0.233	0.218	0.223	0.209	0.220	0.232	0.241	0.161	0.154	0.181	0.160	0.139	0.155	0.167	0.117	0.152	0.197	0.164	0.219	0.350	0.234	0.166	0.109	0.166	0.192	0.138	0.129	0.154	0.162	0.144	0.176	0.163	0.117	0.095
650.0	10.12	10.91	10.27	10.37	7.197	5.796	6.696	6.667	7.454	8.517	9.848	11.68	10.52	10.92	14.13	10.58	3.840	2.616	2.500	5.209	80.87	280.1	24.17	0.993	0.774	0.744	0.600	0.525	0.574	0.506	0.506	0.489	0.459	0.416	0.426	0.439	0.361	0.377	0.317	0.264	0.281	0.244	0.248	0.242	0.181	0.170	0.188	0.202	0.185	0.213	0.188	0.141	0.140	0.150	0.114	0.145	0.167	0.133	0.170	0.174	0.173	0.206	0.246	0.256	0.155	0.153	0.140	0.147	0.119	0.139	0.156	0.167	0.125	0.155	0.190	0.087	0.094
