Sample:	'1
File name:	G2025062412ÎàÍ©ÆßÂ·.FD3
Run date:	'16:28:09, 06/26/2025
Operator:	Administrator
Comment:	'

Instrument
Model:	F-2700 FL Spectrophotometer
Serial number:	23B8-004
ROM Version:	4J14000 07

Instrument parameters
Measurement type:	3-D scan
Data mode:	Fluorescence
EX  Start WL:	220.0 nm
EX  End WL:	600.0 nm
EX Sampling interval:	5.0 nm
EM  Start WL:	230.0 nm
EM  End WL:	650.0 nm
EM Sampling interval:	5.0 nm
Scan speed:	12000 nm/min
EX Slit:	5.0 nm
EM Slit:	5.0 nm
PMT Voltage:	700 V
Response:	Auto 
Corrected spectra:	Off
Contour interval:	50.000

Peak integration
Integration method:	Rectangular
Sensitivity:	1
Threshold:	1.000

Peaks
No.	ApexEX/EM(nm)	Height(Data)
1	225.0/590.0	75.97
2	225.0/615.0	70.31
3	225.0/630.0	67.56
4	230.0/345.0	2965
5	235.0/260.0	293.6
6	240.0/265.0	362.5
7	245.0/270.0	344.6
8	250.0/275.0	464.6
9	255.0/285.0	499.5
10	255.0/560.0	176.5
11	260.0/290.0	549.3
12	260.0/575.0	139.5
13	265.0/585.0	119.5
14	270.0/380.0	1769
15	270.0/600.0	114.0
16	275.0/325.0	1920
17	275.0/615.0	134.2
18	280.0/315.0	1929
19	280.0/335.0	1921
20	280.0/625.0	122.7
21	285.0/640.0	90.17
22	475.0/355.0	9.667
23	505.0/275.0	2.629
24	510.0/280.0	3.234
25	520.0/285.0	3.428
26	550.0/305.0	8.783
27	560.0/310.0	9.716
28	570.0/315.0	9.596
29	570.0/335.0	9.237
30	575.0/320.0	9.483
31	580.0/340.0	9.367
32	585.0/325.0	9.286

Data points
	220.0	225.0	230.0	235.0	240.0	245.0	250.0	255.0	260.0	265.0	270.0	275.0	280.0	285.0	290.0	295.0	300.0	305.0	310.0	315.0	320.0	325.0	330.0	335.0	340.0	345.0	350.0	355.0	360.0	365.0	370.0	375.0	380.0	385.0	390.0	395.0	400.0	405.0	410.0	415.0	420.0	425.0	430.0	435.0	440.0	445.0	450.0	455.0	460.0	465.0	470.0	475.0	480.0	485.0	490.0	495.0	500.0	505.0	510.0	515.0	520.0	525.0	530.0	535.0	540.0	545.0	550.0	555.0	560.0	565.0	570.0	575.0	580.0	585.0	590.0	595.0	600.0
230.0	71.11	958.9	1513	341.6	17.41	7.978	6.885	5.897	5.154	4.678	4.419	3.892	3.401	3.003	2.444	2.164	1.884	1.785	1.543	1.390	1.214	1.188	1.125	1.027	0.920	0.873	0.854	0.801	0.775	0.675	0.681	0.683	0.701	0.581	0.556	0.542	0.459	0.493	0.459	0.439	0.508	0.567	0.584	0.428	0.418	0.467	1.365	4.038	5.323	3.352	1.182	0.468	0.350	0.354	0.330	0.320	0.380	0.382	0.363	0.351	0.345	0.359	0.326	0.370	0.357	0.348	0.396	0.372	0.367	0.345	0.331	0.382	0.358	0.390	0.383	0.392	0.417
235.0	100.7	294.7	1314	1691	417.7	22.21	7.773	5.453	6.243	4.866	4.736	3.796	3.497	3.207	2.338	1.922	1.746	1.762	1.440	1.490	1.293	1.165	1.098	1.051	0.946	0.985	0.809	0.743	0.738	0.654	0.716	0.768	0.746	0.617	0.635	0.502	0.482	0.500	0.495	0.480	0.432	0.478	0.555	0.605	0.572	0.452	0.593	1.362	2.869	4.327	6.001	5.604	2.352	0.798	0.391	0.348	0.362	0.357	0.372	0.366	0.339	0.355	0.362	0.400	0.334	0.345	0.347	0.477	0.351	0.355	0.366	0.347	0.373	0.368	0.348	0.404	0.403
240.0	158.4	142.2	468.7	1881	1784	314.4	14.30	5.879	6.034	4.504	4.225	3.612	3.666	2.940	2.469	2.191	2.042	1.729	1.626	1.421	1.165	1.300	1.114	1.327	1.106	0.846	0.834	0.803	0.868	0.695	0.703	0.684	0.681	0.664	0.655	0.533	0.541	0.500	0.545	0.462	0.443	0.411	0.491	0.624	0.693	0.717	0.483	0.622	0.960	1.657	4.059	8.928	9.365	5.851	1.805	0.529	0.374	0.395	0.342	0.368	0.361	0.337	0.388	0.356	0.348	0.373	0.392	0.362	0.367	0.389	0.413	0.356	0.356	0.359	0.414	0.344	0.348
245.0	141.6	179.1	160.1	773.1	2477	1727	210.0	8.797	6.663	5.610	5.363	4.556	3.779	3.130	2.882	2.720	2.112	1.897	1.526	1.377	1.240	1.246	1.092	1.213	0.995	0.895	0.762	0.782	0.807	0.730	0.765	0.673	0.668	0.670	0.576	0.522	0.496	0.488	0.528	0.495	0.519	0.469	0.442	0.476	0.574	0.853	0.797	0.713	0.581	0.630	1.203	3.710	8.301	12.33	10.22	5.045	1.320	0.433	0.370	0.341	0.385	0.327	0.349	0.333	0.382	0.388	0.432	0.343	0.394	0.336	0.379	0.351	0.379	0.416	0.428	0.356	0.387
250.0	71.39	162.1	209.0	244.1	920.8	2310	2402	673.7	32.04	7.055	6.206	4.874	4.258	3.433	2.894	2.555	2.272	1.846	1.789	1.511	1.337	1.331	1.290	1.118	1.098	0.900	0.957	0.956	0.808	0.824	0.737	0.739	0.664	0.679	0.637	0.529	0.486	0.470	0.500	0.483	0.488	0.424	0.422	0.466	0.447	0.538	0.616	0.854	1.000	0.755	0.681	1.201	2.319	4.706	7.890	11.25	14.00	11.10	5.495	1.501	0.427	0.365	0.398	0.410	0.418	0.360	0.375	0.370	0.372	0.375	0.346	0.379	0.366	0.378	0.366	0.416	0.384
255.0	43.54	64.25	190.2	280.4	272.7	647.2	2510	2895	294.5	27.70	7.602	5.612	5.398	3.746	2.722	2.470	2.247	1.930	1.818	1.473	1.312	1.287	1.177	1.085	1.105	0.959	0.935	0.964	0.792	0.787	0.739	0.709	0.631	0.680	0.598	0.524	0.486	0.571	0.573	0.480	0.540	0.472	0.439	0.493	0.469	0.399	0.430	0.611	0.721	0.916	1.421	1.274	0.958	1.363	2.068	3.040	6.567	14.58	22.61	19.19	7.621	1.309	0.444	0.419	0.400	0.394	0.410	0.351	0.368	0.363	0.401	0.389	0.406	0.367	0.351	0.387	0.407
260.0	40.01	34.85	89.58	293.6	259.3	186.9	863.3	3678	2380	236.7	16.47	7.315	5.257	4.895	3.492	2.707	2.726	2.204	1.626	1.604	1.277	1.434	1.343	1.139	1.055	0.912	1.179	1.076	0.832	0.823	0.756	0.705	0.701	0.613	0.603	0.504	0.555	0.525	0.522	0.522	0.460	0.460	0.486	0.472	0.457	0.394	0.384	0.438	0.456	0.538	1.037	1.630	1.564	1.056	0.923	1.093	1.903	4.610	12.03	23.77	27.55	17.47	5.838	0.777	0.384	0.428	0.438	0.381	0.362	0.359	0.369	0.357	0.386	0.340	0.411	0.378	0.381
265.0	39.30	34.11	42.22	160.6	362.5	182.1	230.4	1462	4819	2034	176.0	11.05	7.153	5.068	4.168	3.023	2.502	2.236	1.888	1.683	1.490	1.360	1.459	1.134	1.397	0.995	0.975	0.922	1.048	0.957	0.802	0.782	0.673	0.624	0.629	0.630	0.607	0.498	0.568	0.436	0.446	0.500	0.435	0.485	0.456	0.446	0.418	0.402	0.392	0.407	0.477	1.080	1.649	2.006	1.311	0.709	0.835	1.420	3.281	8.015	18.59	31.24	29.41	14.69	2.805	0.515	0.437	0.391	0.370	0.433	0.413	0.470	0.375	0.367	0.467	0.451	0.413
270.0	49.18	49.63	38.91	61.81	202.9	344.6	232.1	375.5	1754	4331	4221	714.3	34.10	6.919	5.009	3.708	2.915	2.344	2.108	2.044	1.566	1.580	1.355	1.180	1.192	1.108	0.960	0.980	0.981	0.913	0.844	0.753	0.738	0.683	0.722	0.599	0.539	0.591	0.560	0.480	0.479	0.495	0.509	0.528	0.477	0.499	0.503	0.465	0.424	0.392	0.382	0.595	0.794	1.405	1.678	2.041	1.669	1.047	1.236	2.194	4.839	10.03	18.04	26.91	28.68	20.69	11.51	2.879	0.568	0.440	0.454	0.499	0.379	0.362	0.386	0.410	0.440
275.0	98.10	101.0	88.82	60.99	74.86	196.6	464.6	269.6	439.4	1171	4375	7112	918.8	24.50	6.876	4.827	3.913	2.707	2.300	2.410	1.719	1.859	1.354	1.322	1.095	1.363	0.969	1.064	1.020	1.016	0.777	0.763	0.773	0.659	0.620	0.619	0.643	0.644	0.689	0.506	0.507	0.527	0.561	0.510	0.602	0.618	0.543	0.629	0.617	0.543	0.519	0.434	0.534	0.700	0.833	1.326	2.301	2.629	1.929	1.159	1.703	2.725	4.481	6.669	10.35	22.87	42.26	31.13	16.38	2.678	0.547	0.459	0.370	0.419	0.401	0.436	0.440
280.0	197.3	205.0	156.5	91.09	59.11	88.82	343.3	408.6	227.3	337.6	1391	6537	6357	142.2	13.10	6.440	4.082	3.449	2.986	2.381	1.974	1.900	1.497	1.230	1.377	1.294	1.222	1.012	1.190	1.004	0.785	0.753	0.846	0.784	0.724	0.797	0.647	0.701	0.735	0.612	0.676	0.649	0.751	0.631	0.688	0.713	0.764	0.857	0.788	0.625	0.531	0.498	0.538	0.556	0.660	0.746	1.195	2.245	3.234	2.685	1.498	1.184	1.564	2.098	3.021	6.380	16.62	34.27	47.47	28.56	10.99	1.344	0.497	0.540	0.471	0.577	0.501
285.0	282.1	297.8	255.8	138.8	72.45	67.65	164.9	499.5	336.9	205.4	430.0	2226	7575	4896	102.7	8.910	5.059	4.180	3.272	2.642	2.221	1.826	1.697	1.243	1.494	1.406	1.226	1.090	1.073	0.938	0.835	0.991	0.854	0.715	0.731	0.744	0.763	0.747	0.806	0.739	0.665	0.678	0.750	0.812	0.872	0.949	1.109	1.132	1.122	0.902	0.650	0.609	0.573	0.607	0.599	0.679	0.787	1.056	1.935	3.260	3.428	1.997	1.328	1.125	1.526	2.274	4.676	10.14	22.86	41.82	35.78	23.09	6.075	0.850	0.469	0.504	0.520
290.0	366.9	423.2	345.7	195.6	110.2	90.91	120.7	270.0	549.3	499.7	334.1	695.1	2428	5502	5132	424.7	23.23	5.858	4.188	2.978	2.532	2.130	1.781	1.514	1.434	1.478	1.302	1.112	1.121	1.036	0.909	0.948	0.921	0.875	0.847	0.839	0.891	0.872	0.849	0.761	0.713	0.841	0.985	0.956	0.979	1.121	1.248	1.440	1.314	1.061	0.863	0.799	0.687	0.653	0.642	0.662	0.764	0.844	1.187	1.584	2.566	3.413	3.469	2.586	1.835	1.661	2.090	3.457	6.258	11.96	18.50	29.97	31.26	32.89	16.20	5.755	0.995
295.0	449.8	512.6	441.9	267.9	156.7	141.1	164.1	225.3	365.1	748.7	746.4	496.8	795.4	1471	3913	6241	596.6	21.79	5.604	4.056	2.980	2.320	2.184	1.801	1.664	1.581	1.390	1.323	1.261	1.055	1.064	0.919	0.946	0.866	0.905	0.885	0.909	0.978	0.998	0.915	0.762	0.914	1.041	1.075	1.175	1.290	1.464	1.712	1.499	1.327	1.035	1.045	0.877	0.927	0.879	0.833	1.092	1.003	1.162	1.242	1.655	1.972	2.817	4.328	4.731	3.329	2.359	2.369	3.026	4.062	5.390	7.937	9.381	19.68	38.35	36.23	25.04
300.0	509.6	599.4	535.5	350.4	232.4	221.3	269.6	333.3	372.0	724.8	1195	847.6	648.1	654.4	1268	5165	5266	88.31	13.28	5.404	3.608	2.839	2.380	2.136	1.766	1.555	1.384	1.329	1.355	0.966	1.269	0.864	0.986	0.872	0.910	1.149	0.939	0.898	1.035	0.993	0.877	0.952	1.095	0.991	1.252	1.501	1.717	1.880	1.798	1.430	1.218	1.282	1.241	1.104	1.215	1.278	1.412	1.528	1.619	1.774	1.951	2.213	2.693	3.745	4.921	6.375	5.421	3.805	3.238	3.273	3.274	3.754	3.721	6.169	13.03	27.15	47.92
305.0	608.1	721.4	660.4	468.8	345.8	360.1	446.9	597.7	771.3	1051	1501	1629	1127	828.5	807.0	1869	6024	4105	71.73	8.334	4.638	3.354	2.574	2.232	1.943	1.752	1.443	1.309	1.233	1.185	1.298	0.975	0.906	0.988	0.937	1.136	0.917	1.116	1.146	1.075	1.005	1.069	1.233	1.230	1.589	1.731	1.882	2.259	2.188	1.740	1.683	1.710	1.600	1.401	1.596	1.837	2.015	2.390	2.776	2.884	3.444	3.762	4.292	5.189	5.795	7.078	8.783	8.719	6.384	5.493	4.579	4.313	4.259	4.575	5.646	8.615	19.06
310.0	687.9	852.9	797.1	594.7	477.1	494.3	637.4	825.7	1030	1305	1601	1913	1834	1189	920.9	925.3	2163	4239	4028	302.1	18.83	4.643	3.404	2.862	2.320	2.077	1.788	1.432	1.406	1.331	1.415	1.066	0.976	0.988	1.080	1.131	1.191	1.328	1.278	1.206	1.158	1.225	1.313	1.400	1.632	2.076	2.157	2.384	2.545	2.065	2.005	2.100	1.984	1.906	1.973	2.262	2.670	3.055	3.548	3.948	4.570	5.092	5.472	6.608	6.819	7.273	8.575	9.230	9.716	9.058	7.506	6.017	5.389	5.384	4.808	5.088	7.181
315.0	785.1	985.9	952.8	732.5	578.2	604.2	763.3	945.8	1146	1433	1688	1873	1929	1716	1113	825.2	1030	1283	2716	4488	462.3	17.22	4.358	3.404	2.729	2.117	1.837	1.485	1.480	1.536	1.454	1.218	1.117	1.136	1.033	1.144	1.132	1.236	1.213	1.343	1.278	1.489	1.333	1.600	1.834	2.055	2.335	3.124	2.663	2.661	2.326	2.439	2.217	2.341	2.399	2.708	3.158	3.702	4.038	4.437	5.083	5.400	5.966	7.093	7.115	7.751	8.230	8.475	9.109	9.375	9.596	9.158	7.039	6.412	5.197	4.834	5.050
320.0	873.9	1223	1188	868.9	690.5	693.2	825.7	1016	1203	1498	1752	1920	1883	1836	1461	902.2	839.4	649.5	815.5	3458	3981	67.00	9.201	4.193	3.345	2.482	2.226	1.743	1.785	1.551	1.367	1.208	1.171	1.187	1.035	1.130	1.152	1.174	1.165	1.382	1.353	1.292	1.544	1.760	2.061	2.360	2.823	3.621	3.317	2.923	2.643	2.902	2.631	2.843	2.821	2.953	3.579	3.848	4.625	5.009	5.286	5.731	6.120	7.246	7.659	8.032	8.508	8.844	8.724	8.938	8.978	9.483	9.131	8.308	6.325	5.444	5.171
325.0	1027	1471	1546	1118	796.4	764.2	861.9	1027	1227	1491	1730	1920	1844	1711	1651	1080	829.1	535.4	351.8	1060	3982	3231	57.01	7.017	4.104	2.805	2.317	1.768	1.780	1.598	1.428	1.268	1.259	1.171	0.890	1.149	1.073	1.119	1.190	1.184	1.372	1.350	1.555	1.597	1.995	2.759	3.314	4.170	4.286	3.774	3.290	3.400	3.035	3.108	3.010	3.136	3.706	4.164	4.555	4.801	5.248	5.610	6.319	6.923	7.428	7.790	8.562	8.607	8.824	8.966	8.191	8.584	8.720	9.286	8.569	6.447	5.268
330.0	1199	1802	2114	1669	1171	921.8	919.0	1055	1208	1456	1700	1876	1847	1679	1547	1323	990.4	590.2	332.3	399.1	1203	2981	3185	829.9	17.40	4.150	3.019	2.211	1.951	1.893	1.500	1.380	1.171	1.179	1.075	1.147	1.155	1.077	1.161	1.251	1.346	1.442	1.708	1.989	2.509	3.144	4.081	5.317	5.825	5.370	4.863	5.103	4.501	4.049	3.567	3.521	3.911	4.242	4.668	4.851	5.196	5.538	6.159	6.948	7.271	7.665	8.205	8.595	8.683	9.030	8.672	8.329	8.059	8.567	8.486	8.040	7.116
335.0	1372	2160	2680	2361	1729	1202	1032	1127	1253	1452	1706	1899	1921	1789	1584	1346	1281	779.3	455.0	349.2	443.7	798.1	2085	3766	401.6	17.89	4.205	3.010	2.154	1.904	1.668	1.550	1.297	1.232	1.250	1.122	1.334	1.241	1.300	1.229	1.432	1.627	1.906	2.094	2.727	3.678	4.763	6.498	7.129	7.025	6.628	7.563	6.603	5.553	5.016	4.194	4.685	4.545	5.084	5.114	5.107	5.958	6.280	6.988	6.878	7.956	8.099	8.440	9.003	8.585	9.237	8.747	8.740	8.845	8.162	7.810	7.921
340.0	1453	2335	2942	2648	1999	1364	1120	1170	1264	1457	1688	1871	1913	1819	1613	1353	1277	1030	580.9	403.1	322.3	327.4	632.3	2824	3302	314.7	9.106	3.854	3.084	2.143	1.819	1.613	1.295	1.426	1.074	1.116	1.303	1.142	1.231	1.347	1.570	1.573	2.121	2.145	2.924	4.133	5.079	6.832	7.321	7.562	7.524	8.169	7.441	6.768	5.422	4.822	4.867	4.720	5.349	5.301	5.556	5.892	6.384	7.037	7.055	7.662	8.018	8.210	9.093	9.016	9.152	8.900	9.367	8.943	8.071	7.770	7.520
345.0	1469	2338	2965	2754	2091	1437	1168	1197	1286	1453	1647	1822	1863	1790	1608	1352	1204	1077	722.1	469.4	337.4	261.5	274.4	869.2	3247	2781	51.31	5.841	3.424	2.461	1.992	1.706	1.227	1.334	1.263	1.082	1.255	1.202	1.358	1.299	1.529	1.539	2.077	2.123	2.740	4.149	4.832	6.843	7.677	7.536	7.596	8.532	7.917	7.096	5.830	5.118	5.078	4.977	5.079	5.329	5.549	5.782	6.480	6.675	6.919	7.312	7.862	8.282	8.531	8.771	9.125	8.759	9.206	8.982	8.152	7.791	7.685
350.0	1438	2249	2891	2816	2239	1591	1289	1278	1328	1454	1605	1755	1804	1754	1603	1393	1212	1030	878.3	659.7	428.2	312.9	253.0	324.3	980.4	2419	2570	223.2	16.03	3.598	2.456	1.831	1.556	1.352	1.251	1.262	1.230	1.346	1.279	1.324	1.433	1.559	1.777	2.116	2.858	3.865	4.821	6.445	7.472	7.505	7.763	9.272	8.165	7.483	6.494	5.620	5.542	5.376	5.449	5.581	5.830	5.815	6.510	6.811	6.877	7.324	7.888	7.903	8.584	8.571	8.813	8.707	9.027	8.742	8.272	8.129	7.689
355.0	1343	2112	2803	2776	2319	1746	1427	1394	1432	1521	1611	1746	1772	1736	1616	1431	1254	1057	881.4	819.6	592.6	402.6	313.1	261.2	339.8	633.7	1661	3068	363.7	15.49	3.594	2.543	1.760	1.601	1.355	1.310	1.281	1.159	1.398	1.289	1.512	1.658	1.735	2.171	2.898	3.742	4.687	6.158	7.325	7.360	7.683	9.667	8.478	8.047	7.070	6.041	6.051	5.890	6.104	6.093	6.333	6.169	6.896	7.039	7.067	7.405	7.790	7.504	8.464	8.766	8.295	8.116	8.893	8.851	8.444	8.274	7.836
360.0	1343	2006	2632	2705	2331	1835	1526	1482	1503	1585	1667	1735	1746	1718	1612	1443	1286	1094	909.4	822.8	741.4	510.1	371.4	289.4	234.8	246.3	485.8	2252	2888	287.5	8.083	3.379	2.053	1.750	1.420	1.298	1.337	1.273	1.325	1.320	1.521	1.729	1.809	2.076	2.701	3.507	4.306	5.665	7.010	7.112	7.347	9.203	8.503	8.087	7.524	6.298	6.576	6.242	6.421	6.398	6.582	6.576	7.056	7.072	7.358	7.698	7.402	7.789	8.138	8.261	8.262	8.544	8.976	8.952	8.583	8.437	8.041
365.0	1291	1943	2484	2623	2304	1865	1629	1562	1576	1649	1707	1739	1742	1704	1608	1438	1302	1128	952.6	827.1	786.5	655.4	450.8	343.4	254.7	195.2	199.6	696.2	2755	2409	47.35	5.627	2.654	1.989	1.693	1.559	1.408	1.322	1.292	1.313	1.442	1.499	1.838	2.020	2.700	3.357	4.057	5.492	6.503	6.631	7.110	8.371	8.476	7.694	7.414	6.638	6.766	6.516	6.614	6.782	6.692	6.802	7.473	7.445	7.669	7.607	7.850	8.193	8.051	8.022	8.444	8.676	8.825	8.568	8.770	8.109	9.004
370.0	1178	1821	2323	2476	2290	1924	1711	1642	1655	1696	1737	1733	1722	1670	1572	1427	1304	1155	1005	878.0	784.6	741.2	611.2	443.7	329.8	246.2	187.0	251.3	833.2	2125	2251	200.2	13.62	2.823	2.069	1.712	1.456	1.382	1.383	1.411	1.457	1.475	1.813	1.994	2.535	3.246	3.737	5.305	6.072	6.177	6.852	8.013	8.234	8.017	7.544	6.896	7.229	6.648	7.181	6.916	7.318	7.099	7.682	7.663	7.707	7.919	7.828	7.949	8.085	8.092	7.943	8.697	8.818	8.439	8.287	8.119	8.680
375.0	1124	1745	2185	2322	2223	1959	1768	1727	1714	1748	1765	1739	1689	1632	1537	1421	1304	1179	1048	937.7	834.1	753.1	730.4	606.8	432.0	322.1	243.1	200.7	282.0	553.1	1497	2632	308.5	11.96	2.953	2.100	1.676	1.449	1.468	1.373	1.433	1.594	1.773	1.964	2.657	3.105	3.677	4.994	5.785	5.558	6.257	7.697	7.715	7.925	7.452	7.304	7.593	6.795	7.391	7.297	7.275	7.572	7.606	7.634	7.940	7.915	7.820	7.718	7.795	7.999	8.444	8.539	8.529	8.330	7.918	7.937	8.128
380.0	1096	1647	2099	2233	2148	1963	1797	1741	1733	1763	1769	1740	1672	1589	1494	1395	1294	1183	1065	971.0	868.1	784.9	740.3	706.7	518.9	389.8	295.1	224.7	190.9	206.5	436.2	1980	2298	228.9	6.281	2.649	1.978	1.718	1.452	1.404	1.375	1.524	1.950	2.002	2.435	3.073	3.419	4.833	5.456	5.435	5.724	7.562	7.344	7.640	7.499	7.000	7.427	7.100	7.703	7.386	7.860	7.621	7.682	8.017	7.920	7.997	8.004	7.571	7.582	7.646	7.918	8.263	8.264	8.289	7.811	7.800	8.116
385.0	1061	1585	1980	2133	2133	1941	1803	1738	1718	1744	1760	1723	1649	1554	1459	1359	1268	1171	1070	984.8	898.0	820.6	754.7	730.0	636.9	464.4	350.1	269.3	202.0	153.9	167.0	607.1	2202	1803	37.90	4.252	2.473	2.008	1.406	1.569	1.458	1.615	1.746	1.916	2.334	2.825	3.599	4.576	5.202	5.197	5.769	7.327	7.486	7.259	7.602	6.987	7.674	7.143	7.621	7.159	7.669	7.441	7.957	8.069	7.543	7.713	7.416	7.125	7.912	8.030	7.708	7.818	8.121	8.168	7.893	7.909	8.078
390.0	1040	1510	1880	2057	2046	1939	1806	1733	1700	1714	1707	1669	1598	1512	1411	1308	1228	1151	1066	998.9	923.1	856.2	791.7	735.7	693.6	589.0	437.5	334.1	253.8	187.5	141.2	202.4	661.6	1612	1621	155.2	11.24	2.928	1.889	1.651	1.557	1.709	1.711	2.025	2.286	2.808	3.339	4.208	4.908	4.966	5.302	6.926	7.128	7.178	7.219	7.124	7.594	7.347	7.333	7.263	7.392	7.527	7.420	7.683	7.773	7.357	7.638	7.334	7.408	7.797	7.434	7.376	7.789	7.708	7.808	7.729	7.960
395.0	998.2	1414	1796	1922	1963	1922	1798	1723	1675	1679	1660	1619	1542	1462	1352	1253	1184	1122	1054	996.9	941.3	884.9	832.5	768.2	702.9	662.5	559.7	414.7	321.7	246.1	176.6	142.9	213.5	416.5	1137	1913	247.2	9.326	2.719	2.199	1.849	1.713	1.812	2.007	2.242	2.896	3.399	4.280	4.661	4.444	5.354	6.573	7.077	6.827	6.917	6.834	7.369	7.439	7.581	7.287	7.389	7.482	7.444	7.563	7.203	7.553	7.352	7.316	6.983	7.338	7.184	7.049	7.370	7.417	7.280	7.544	7.670
400.0	1000	1385	1723	1867	1909	1898	1777	1707	1655	1662	1634	1584	1507	1411	1312	1204	1150	1083	1040	985.5	945.6	892.1	846.2	792.2	724.7	667.5	628.5	484.9	371.1	290.2	214.0	153.9	131.1	147.9	335.7	1482	1643	38.35	5.246	2.687	1.786	1.637	1.785	2.053	2.378	3.021	3.283	4.155	4.399	4.350	4.995	6.632	6.601	6.806	6.797	6.833	7.341	7.080	7.178	7.058	7.225	7.415	7.586	7.133	7.555	7.365	7.229	7.011	7.124	7.154	6.981	7.034	7.289	7.126	7.068	7.307	7.267
405.0	991.8	1371	1660	1811	1850	1841	1733	1675	1623	1632	1595	1543	1466	1363	1269	1174	1108	1054	1014	967.9	930.8	891.8	856.4	807.7	746.4	676.1	635.4	565.7	431.4	331.2	253.8	183.6	133.4	103.2	123.1	457.8	1634	1262	32.64	3.744	2.359	2.020	1.988	2.090	2.331	2.932	3.046	3.843	4.266	4.545	4.741	6.269	6.578	6.648	6.865	6.724	7.131	7.225	7.070	7.165	7.236	7.311	7.139	7.213	6.857	6.831	6.791	7.036	7.259	6.977	6.610	6.506	6.947	7.021	6.694	7.156	6.943
410.0	943.1	1310	1589	1709	1770	1770	1684	1645	1596	1583	1540	1480	1402	1307	1214	1121	1051	1008	964.6	931.0	904.8	875.0	851.2	812.0	760.3	696.2	636.1	595.7	516.2	394.7	298.6	223.0	161.9	115.7	92.12	147.0	492.4	1192	1190	143.2	8.895	2.427	2.250	2.130	2.396	2.708	2.957	3.795	4.160	4.390	4.514	5.712	6.162	6.604	6.555	6.589	6.927	6.927	7.208	6.910	6.982	7.008	7.085	7.090	6.702	6.892	6.746	6.620	6.830	6.501	6.524	6.667	6.448	6.440	6.439	6.634	6.878
415.0	912.0	1225	1507	1610	1678	1692	1646	1591	1546	1516	1467	1405	1328	1238	1146	1050	987.1	952.1	916.8	888.3	864.4	848.2	827.9	797.5	751.4	698.6	641.1	580.4	545.5	468.6	344.7	258.1	193.1	138.7	101.2	90.14	145.6	302.3	836.4	1393	214.6	7.055	2.573	2.210	2.429	2.755	2.962	3.708	4.078	3.741	4.353	5.448	5.726	6.046	6.366	6.181	6.926	6.938	6.947	6.618	6.732	6.735	6.749	6.740	6.924	6.514	6.355	6.152	6.345	6.424	6.302	6.426	6.194	6.581	6.199	6.264	6.277
420.0	828.5	1188	1443	1568	1617	1623	1606	1559	1492	1461	1422	1361	1262	1187	1085	1001	940.1	899.2	871.2	850.4	838.4	815.3	799.6	777.1	741.7	693.5	636.5	578.0	531.5	498.9	387.3	280.7	210.2	155.3	112.7	83.83	75.87	95.89	237.7	1069	1224	34.87	4.311	2.579	2.752	2.690	2.776	3.631	3.887	3.792	4.223	5.318	5.541	5.861	6.065	5.894	6.685	6.777	6.644	6.472	6.691	6.569	6.485	6.622	6.512	6.322	5.955	6.053	5.938	6.332	6.129	6.031	5.976	6.151	5.803	6.036	5.979
425.0	824.0	1148	1366	1494	1554	1595	1567	1526	1469	1415	1385	1312	1220	1136	1038	953.2	895.9	860.9	834.3	813.6	799.4	784.3	772.8	756.4	723.6	682.9	633.6	582.5	524.1	492.3	427.2	308.2	228.2	170.0	125.7	92.91	67.96	55.51	75.83	324.9	1187	945.5	29.37	3.297	2.843	2.701	2.784	3.638	3.758	3.725	3.904	4.951	5.558	5.521	5.675	5.964	6.339	6.471	6.675	6.629	6.610	6.488	6.366	6.528	6.150	5.832	6.020	5.736	5.458	6.017	5.849	5.921	5.629	6.008	5.630	5.830	5.607
430.0	826.9	1093	1314	1435	1491	1535	1532	1503	1451	1382	1332	1255	1163	1072	981.1	900.0	848.3	814.9	791.4	769.7	754.3	742.9	733.5	723.3	697.6	665.7	621.7	576.4	527.2	481.3	432.5	358.3	260.9	193.0	144.6	107.5	78.78	55.84	47.21	93.29	348.3	871.5	922.4	131.2	8.791	3.089	2.977	3.453	3.712	3.540	3.870	4.878	5.222	5.663	5.700	5.794	6.313	6.342	6.469	6.491	6.381	6.232	6.166	6.344	6.131	5.689	5.799	5.628	5.289	5.673	5.304	5.492	5.237	5.478	5.358	5.351	5.549
435.0	957.6	1028	1233	1362	1456	1500	1501	1476	1420	1342	1274	1210	1107	1023	934.8	855.2	805.5	775.0	748.6	726.4	714.5	701.3	693.7	687.6	669.5	639.0	609.9	570.5	528.4	481.3	420.5	377.0	304.5	216.9	164.4	125.9	93.16	67.63	49.40	47.34	96.48	216.1	633.6	1155	202.7	8.211	3.370	3.689	3.755	3.364	3.767	4.872	4.878	5.578	5.332	5.819	6.124	6.191	6.207	6.524	6.158	6.168	6.042	5.946	5.892	5.825	5.397	5.681	5.247	5.379	5.147	5.062	5.309	5.171	5.142	5.110	5.406
440.0	1182	1034	1191	1318	1405	1453	1478	1454	1378	1313	1232	1160	1068	983.1	898.4	820.4	766.3	740.8	715.8	688.5	679.6	664.0	661.2	659.6	647.1	618.7	592.1	564.4	523.7	478.0	417.7	366.1	323.1	243.6	179.1	137.5	104.2	76.48	55.50	43.03	44.34	64.98	179.1	878.4	1075	32.67	5.048	3.895	3.730	3.550	3.695	4.562	5.091	5.204	5.334	5.643	6.049	6.313	5.743	6.328	6.256	6.111	6.071	6.156	5.662	5.491	5.258	5.429	4.877	5.096	5.270	4.999	5.091	4.797	4.908	5.097	5.199
445.0	1305	1140	1135	1256	1378	1423	1442	1429	1351	1275	1201	1126	1033	949.0	860.5	781.0	734.3	701.5	689.8	659.0	644.2	636.9	627.5	625.0	613.0	596.0	572.7	547.6	509.5	470.1	417.8	355.6	314.3	266.1	194.0	146.5	113.8	85.19	61.80	46.44	36.89	33.98	54.41	265.8	1026	872.5	26.23	4.303	3.830	3.473	3.761	4.593	5.152	5.001	5.252	5.695	5.821	6.261	5.915	5.968	6.334	5.928	5.804	5.847	5.443	5.476	5.034	5.449	4.938	4.720	4.979	4.991	4.702	4.880	4.830	4.748	4.940
450.0	1075	1568	1165	1203	1307	1377	1391	1379	1297	1209	1143	1068	970.8	884.3	799.4	726.4	688.0	658.6	633.1	607.9	595.0	585.3	576.9	576.3	573.4	558.2	536.2	515.0	485.7	453.3	406.6	348.5	298.6	264.0	217.9	162.0	122.6	93.52	71.23	54.57	41.15	32.27	30.35	73.42	298.1	772.7	843.8	120.3	8.903	3.684	3.703	4.449	4.548	4.813	4.964	5.230	5.889	5.856	5.835	5.894	5.830	5.637	5.461	5.573	5.328	5.052	4.785	5.107	4.844	4.644	4.640	4.639	4.523	4.467	4.691	4.428	4.440
455.0	735.8	1720	1478	1123	1207	1289	1328	1305	1213	1141	1064	989.7	895.8	815.0	739.4	676.6	632.7	603.7	580.6	556.6	540.9	525.0	520.6	522.9	522.1	510.0	495.1	476.8	458.4	431.7	390.6	339.9	288.1	246.5	217.6	182.2	132.9	100.9	79.32	61.55	47.57	36.67	28.91	32.98	79.15	188.4	508.2	965.5	171.2	8.676	3.863	4.315	4.171	4.639	4.822	4.716	5.615	5.200	5.640	5.311	5.451	5.384	5.285	5.092	5.093	4.570	4.589	4.543	4.542	4.507	3.949	4.285	3.939	4.252	4.311	4.257	4.227
460.0	587.5	1383	1937	1138	1133	1219	1245	1241	1158	1076	1012	935.1	843.2	768.6	690.3	629.5	590.3	561.7	540.5	519.2	500.5	487.6	481.0	485.6	483.6	470.7	460.8	448.3	430.6	408.7	371.8	324.5	278.2	236.5	205.1	187.7	143.7	107.3	84.59	66.99	51.68	40.98	31.53	26.49	32.35	53.13	136.5	665.7	854.7	126.6	5.745	4.336	4.266	4.494	4.583	4.711	5.073	5.168	5.616	5.271	5.049	5.148	5.065	4.807	4.800	4.198	4.352	4.426	4.006	4.149	3.987	4.037	3.931	3.814	4.028	4.019	3.871
465.0	513.0	1003	2148	1324	1056	1135	1170	1175	1092	1009	950.1	887.2	796.5	726.3	648.5	591.3	552.6	524.5	502.0	479.5	458.9	447.5	444.4	445.7	445.4	435.7	428.8	420.1	406.0	384.6	355.4	311.0	269.1	230.9	196.9	176.9	152.2	113.9	87.48	69.90	55.39	44.46	34.23	27.47	23.64	24.90	40.80	191.7	764.2	704.3	22.70	4.908	4.400	4.493	4.305	4.613	4.737	5.135	5.266	4.765	4.667	5.154	4.794	4.498	4.484	4.303	4.046	4.312	3.776	4.062	3.922	3.717	3.455	3.766	3.766	3.737	3.613
470.0	469.3	744.5	1578	1954	1075	1029	1072	1064	998.7	929.5	861.8	802.8	719.5	655.1	586.6	537.4	496.6	470.9	452.0	430.4	409.3	399.2	396.6	398.1	395.9	387.4	385.1	379.0	366.5	351.1	326.2	289.6	252.8	218.1	186.2	161.1	145.7	123.0	93.25	72.89	58.55	47.08	37.60	29.84	24.38	20.50	20.71	52.53	214.4	540.0	598.2	115.4	10.30	4.304	4.218	4.259	4.590	4.548	4.602	4.740	4.376	4.641	4.313	4.227	4.326	4.001	3.724	3.657	3.638	3.649	3.628	3.458	3.370	3.324	3.331	3.415	3.375
475.0	457.1	604.6	935.8	2030	1503	923.1	957.0	954.2	891.4	831.8	777.3	729.6	645.9	584.6	524.3	474.6	440.6	415.3	394.9	380.0	361.5	349.6	346.8	352.7	346.2	340.6	340.6	335.6	326.0	314.8	294.7	264.7	233.4	204.3	173.7	149.2	131.0	119.5	102.4	76.23	60.08	49.16	39.46	32.73	26.86	21.11	17.64	22.54	56.24	129.0	294.6	647.5	176.0	10.79	3.912	4.073	4.309	4.418	4.316	4.186	4.205	4.098	4.065	3.760	3.751	3.620	3.648	3.401	3.401	3.095	3.268	3.202	3.050	3.262	2.978	3.211	3.249
480.0	448.3	539.1	693.1	1540	2025	919.8	884.1	881.8	823.1	769.7	721.0	673.3	596.3	543.7	480.5	435.9	406.2	384.7	363.9	347.8	330.0	319.9	314.4	317.7	314.7	313.3	313.2	304.8	300.2	290.2	272.3	244.9	218.0	191.9	165.3	141.5	123.4	109.2	102.7	80.34	62.74	51.36	41.20	33.55	27.92	22.50	18.32	16.83	22.02	36.09	76.87	364.6	640.7	151.5	6.304	3.921	4.062	3.998	4.091	3.788	3.935	3.772	3.758	3.652	3.442	3.197	3.414	3.205	3.114	3.005	3.104	2.987	2.873	2.881	2.805	2.967	2.932
485.0	411.4	531.0	623.9	988.9	2206	1196	829.3	817.7	773.6	721.9	681.7	635.7	567.8	504.0	451.9	400.7	378.1	354.8	339.0	318.6	305.4	295.0	291.5	292.9	288.2	287.0	286.3	280.9	278.5	270.7	253.4	229.6	205.0	182.2	156.9	136.9	118.1	103.1	96.37	85.38	65.91	51.97	42.68	34.97	29.27	23.54	19.74	16.38	14.84	16.24	23.78	99.71	471.7	595.8	27.92	4.817	4.102	3.826	4.019	3.697	3.735	3.823	3.774	3.469	3.306	3.100	3.127	2.946	2.992	2.871	2.701	2.786	2.654	2.625	2.700	2.535	2.714
490.0	361.1	519.8	568.8	696.8	1567	1855	868.0	741.1	713.8	659.9	625.5	575.9	520.3	460.7	414.2	370.8	339.5	321.0	303.8	288.6	275.7	264.0	260.5	260.0	259.1	257.2	256.5	252.6	251.4	245.3	233.3	211.6	189.2	169.1	147.6	130.3	113.4	98.01	86.52	81.90	71.84	55.63	43.91	36.44	30.97	25.17	21.14	17.36	14.45	12.52	12.71	28.84	125.1	357.1	500.1	122.7	12.45	3.819	3.780	3.501	3.439	3.365	3.361	3.197	3.062	2.898	2.926	2.771	2.665	2.695	2.698	2.635	2.571	2.520	2.541	2.428	2.500
495.0	308.9	450.3	545.3	559.2	848.3	1974	1286	667.4	644.8	596.2	565.3	520.6	465.3	413.8	373.9	332.0	301.4	284.3	272.4	256.3	242.8	232.7	233.3	228.4	228.7	226.9	225.7	223.6	222.6	221.1	208.0	190.8	171.1	154.1	137.0	120.8	105.7	90.55	80.26	73.48	68.77	60.56	45.96	37.29	31.93	26.51	22.35	18.92	15.06	12.47	11.00	13.31	33.59	85.33	220.9	572.1	215.0	14.86	3.699	3.295	3.080	3.027	3.133	2.960	2.741	2.901	2.682	2.623	2.623	2.638	2.432	2.575	2.387	2.323	2.202	2.341	2.223
500.0	256.2	376.9	508.1	514.3	607.1	1437	1849	684.6	578.9	542.6	521.0	481.6	426.0	381.3	338.9	304.8	276.8	258.9	246.7	233.3	217.3	212.3	210.8	208.5	206.0	205.1	203.5	202.3	201.5	197.3	188.5	175.1	156.6	142.3	127.3	112.7	99.50	87.24	76.54	67.47	62.43	61.31	49.09	37.61	31.01	26.34	22.81	18.96	16.25	12.84	10.74	9.657	13.37	24.20	56.04	276.3	612.8	184.0	9.170	3.308	2.992	2.842	2.831	2.727	2.585	2.648	2.391	2.568	2.374	2.572	2.280	2.223	2.151	2.286	2.088	2.095	2.012
505.0	230.2	352.2	483.9	472.9	512.9	871.0	2098	923.5	534.9	499.4	479.4	432.9	392.3	346.7	309.6	276.9	255.1	237.7	220.6	208.9	197.0	191.7	190.5	189.1	186.2	184.4	183.8	184.3	183.9	180.0	172.1	158.1	145.2	130.6	118.3	104.8	93.24	81.17	72.10	63.10	57.30	54.86	50.50	39.15	31.19	26.13	22.27	19.02	15.93	13.12	11.10	9.427	8.940	10.41	17.08	71.21	355.6	571.0	32.40	5.003	3.077	2.524	2.616	2.593	2.400	2.373	2.164	2.292	2.284	2.247	2.101	2.082	1.981	1.960	1.888	2.045	1.980
510.0	201.2	290.1	416.2	458.7	431.2	539.7	1422	1671	565.1	442.1	421.2	386.9	345.4	306.1	273.5	244.4	222.0	207.2	193.6	181.8	172.9	168.4	164.6	163.8	161.3	160.8	159.1	160.0	160.0	157.4	152.0	140.3	128.9	115.8	104.5	93.91	84.24	74.25	65.81	57.42	52.45	47.47	46.52	41.17	32.61	26.07	22.14	19.00	15.93	13.33	11.32	9.561	8.072	7.967	8.742	20.32	89.41	281.8	408.3	133.9	13.09	2.682	2.399	2.367	2.193	2.123	2.200	2.021	2.020	1.837	1.828	1.811	1.934	1.813	1.826	1.743	1.896
515.0	191.2	248.2	322.3	429.5	399.1	416.5	670.7	1854	1023	392.3	363.2	340.9	310.9	272.4	234.8	210.1	191.0	176.5	168.6	158.2	149.8	143.5	139.9	137.3	138.7	138.0	136.9	136.8	136.3	137.2	131.9	121.1	111.9	102.0	91.48	82.80	73.95	65.19	60.18	52.64	46.92	41.40	38.85	37.90	34.61	26.14	20.90	18.48	15.84	13.10	11.43	9.777	7.986	7.589	7.010	8.839	23.84	66.61	142.1	409.1	221.0	16.09	2.544	2.133	1.967	1.971	1.972	1.789	1.661	1.784	1.711	1.676	1.808	1.581	1.444	1.416	1.566
520.0	173.0	216.9	292.1	385.1	379.0	360.0	422.1	1300	1680	423.7	330.0	302.4	277.2	240.6	210.7	189.5	172.1	158.3	148.3	139.7	132.1	127.7	123.9	123.5	122.6	121.7	121.1	122.2	121.3	121.2	117.6	108.4	99.07	91.03	81.81	74.10	67.99	60.32	54.51	48.39	43.12	38.02	34.65	33.41	33.71	27.33	20.85	17.66	15.31	12.70	11.30	9.726	8.523	7.246	6.252	6.345	9.371	18.40	35.59	171.5	441.4	181.9	9.458	2.258	1.929	1.766	1.835	1.703	1.589	1.691	1.649	1.524	1.596	1.445	1.419	1.379	1.465
525.0	152.4	208.4	259.4	309.1	378.8	323.5	341.2	701.8	1988	692.4	302.0	272.8	245.7	216.8	189.8	170.7	153.1	142.1	133.5	123.5	118.1	113.2	112.4	109.9	109.9	108.4	107.2	107.0	107.7	106.9	104.6	97.44	89.99	81.68	75.15	67.35	61.42	55.38	50.03	44.73	40.11	35.49	31.97	29.56	30.34	27.73	22.11	16.88	14.56	12.10	10.70	9.688	8.836	7.100	6.165	5.637	5.989	7.740	11.13	43.06	215.9	419.9	131.0	4.557	2.089	1.735	1.761	1.659	1.568	1.500	1.527	1.357	1.402	1.484	1.271	1.304	1.324
530.0	138.1	174.4	215.5	247.1	331.4	312.2	287.9	376.7	1298	1540	358.6	236.9	211.9	188.7	164.5	148.2	132.7	122.8	115.0	108.9	102.2	98.04	96.15	93.74	94.37	91.91	92.21	91.93	91.72	91.71	88.93	83.66	76.83	70.25	64.26	58.17	53.64	48.64	44.02	40.13	35.60	32.04	28.39	25.72	24.89	25.10	23.02	17.14	13.57	11.62	10.25	9.161	7.884	7.280	6.416	5.410	5.162	5.113	5.548	12.43	53.02	179.7	302.2	134.5	12.88	1.870	1.607	1.611	1.545	1.367	1.280	1.317	1.291	1.318	1.170	1.208	1.237
535.0	134.0	152.7	188.1	201.5	256.6	304.9	246.4	259.0	528.3	1763	850.2	208.8	181.7	165.6	142.2	127.0	112.4	103.8	98.51	93.42	86.31	84.05	81.70	79.41	78.40	76.98	77.32	78.62	78.01	77.23	74.37	70.19	64.98	60.62	54.38	50.05	47.15	42.64	38.37	34.49	31.03	28.29	25.22	23.36	21.32	20.17	21.22	17.98	13.60	11.00	9.646	8.604	7.156	6.516	6.245	5.413	5.060	4.491	4.044	5.600	14.24	42.25	91.79	270.1	206.4	16.08	1.514	1.409	1.302	1.315	1.272	1.126	1.138	1.182	1.161	1.149	1.242
540.0	117.5	138.6	158.4	180.1	201.4	281.0	237.8	212.9	277.2	1145	1547	225.6	160.9	144.3	123.2	110.7	99.54	94.05	86.03	80.02	74.08	72.28	71.45	70.60	69.66	67.49	67.74	67.82	67.56	67.40	65.15	62.14	58.26	53.02	48.36	44.24	40.54	37.84	34.49	30.36	28.50	25.58	22.95	21.02	18.84	16.98	17.98	17.18	13.83	10.71	9.028	8.115	6.917	6.368	5.893	5.500	5.053	4.242	3.886	4.124	5.498	11.66	22.61	101.5	304.9	157.3	8.535	1.423	1.155	1.174	1.179	1.122	1.153	1.207	1.089	1.042	1.027
545.0	101.9	140.5	146.5	154.3	173.2	234.7	240.4	186.6	206.4	527.3	1882	463.3	143.7	124.8	110.2	96.03	88.09	82.82	76.45	69.86	64.74	63.92	63.10	61.59	60.86	59.43	59.91	59.33	59.17	58.83	57.39	54.12	51.13	47.36	42.51	38.61	35.20	33.39	30.95	27.67	25.24	22.59	20.86	18.54	17.20	15.30	14.82	15.66	14.19	10.56	8.373	7.643	6.610	6.178	5.475	5.197	5.243	4.155	3.936	3.438	3.495	4.791	7.006	25.01	135.5	292.2	33.97	3.248	1.151	1.168	1.062	1.055	1.064	1.045	1.069	0.925	0.874
550.0	90.01	110.7	129.9	130.4	139.1	173.4	229.7	170.3	160.8	236.9	1130	1256	162.8	106.1	93.03	80.05	73.94	68.51	62.61	58.89	55.56	53.55	52.87	51.03	50.62	49.33	49.46	49.23	49.03	49.61	47.53	44.84	41.80	39.04	35.35	32.88	30.77	27.65	25.92	23.25	21.24	19.22	16.99	15.68	14.74	13.49	12.51	12.12	12.60	10.92	8.186	6.787	5.726	5.505	4.797	4.640	4.657	4.285	3.487	3.163	2.792	3.042	3.304	7.170	32.92	116.8	186.1	107.8	11.30	1.210	0.964	1.046	0.927	0.900	0.956	0.861	0.847
555.0	87.84	101.5	104.3	113.7	109.6	128.8	184.1	170.5	134.7	147.1	385.3	1520	531.6	90.14	78.18	63.90	60.06	55.24	49.89	48.25	45.12	42.77	42.08	40.77	40.99	39.34	39.52	39.85	39.68	40.09	38.42	36.27	33.32	30.63	28.47	26.89	24.66	22.86	20.98	19.02	17.35	15.96	14.46	12.83	12.28	11.04	10.27	9.500	9.439	9.683	8.511	6.256	5.123	4.772	4.354	4.092	4.006	3.883	3.544	2.782	2.535	2.293	2.254	2.989	8.692	27.41	56.20	175.3	140.8	12.76	0.980	1.010	0.936	0.816	0.795	0.836	0.739
560.0	85.96	88.51	104.7	97.58	96.39	103.9	136.2	176.5	117.9	116.6	167.3	961.0	1152	106.0	63.46	55.38	51.10	46.15	43.26	40.11	37.96	37.35	35.25	34.04	34.16	33.04	33.61	31.84	33.07	32.64	31.32	30.72	28.55	25.89	23.97	22.36	20.97	19.56	17.32	16.38	15.04	13.96	12.52	11.13	11.01	9.544	8.961	8.048	7.665	8.012	7.737	6.382	4.674	4.155	3.881	3.554	3.616	3.140	3.370	2.924	2.272	2.117	1.922	2.098	3.347	7.365	13.84	63.59	188.7	97.44	5.326	1.024	0.869	0.790	0.716	0.699	0.750
565.0	86.31	91.48	92.74	89.72	79.39	83.84	104.1	169.7	120.7	98.78	111.9	401.3	1488	164.1	56.23	48.28	42.17	39.99	36.84	34.44	31.74	31.62	29.93	29.51	29.50	27.69	28.02	27.18	28.58	27.97	27.05	25.18	24.30	22.31	20.67	19.17	17.81	16.59	15.16	14.18	12.79	12.36	10.83	9.729	9.226	8.207	7.779	7.172	6.457	6.346	6.952	6.282	4.596	3.927	3.516	3.243	3.165	2.810	2.814	2.909	2.270	1.944	1.841	1.710	2.000	2.869	4.303	15.70	81.17	174.6	32.76	2.306	0.849	0.741	0.664	0.676	0.689
570.0	80.35	87.81	87.81	77.64	67.06	71.20	78.18	128.8	133.2	86.35	87.61	154.0	891.9	855.5	75.83	39.50	35.08	33.10	29.80	28.28	26.20	25.33	24.33	23.54	23.09	23.66	22.91	22.40	22.79	22.92	22.11	20.69	19.62	17.83	16.46	15.61	14.15	13.34	12.53	11.57	10.63	9.788	9.100	8.165	7.861	6.915	6.612	5.943	5.319	4.974	5.080	5.625	4.546	3.721	3.109	2.899	2.775	2.425	2.403	2.477	2.377	2.114	1.685	1.651	1.735	1.743	2.007	4.576	19.71	68.35	111.6	69.18	8.560	0.736	0.670	0.625	0.601
575.0	87.41	82.13	81.32	71.41	58.09	61.45	63.05	83.35	139.5	93.63	76.20	85.66	281.1	1115	315.8	33.19	29.12	26.61	23.38	23.99	20.99	19.95	19.74	18.35	18.21	18.42	18.22	18.03	18.09	17.61	17.20	15.99	15.26	14.44	12.71	12.01	11.82	10.75	10.41	9.210	8.753	8.271	7.351	6.673	6.360	6.126	5.582	4.712	4.328	4.005	3.927	4.150	4.229	3.680	2.772	2.454	2.255	2.117	2.248	1.922	1.917	2.197	1.874	1.504	1.393	1.405	1.625	2.044	5.380	16.08	32.41	100.6	86.37	8.030	0.705	0.668	0.590
580.0	77.31	81.69	78.77	64.82	51.42	53.01	56.43	67.59	120.2	105.8	69.80	67.62	107.2	693.4	765.5	40.44	24.83	22.27	21.22	19.09	17.50	16.89	16.11	16.02	15.48	15.06	15.73	15.11	14.82	15.04	13.97	13.79	12.64	12.24	10.68	10.49	9.920	9.242	8.540	8.021	7.174	6.927	6.301	5.665	5.347	5.180	4.598	4.181	3.943	3.366	3.253	3.069	3.574	3.443	2.727	2.486	2.072	1.971	1.926	1.727	1.712	1.947	1.879	1.593	1.474	1.260	1.342	1.297	2.188	4.396	8.192	36.35	112.2	34.83	3.512	0.670	0.649
585.0	72.56	73.39	71.78	57.14	48.70	48.84	50.90	54.59	90.64	119.5	69.09	60.65	63.66	273.7	1012	99.28	22.06	19.26	17.84	16.31	15.50	14.37	13.70	13.48	13.75	12.56	13.31	12.88	12.61	12.86	12.14	11.42	10.99	10.62	9.532	8.743	8.621	7.848	7.400	6.843	6.131	5.800	5.483	5.156	4.713	4.379	4.129	3.733	3.409	3.026	2.785	2.838	2.811	3.156	2.922	2.345	1.805	1.801	1.645	1.802	1.599	1.666	1.886	1.663	1.387	1.158	1.231	1.200	1.370	1.764	2.592	9.093	46.96	99.22	29.31	1.515	0.611
590.0	69.62	75.97	69.91	50.67	44.08	44.73	44.41	47.36	62.97	114.3	80.75	58.11	52.34	94.32	604.7	516.0	33.07	16.35	14.85	13.67	12.82	11.54	11.68	11.16	11.08	10.24	10.54	10.44	10.39	10.33	10.03	9.441	8.871	8.624	7.883	7.309	6.665	6.322	6.050	5.383	5.304	4.831	4.353	4.245	3.974	3.647	3.372	3.045	2.935	2.582	2.318	2.319	2.158	2.411	2.646	2.300	1.753	1.631	1.539	1.679	1.404	1.292	1.479	1.645	1.397	1.156	1.136	1.167	1.144	1.119	1.339	2.749	11.40	39.14	68.46	45.13	5.867
595.0	65.86	74.69	65.41	48.25	39.61	41.50	42.11	45.29	51.78	80.97	104.1	58.66	48.33	49.37	179.8	709.0	98.17	13.39	12.19	10.82	10.12	9.981	8.906	8.630	9.044	8.387	8.222	8.301	8.193	8.020	8.074	7.565	7.135	6.657	6.257	5.553	5.215	5.342	4.966	4.253	4.040	3.778	3.464	3.359	3.420	2.946	2.845	2.649	2.412	1.998	1.936	1.999	1.791	1.741	2.132	2.322	1.896	1.581	1.345	1.384	1.399	1.161	1.111	1.190	1.330	1.190	1.080	1.101	1.049	1.031	0.983	1.310	3.184	9.300	19.43	59.75	36.43
600.0	63.06	66.09	62.46	45.39	37.08	40.12	38.71	40.45	49.23	65.85	114.0	65.91	48.82	41.28	62.05	468.9	416.7	17.96	10.06	9.020	8.673	8.526	8.183	7.343	7.651	7.030	6.856	6.951	7.022	6.921	6.821	6.675	6.255	5.378	5.158	4.941	4.792	4.414	4.238	3.876	3.492	3.336	3.272	2.885	2.904	2.505	2.432	2.301	2.082	1.773	1.659	1.611	1.517	1.545	1.649	2.015	1.987	1.487	1.301	1.270	1.238	1.065	1.045	1.037	1.113	1.341	1.107	1.070	0.924	0.756	0.848	0.894	1.287	2.571	4.836	20.96	63.19
605.0	68.92	67.65	62.41	47.06	37.42	39.98	36.98	46.37	53.78	63.79	108.8	90.82	57.16	47.27	39.40	189.0	607.3	57.46	9.229	7.983	7.145	7.178	6.946	6.512	6.177	6.299	5.821	6.132	5.792	5.982	5.584	5.864	5.290	4.721	4.408	4.401	4.150	3.529	3.603	3.269	3.185	2.701	2.757	2.716	2.477	2.248	2.237	2.085	1.839	1.565	1.562	1.430	1.378	1.237	1.346	1.585	1.831	1.643	1.196	1.079	1.082	1.177	1.038	0.995	0.939	1.310	1.309	1.030	0.910	0.832	0.848	0.769	0.839	1.023	1.693	5.292	26.58
610.0	66.14	61.81	58.87	47.53	38.94	41.15	44.16	53.15	68.70	80.99	107.9	126.9	83.89	61.07	49.87	74.59	416.5	307.2	14.91	6.760	5.939	6.017	5.639	5.378	5.357	5.058	4.902	5.175	4.802	5.071	4.778	4.759	4.388	3.995	3.711	3.796	3.369	3.130	2.872	2.699	2.562	2.348	2.090	2.098	2.076	1.972	1.926	1.770	1.567	1.397	1.384	1.311	1.161	1.098	1.155	1.279	1.505	1.469	1.278	1.070	0.970	1.014	1.038	1.082	0.986	1.127	1.224	1.240	1.103	0.991	0.869	0.850	0.750	0.905	0.890	1.723	6.622
615.0	60.55	70.31	60.41	45.92	37.70	40.91	48.92	57.65	70.67	87.20	102.2	134.2	103.3	71.22	56.94	46.99	147.3	472.3	66.93	6.030	5.496	5.006	4.428	4.280	4.052	4.398	4.102	4.317	4.194	3.929	3.822	3.404	3.413	3.248	3.109	3.015	2.699	2.626	2.302	2.279	1.984	2.006	1.792	1.868	1.696	1.552	1.632	1.392	1.364	1.328	1.096	1.227	0.937	1.030	1.008	0.938	1.085	1.521	1.351	1.059	1.059	0.923	0.891	0.916	0.870	1.096	1.036	1.221	1.260	1.037	0.862	0.811	0.845	0.845	0.755	0.834	2.082
620.0	57.11	64.64	54.99	48.97	35.74	38.17	48.62	58.41	68.52	83.97	94.51	121.0	115.0	70.51	55.81	39.21	63.42	344.6	240.8	7.139	4.842	4.260	3.891	3.830	3.644	3.641	3.464	3.804	3.559	3.162	3.340	2.903	2.901	2.693	2.521	2.524	2.384	2.293	1.963	1.889	1.822	1.719	1.638	1.589	1.591	1.470	1.430	1.283	1.111	1.062	0.933	1.106	0.989	0.945	0.911	0.790	0.852	1.091	1.300	1.043	1.058	0.912	0.938	0.971	0.872	0.949	0.937	1.111	1.323	1.079	0.866	0.822	0.751	0.877	0.652	0.668	1.004
625.0	63.82	62.83	57.13	50.81	35.67	39.04	48.19	55.12	65.97	80.00	87.36	107.8	122.7	70.75	52.92	38.92	41.36	151.8	397.6	24.75	4.400	3.946	3.366	3.492	3.459	3.041	3.073	3.230	2.844	2.774	2.925	2.649	2.454	2.429	2.257	2.301	1.956	1.983	1.667	1.495	1.560	1.369	1.427	1.327	1.301	1.259	1.180	1.178	1.033	0.942	0.866	0.997	0.874	0.908	0.807	0.758	0.857	0.863	1.071	1.074	0.958	0.855	0.839	0.916	0.866	0.902	0.920	0.985	1.205	1.005	0.902	0.801	0.739	0.723	0.642	0.610	0.685
630.0	63.47	67.56	54.38	46.51	38.09	36.60	45.68	54.01	63.58	77.80	83.53	94.41	109.0	82.14	53.30	39.01	35.24	53.42	299.0	161.8	6.025	3.267	2.848	3.016	2.694	2.706	2.475	2.458	2.355	2.360	2.320	2.269	2.199	1.903	1.790	1.788	1.715	1.578	1.429	1.372	1.313	1.311	1.211	1.127	1.029	1.129	1.052	0.948	0.897	0.887	0.782	0.789	0.840	0.737	0.662	0.714	0.778	0.789	0.849	0.931	0.971	0.830	0.806	0.875	0.813	0.814	0.821	0.886	0.939	0.954	1.004	0.753	0.771	0.700	0.703	0.579	0.642
635.0	62.91	66.46	58.73	45.24	36.87	34.56	42.41	50.44	60.21	75.27	83.59	91.56	95.13	89.79	55.96	40.06	35.61	27.85	95.62	322.7	39.91	2.937	2.432	2.445	2.360	2.216	2.141	1.961	2.280	1.970	1.876	1.754	1.913	1.544	1.519	1.314	1.410	1.234	1.215	1.207	1.024	1.038	0.903	0.930	0.916	0.937	0.876	0.881	0.804	0.743	0.618	0.773	0.655	0.689	0.663	0.659	0.693	0.667	0.659	0.769	0.912	0.883	0.737	0.877	0.804	0.792	0.820	0.839	0.796	0.888	0.936	0.931	0.798	0.732	0.671	0.685	0.551
640.0	60.24	61.91	55.78	43.72	37.30	36.50	38.48	49.04	59.87	70.17	80.73	87.16	87.88	90.17	63.74	40.25	36.19	23.76	30.23	260.0	146.4	3.345	2.240	2.277	2.009	1.923	1.962	1.747	1.859	1.696	1.882	1.632	1.548	1.507	1.358	1.316	1.257	1.190	1.057	1.063	0.894	0.856	0.831	0.959	0.777	0.835	0.742	0.768	0.749	0.668	0.613	0.675	0.679	0.624	0.702	0.635	0.669	0.716	0.598	0.735	0.753	0.806	0.825	0.913	0.690	0.752	0.739	0.845	0.883	0.760	0.902	0.883	0.718	0.747	0.642	0.614	0.539
645.0	50.82	59.57	56.55	45.36	38.00	36.27	39.12	48.43	54.84	67.32	79.11	85.07	83.93	81.72	70.20	41.86	34.39	21.78	13.59	119.5	267.2	12.39	2.175	2.009	1.859	1.608	1.715	1.580	1.581	1.532	1.591	1.499	1.247	1.275	1.160	1.223	1.206	1.034	0.837	0.930	0.866	0.831	0.784	0.966	0.761	0.759	0.761	0.672	0.656	0.636	0.535	0.650	0.612	0.540	0.606	0.613	0.658	0.649	0.598	0.659	0.671	0.884	0.788	0.860	0.729	0.704	0.751	0.880	0.763	0.644	0.801	0.733	0.886	0.736	0.655	0.619	0.605
650.0	53.88	65.34	70.07	47.41	37.94	36.03	40.95	48.98	52.56	62.29	77.24	78.92	79.05	70.92	73.49	41.89	34.89	22.05	10.34	38.59	278.9	55.18	2.231	1.901	1.661	1.679	1.488	1.502	1.282	1.534	1.308	1.395	1.254	1.068	1.083	1.105	1.046	0.867	0.829	0.766	0.861	0.822	0.690	0.768	0.707	0.727	0.650	0.755	0.628	0.578	0.500	0.632	0.518	0.506	0.582	0.559	0.666	0.681	0.638	0.611	0.655	0.759	0.749	0.680	0.761	0.716	0.760	0.723	0.691	0.679	0.761	0.707	0.798	0.840	0.718	0.624	0.680
